File: data/processed_data_files/tensile/0.254_hd_uprint_typei_4545_r(2).dat
MTS793|BTW|ENU|1|2|.|/|:|1|0|0|A

Data Header:			0.254_hd_uprint_typei_4545_r0			Time:	20.021	s	4/15/2019 4:05:40 PM
Data Acquisition:	Timed
Station Name:	ft40.cfg
Test File Name:	monotonic_0.2540_typei_hd_4545_uprint.tst
Displacement	Force	Running Time
mm	N	s
9.98	-132.309	0.0244141
9.979702	-126.099	0.0439453
9.98056	-126.35	0.0634766
9.98107	-132.794	0.0830078
9.98224	-127.645	0.102539
9.98394	-124.959	0.12207
9.98531	-127.144	0.141602
9.987	-128.937	0.161133
9.98866	-120.844	0.180664
9.99098	-124.989	0.200195
9.99227	-126.565	0.219727
9.99415	-123.534	0.239258
9.996213	-121.803	0.258789
9.99715	-128.533	0.27832
9.99905	-119.1972	0.297852
10.00063	-117.629	0.317383
10.0015	-125.756	0.336914
10.00289	-124.368	0.356445
10.0064	-115.6	0.375977
10.007	-122.54	0.395508
10.0078	-121.174	0.415039
10.0102	-114.365	0.43457
10.0113	-120.475	0.454102
10.0137	-123.011	0.473633
10.0149	-111.3477	0.493164
10.0163	-114.919	0.512695
10.0177	-120.1248	0.532227
10.0187	-111.366	0.551758
10.0214	-114.821	0.571289
10.0225	-120.162	0.59082
10.0248	-111.556	0.610352
10.0264	-109.791	0.629883
10.0281	-116.0033	0.649414
10.0298	-109.312	0.668945
10.03047	-110.787	0.688477
10.0328	-115.854	0.708008
10.0344	-110.247	0.727539
10.0352	-104.779	0.74707
10.0383	-112.496	0.766602
10.0387	-110.451	0.786133
10.0402	-107	0.805664
10.0426	-106.066	0.825195
10.0438	-110.999	0.844727
10.0458	-102.968	0.864258
10.0475	-104.468	0.883789
10.0489	-107.494	0.90332
10.0501	-104.468	0.922852
10.0519	-99.261	0.942383
10.0544	-109.409	0.961914
10.0556	-101.5385	0.981445
10.05729	-96.9526	1.00098
10.0584	-101.944	1.02051
10.0612	-105.5877	1.04004
10.0619	-95.4758	1.05957
10.0629	-101.665	1.0791
10.0658	-102.105	1.09863
10.067	-95.492	1.11816
10.0686	-98.6277	1.1377
10.07093	-101.931	1.15723
10.07172	-90.2302	1.17676
10.0728	-95.0722	1.19629
10.0759	-99.731	1.21582
10.0759	-91.0415	1.23535
10.0782	-90.4196	1.25488
10.0805	-98.6253	1.27441
10.0825	-93.6395	1.29395
10.083	-89.2867	1.31348
10.0855	-95.23539	1.33301
10.0864	-91.8098	1.35254
10.088	-88.0994	1.37207
10.089	-91.5841	1.3916
10.0922	-92.7118	1.41113
10.09317	-82.0783	1.43066
10.095	-87.0706	1.4502
10.0969	-88.954	1.46973
10.0985	-86.6865	1.48926
10.1001	-82.2585	1.50879
10.1015	-90.9242	1.52832
10.1031	-82.1917	1.54785
10.1035	-82.2827	1.56738
10.1056	-86.93	1.58691
10.1078	-85.8575	1.60645
10.1092	-76.5508	1.62598
10.1108	-85.7502	1.64551
10.11296	-82.89505	1.66504
10.1151	-75.5363	1.68457
10.1147	-79.6347	1.7041
10.1172	-84.2083	1.72363
10.1191	-73.1789	1.74316
10.1204	-79.4031	1.7627
10.1219	-79.0846	1.78223
10.1245	-72.1409	1.80176
10.1269	-74.9655	1.82129
10.1284	-81.1958	1.84082
10.12921	-72.4031	1.86035
10.1309	-71.1845	1.87988
10.1312	-79.2991	1.89941
10.1329	-71.9196	1.91895
10.1362	-69.4533	1.93848
10.1366	-73.1778	1.95801
10.1382	-72.53421	1.97754
10.1398	-66.2107	1.99707
10.1425	-70.7922	2.0166
10.1432	-68.6173	2.03613
10.1453	-66.5436	2.05566
10.14742	-67.2106	2.0752
10.1482	-71.1239	2.09473
10.1516	-59.62241	2.11426
10.1514	-61.9329	2.13379
10.15199	-69.0879	2.15332
10.1562	-65.1152	2.17285
10.157	-58.5708	2.19238
10.15868	-66.422	2.21191
10.1588	-60.86322	2.23145
10.16185	-56.3669	2.25098
10.16365	-63.7583	2.27051
10.164	-64.6323	2.29004
10.1672	-51.7874	2.30957
10.1671	-60.8027	2.3291
10.1696	-62.183	2.34863
10.1708	-52.2834	2.36816
10.1733	-55.3185	2.3877
10.1744	-61.8155	2.40723
10.1766	-52.2381	2.42676
10.1773	-53.6852	2.44629
10.1787	-58.3201	2.46582
10.1807	-48.3898	2.48535
10.1818	-50.7822	2.50488
10.1842	-57.866	2.52441
10.1853	-48.3293	2.54395
10.1881	-45.2331	2.56348
10.1894	-53.5307	2.58301
10.1904	-47.7994	2.60254
10.193	-46.4483	2.62207
10.1943	-47.427	2.6416
10.1954	-47.8366	2.66113
10.1973	-40.5187	2.68066
10.1972	-44.4211	2.7002
10.2005	-44.9626	2.71973
10.2024	-42.2599	2.73926
10.20379	-39.791	2.75879
10.2061	-47.6824	2.77832
10.2076	-37.8335	2.79785
10.2081	-36.3265	2.81738
10.2101	-41.4002	2.83691
10.212	-42.7203	2.85645
10.2135	-34.1801	2.87598
10.2148	-41.4514	2.89551
10.21762	-36.2555	2.91504
10.2185	-32.2494	2.93457
10.2193	-37.7356	2.9541
10.2217	-40.3581	2.97363
10.2225	-27.6214	2.99316
10.2246	-34.0576	3.0127
10.2258	-37.7684	3.03223
10.2275	-29.0204	3.05176
10.229	-30.5389	3.07129
10.2313	-36.4896	3.09082
10.2322	-27.7631	3.11035
10.2339	-26.7876	3.12988
10.2369	-33.3644	3.14941
10.23841	-25.1287	3.16895
10.24	-25.54088	3.18848
10.2426	-29.9746	3.20801
10.24243	-25.8151	3.22754
10.2452	-19.8662	3.24707
10.24645	-26.183	3.2666
10.2468	-24.9722	3.28613
10.2488	-22.2094	3.30566
10.2506	-20.9704	3.3252
10.25227	-24.4497	3.34473
10.2546	-16.0423	3.36426
10.2556	-18.7893	3.38379
10.2567	-21.5067	3.40332
10.259	-18.3985	3.42285
10.2606	-13.3373	3.44238
10.2627	-22.1556	3.46191
10.2643	-14.3689	3.48145
10.2666	-10.0862	3.50098
10.2665	-16.37126	3.52051
10.2684	-18.1717	3.54004
10.2703	-6.272995	3.55957
10.273	-14.3479	3.5791
10.2729	-13.3678	3.59863
10.2748	-6.43174	3.61816
10.2769	-11.7969	3.6377
10.278	-15.3637	3.65723
10.27999	-3.74207	3.67676
10.2816	-7.87952	3.69629
10.2839	-13.1734	3.71582
10.2851	-6.04396	3.73535
10.2856	-6.81646	3.75488
10.2887	-10.7316	3.77441
10.2895	-5.89738	3.79395
10.292	-0.343704	3.81348
10.2936	-6.88807	3.83301
10.2945	-1.20537	3.85254
10.295	2.72499	3.87207
10.29845	-1.5396	3.8916
10.3002	-3.89316	3.91113
10.3014	5.02514	3.93066
10.3029	2.27466	3.9502
10.3041	0.831247	3.96973
10.3056	4.17693	3.98926
10.309	7.22092	4.00879
10.3094	0.142301	4.02832
10.3103	8.23444	4.04785
10.3129	9.03644	4.06738
10.3141	3.03773	4.08691
10.3164	6.76429	4.10645
10.3179	14.5827	4.12598
10.3191	5.20644	4.14551
10.3217	7.26673	4.16504
10.3224	14.9142	4.18457
10.3247	11.1282	4.2041
10.3252	7.63359	4.22363
10.327	19.424	4.24316
10.3298	13.4122	4.2627
10.33	10.967	4.28223
10.3322	20.8256	4.30176
10.3339	15.0059	4.32129
10.3353	9.74971	4.34082
10.3369	20.814	4.36035
10.3387	22.3629	4.37988
10.34	13.887	4.39941
10.3408	20.9809	4.41895
10.3444	23.5874	4.43848
10.34485	18.5146	4.45801
10.3461	21.05192	4.47754
10.3485	27.90131	4.49707
10.3501	21.4187	4.5166
10.3516	24.4962	4.53613
10.354	27.963	4.55566
10.3554	27.5519	4.5752
10.3566	22.7059	4.59473
10.35979	31.732	4.61426
10.3597	31.5665	4.63379
10.3617	26.0555	4.65332
10.3624	30.1581	4.67285
10.3641	36.4018	4.69238
10.3668	27.19817	4.71191
10.3678	34.8972	4.73145
10.37	37.29525	4.75098
10.3715	31.8871	4.77051
10.3716	32.0503	4.79004
10.37454	44.1877	4.80957
10.3761	35.6904	4.8291
10.37761	34.5082	4.84863
10.3794	43.92812	4.86816
10.38091	38.9791	4.8877
10.3821	35.1774	4.90723
10.3848	44.3288	4.92676
10.3858	42.5881	4.94629
10.3876	37.2034	4.96582
10.3896	47.3784	4.98535
10.3904	45.5809	5.00488
10.3919	40.0524	5.02441
10.3943	45.829	5.04395
10.3963	51.0467	5.06348
10.397	43.2656	5.08301
10.3987	47.7853	5.10254
10.3994	50.7006	5.12207
10.4022	48.3036	5.1416
10.4035	48.8349	5.16113
10.4055	55.833	5.18066
10.4068	50.4686	5.2002
10.4086	50.5808	5.21973
10.4103	54.6792	5.23926
10.4119	57.9342	5.25879
10.4131	49.6862	5.27832
10.4153	58.4835	5.29785
10.4171	60.3564	5.31738
10.4189	53.6074	5.33691
10.4193	54.9637	5.35645
10.4223	64.5014	5.37598
10.4237	55.7777	5.39551
10.4249	60.59586	5.41504
10.4268	66.7602	5.43457
10.4283	60.1127	5.4541
10.43	57.0979	5.47363
10.4307	69.7382	5.49316
10.4327	65.5725	5.5127
10.4339	61.6501	5.53223
10.4361	69.642	5.55176
10.43786	67.6077	5.57129
10.4401	61.8731	5.59082
10.441	72.22393	5.61035
10.4419	71.994	5.62988
10.4461	65.7729	5.64941
10.4468	70.6502	5.66895
10.4478	75.6302	5.68848
10.4499	68.854	5.70801
10.4507	71.3683	5.72754
10.4519	79.3502	5.74707
10.4542	72.5422	5.7666
10.4552	74.2979	5.78613
10.4578	78.2887	5.80566
10.4589	78.412	5.8252
10.461	74.062	5.84473
10.4623	82.5153	5.86426
10.4641	80.6507	5.88379
10.4648	77.023	5.90332
10.467	80.57708	5.92285
10.469	88.3707	5.94238
10.4701	76.6633	5.96191
10.4712	85.1048	5.98145
10.4731	89.4886	6.00098
10.4754	84.98114	6.02051
10.4759	82.9066	6.04004
10.4781	92.53125	6.05957
10.4804	85.4123	6.0791
10.4825	87.436	6.09863
10.4832	95.3363	6.11816
10.4845	90.0621	6.1377
10.4865	84.9505	6.15723
10.4883	97.9319	6.17676
10.4901	96.5658	6.19629
10.4903	89.03598	6.21582
10.49373	97.5025	6.23535
10.4952	95.4235	6.25488
10.49613	91.50032	6.27441
10.4987	98.5652	6.29395
10.5004	103.146	6.31348
10.5015	94.393	6.33301
10.5033	98.0086	6.35254
10.5048	102.406	6.37207
10.5068	99.9969	6.3916
10.5072	98.1912	6.41113
10.51	106.75	6.43066
10.5108	103.785	6.4502
10.5131	102.0454	6.46973
10.514	105.499	6.48926
10.5146	108.441	6.50879
10.5178	100.947	6.52832
10.5189	110.413	6.54785
10.5209	111.6068	6.56738
10.5223	106.963	6.58691
10.525	107.822	6.60645
10.5257	118.317	6.62598
10.5278	107.934	6.64551
10.5297	111.764	6.66504
10.5305	117.778	6.68457
10.5327	112.3043	6.7041
10.5339	110.571	6.72363
10.5358	119.4828	6.74316
10.5372	114.567	6.7627
10.5386	112.336	6.78223
10.54045	122.5	6.80176
10.5419	122.114	6.82129
10.543	112.23	6.84082
10.5459	122.3336	6.86035
10.547	125.2621	6.87988
10.5485	118.179	6.89941
10.5506	124.2065	6.91895
10.5525	124.924	6.93848
10.553	119.9565	6.95801
10.5549	123.422	6.97754
10.5571	131.4565	6.99707
10.55841	125.242	7.0166
10.5602	127.348	7.03613
10.5612	129.264	7.05566
10.5639	130.765	7.0752
10.5642	125.727	7.09473
10.5669	133.603	7.11426
10.5691	133.533	7.13379
10.5704	129.776	7.15332
10.5714	132.317	7.17285
10.5726	139.987	7.19238
10.5748	129.226	7.21191
10.5764	138.38	7.23145
10.5783	142.858	7.25098
10.5797	134.129	7.27051
10.58186	132.807	7.29004
10.5832	145.786	7.30957
10.5837	138.08	7.3291
10.586	136.146	7.34863
10.5885	146.367	7.36816
10.5897	139.5323	7.3877
10.5909	136.81	7.40723
10.5923	149.536	7.42676
10.5946	145.591	7.44629
10.5959	140.525	7.46582
10.5971	148.359	7.48535
10.5988	150.2	7.50488
10.6001	141.093	7.52441
10.6024	148.644	7.54395
10.6041	152.744	7.56348
10.6047	145.6909	7.58301
10.6074	151.045	7.60254
10.60914	153.838	7.62207
10.6106	149.6678	7.6416
10.6117	149.555	7.66113
10.6134	158.932	7.68066
10.6147	152.593	7.7002
10.6176	150.862	7.71973
10.6185	157.2793	7.73926
10.6199	160.491	7.75879
10.6221	152.1425	7.77832
10.6241	159.643	7.79785
10.6249	162.5285	7.81738
10.6271	156.909	7.83691
10.628	158.434	7.85645
10.6299	166.761	7.87598
10.631	158.218	7.89551
10.6328	163.898	7.91504
10.6351	171.202	7.93457
10.6363	162.793	7.9541
10.6376	160.314	7.97363
10.6402	171.19	7.99316
10.6418	168.343	8.0127
10.64333	165.101	8.03223
10.64409	172.56	8.05176
10.6458	171.367	8.07129
10.6474	165.576	8.09082
10.6499	175.565	8.11035
10.6508	175.667	8.12988
10.6525	166.858	8.14941
10.6543	175.814	8.16895
10.6564	178.1122	8.18848
10.6571	172.475	8.20801
10.6591	174.546	8.22754
10.6613	182.774	8.24707
10.66271	176.188	8.2666
10.664	176.744	8.28613
10.6654	183.039	8.30566
10.6672	180.967	8.3252
10.6694	176.3255	8.34473
10.6717	187.694	8.36426
10.6723	185.455	8.38379
10.67406	180.355	8.40332
10.6746	183.461	8.42285
10.6776	190.2486	8.44238
10.6792	181.415	8.46191
10.6799	186.777	8.48145
10.6814	191.642	8.50098
10.6837	186.9847	8.52051
10.68662	186.655	8.54004
10.6867	198.629	8.55957
10.6878	189.034	8.5791
10.6914	190.1055	8.59863
10.69182	198.254	8.61816
10.6932	195.192	8.6377
10.6957	188.1205	8.65723
10.696	199.397	8.67676
10.6987	197.057	8.69629
10.6995	192.872	8.71582
10.7021	203.528	8.73535
10.704	202.105	8.75488
10.7038	193.121	8.77441
10.7059	202.827	8.79395
10.7086	204.758	8.81348
10.7106	196.788	8.83301
10.7115	201.649	8.85254
10.7134	205.726	8.87207
10.7153	203.746	8.8916
10.7162	202.308	8.91113
10.7176	210.248	8.93066
10.7193	205.834	8.9502
10.7205	206.9124	8.96973
10.7226	211.018	8.98926
10.724	210.845	9.00879
10.7259	203.902	9.02832
10.7271	213.629	9.04785
10.7297	217.313	9.06738
10.7306	209.978	9.08691
10.7324	210.655	9.10645
10.733	219.812	9.12598
10.7366	210.482	9.14551
10.7368	214.857	9.16504
10.7395	220.959	9.18457
10.7405	215.781	9.2041
10.7409	213.564	9.22363
10.7446	225.781	9.24316
10.7454	217.707	9.2627
10.7465	216.894	9.28223
10.74879	225.958	9.30176
10.7509	223.705	9.32129
10.753	217.184	9.34082
10.7539	227.025	9.36035
10.7554	226.927	9.37988
10.75737	220.4966	9.39941
10.759	228.016	9.41895
10.7598	231.502	9.43848
10.7619	223.92	9.45801
10.7633	228.589	9.47754
10.7657	235.082	9.49707
10.7669	227.244	9.5166
10.7681	230.167	9.53613
10.7706	233.483	9.55566
10.7713	232.398	9.5752
10.7731	229.332	9.59473
10.7747	239.651	9.61426
10.7765	234.521	9.63379
10.7777	232.706	9.65332
10.7789	236.661	9.67285
10.7813	242.54	9.69238
10.7832	233.085	9.71191
10.7849	241.37	9.73145
10.7868	245.469	9.75098
10.7873	238.246	9.77051
10.7892	236.595	9.79004
10.79195	247.248	9.80957
10.7926	239.487	9.8291
10.7942	240.845	9.84863
10.7948	250.442	9.86816
10.7976	244.233	9.8877
10.7992	240.77	9.90723
10.8004	253.663	9.92676
10.8027	249.936	9.94629
10.80407	244.413	9.96582
10.8061	252.872	9.98535
10.80756	252.673	10.0049
10.808	245.114	10.0244
10.8098	252.695	10.0439
10.8122	255.895	10.0635
10.8146	249.608	10.083
10.8149	256.119	10.1025
10.8174	256.723	10.12207
10.8177	253.5	10.1416
10.8198	254.102	10.1611
10.8224	262.103	10.1807
10.8235	259.446	10.2002
10.8254	255.838	10.2197
10.8264	260.327	10.2393
10.82865	262.522	10.2588
10.8292	257.065	10.27832
10.8317	265.904	10.2979
10.8331	265.835	10.3174
10.8353	261.404	10.3369
10.8362	262.539	10.3564
10.8395	272.387	10.376
10.8391	261.4642	10.3955
10.8421	268.298	10.415
10.8425	274.254	10.43457
10.8451	266.822	10.4541
10.8457	263.534	10.4736
10.8481	277.543	10.4932
10.8498	270.556	10.5127
10.852	268.628	10.5322
10.8526	278.289	10.5518
10.8543	275.15	10.5713
10.8559	268.8605	10.59082
10.8569	279.463	10.6104
10.8591	279.042	10.6299
10.861	272.033	10.6494
10.8625	278.741	10.6689
10.8639	282.919	10.6885
10.8647	275.3248	10.708
10.86734	277.675	10.7275
10.8693	284.974	10.74707
10.8704	280.506	10.7666
10.8723	280.064	10.7861
10.8746	287.094	10.8057
10.8754	283.876	10.8252
10.8772	279.606	10.8447
10.8787	291.101	10.8643
10.881	288.36	10.8838
10.88216	284.073	10.90332
10.8835	287.402	10.9229
10.8844	292.9686	10.9424
10.887	286.294	10.9619
10.8888	291.327	10.9814
10.8907	294.681	11.001
10.8921	288.8688	11.0205
10.8937	289.161	11.04
10.89506	301.026	11.05957
10.89721	291.493	11.0791
10.897	290.991	11.0986
10.9	300.61	11.1182
10.90188	299.298	11.1377
10.9027	290.55	11.1572
10.9043	302.039	11.1768
10.9054	299.933	11.1963
10.9087	294.238	11.21582
10.9098	304.32	11.2354
10.9113	303.594	11.2549
10.9133	294.877	11.2744
10.914	304.489	11.2939
10.9154	309.696	11.3135
10.9179	299.765	11.333
10.9197	303.369	11.3525
10.9222	309.005	11.37207
10.9221	305.382	11.3916
10.9246	304.697	11.4111
10.9257	314.4996	11.4307
10.9274	306.524	11.4502
10.9292	306.694	11.4697
10.9312	314.244	11.4893
10.9326	315.657	11.5088
10.9337	306.142	11.52832
10.936	316.746	11.5479
10.9377	316.261	11.5674
10.94	310.848	11.5869
10.94114	312.939	11.6064
10.9428	320.671	11.626
10.9439	313.201	11.6455
10.9463	318.076	11.665
10.9473	325.601	11.68457
10.94943	318.5452	11.7041
10.9489	314.978	11.7236
10.9522	328.092	11.7432
10.9533	321.137	11.7627
10.95559	318.474	11.7822
10.9571	328.351	11.8018
10.9591	326.317	11.8213
10.9606	319.771	11.84082
10.9622	330.126	11.8604
10.9633	329.4903	11.8799
10.9645	323.156	11.8994
10.9673	330.78	11.9189
10.9693	332.794	11.9385
10.9693	324.14	11.958
10.9717	329.099	11.9775
10.974	339.1694	11.99707
10.9749	329.66	12.0166
10.9763	332.4035	12.0361
10.9786	335.738	12.0557
10.9805	335.801	12.0752
10.9818	331.319	12.0947
10.9829	339.956	12.1143
10.9848	336.813	12.1338
10.9866	335.288	12.15332
10.98822	339.306	12.1729
10.9892	345.018	12.1924
10.9913	335.159	12.2119
10.9932	340.7	12.2314
10.99455	347.5585	12.251
10.99649	341.146	12.2705
10.9975	339.059	12.29
10.99921	351.933	12.30957
11.0009	341.358	12.3291
11.0019	343.836	12.3486
11.0053	352.078	12.3682
11.0058	347.326	12.3877
11.00843	340.507	12.4072
11.0102	353.072	12.4268
11.0108	352.607	12.4463
11.0131	344.118	12.46582
11.01437	352.5589	12.4854
11.0157	353.81	12.5049
11.0171	347.768	12.5244
11.0188	354.014	12.5439
11.0209	359.505	12.5635
11.0218	350.22	12.583
11.0237	355.973	12.6025
11.0255	360.996	12.62207
11.027	354.462	12.6416
11.0286	355.326	12.6611
11.0297	363.583	12.6807
11.03125	358.856	12.7002
11.0338	358.703	12.7197
11.0344	361.346	12.7393
11.0357	363.895	12.7588
11.0375	357.277	12.77832
11.0403	367.605	12.7979
11.0406	366.604	12.8174
11.0425	358.406	12.8369
11.0454	364.052	12.8564
11.04586	372.545	12.876
11.0485	363.057	12.8955
11.0491	367.805	12.915
11.052	375.311	12.93457
11.0526	369.16	12.9541
11.0537	364.024	12.9736
11.057	375.035	12.9932
11.0574	370.652	13.0127
11.0596	369.596	13.0322
11.0619	379.211	13.0518
11.0627	375.043	13.0713
11.0643	367.302	13.09082
11.0655	379.02	13.1104
11.0675	379.164	13.1299
11.069	373.173	13.1494
11.0706	379.138	13.1689
11.0727	380.346	13.1885
11.0746	373.871	13.208
11.075	381.475	13.2275
11.0777	385.969	13.24707
11.0789	378.016	13.2666
11.0792	380.481	13.2861
11.0814	387.5	13.3057
11.0834	383.458	13.3252
11.0855	378.856	13.3447
11.0877	390.5947	13.3643
11.0876	388.6355	13.3838
11.0896	384.798	13.40332
11.0925	386.261	13.4229
11.094	392.711	13.4424
11.0946	383.971	13.4619
11.0983	391.545	13.4814
11.09953	396.24	13.501
11.0999	388.135	13.5205
11.1012	388.47	13.54
11.1044	400.112	13.55957
11.1055	391.5379	13.5791
11.1074	393.297	13.5986
11.108	400.802	13.6182
11.1101	397.027	13.6377
11.1115	389.287	13.6572
11.1134	402.94	13.6768
11.1141	397.902	13.6963
11.1154	393.415	13.71582
11.1193	403.979	13.7354
11.1197	404.6156	13.7549
11.1221	395.631	13.7744
11.1227	402.9884	13.7939
11.1245	407.354	13.8135
11.127	401.44	13.833
11.1273	403.12	13.8525
11.1293	407.043	13.87207
11.131	404.101	13.8916
11.1326	404.224	13.9111
11.1335	413.988	13.9307
11.1362	406.478	13.9502
11.13783	406.706	13.9697
11.1387	412.34	13.9893
11.1415	414.46	14.0088
11.1427	406.892	14.02832
11.1447	414.639	14.0479
11.1455	416.3551	14.0674
11.1473	409.803	14.0869
11.1489	411.61	14.1064
11.1513	420.533	14.126
11.1522	410.4953	14.1455
11.1548	415.191	14.165
11.1551	422.757	14.18457
11.1574	416.77	14.2041
11.15894	411.479	14.2236
11.1599	427.384	14.2432
11.1625	419.648	14.2627
11.1629	416.285	14.2822
11.166	427.001	14.3018
11.1667	424.358	14.3213
11.1686	416.4783	14.34082
11.17	427.576	14.3604
11.1718	427.764	14.3799
11.1736	420.48	14.3994
11.1745	428.934	14.4189
11.1768	432.347	14.4385
11.1782	423.908	14.458
11.1801	427.326	14.4775
11.1811	435.088	14.49707
11.1836	427.253	14.5166
11.1846	429.466	14.5361
11.1867	434.963	14.5557
11.1879	433.066	14.5752
11.1894	429.313	14.5947
11.1899	439.822	14.6143
11.1927	436.1434	14.6338
11.1946	432.818	14.65332
11.1962	436.4588	14.6729
11.1979	442.916	14.6924
11.1996	432.259	14.7119
11.2006	439.272	14.7314
11.203	444.308	14.751
11.2047	437.936	14.7705
11.2053	436.689	14.79
11.2064	448.955	14.80957
11.2085	438.87	14.8291
11.2103	440.986	14.8486
11.2117	449.849	14.8682
11.2139	444.904	14.8877
11.2155	436.617	14.9072
11.2175	451.502	14.9268
11.21894	449.242	14.9463
11.2221	442.847	14.96582
11.22287	451.327	14.9854
11.2236	452.176	15.0049
11.22608	442.898	15.0244
11.2272	452.119	15.0439
11.2286	456.391	15.0635
11.2298	446.063	15.083
11.2323	452.206	15.1025
11.2339	455.308	15.12207
11.2357	450.216	15.1416
11.2375	449.117	15.1611
11.2386	460.662	15.1807
11.2399	455.163	15.2002
11.2418	455.302	15.2197
11.2428	458.241	15.2393
11.2448	458.738	15.2588
11.2462	452.456	15.27832
11.2483	463.119	15.2979
11.2497	463.522	15.3174
11.2518	457.813	15.3369
11.2527	459.868	15.3564
11.2556	468.633	15.376
11.2566	457.724	15.3955
11.2584	463.846	15.415
11.2597	469.182	15.43457
11.2615	463.852	15.4541
11.2631	459.384	15.4736
11.26512	474.4006	15.4932
11.2662	466.72	15.5127
11.269	465.012	15.5322
11.2694	474.081	15.5518
11.271	472.841	15.5713
11.2725	463.878	15.59082
11.2753	474.635	15.6104
11.27679	475.614	15.6299
11.2786	467.301	15.6494
11.2789	474.002	15.6689
11.2809	478.529	15.6885
11.283	469.547	15.708
11.2845	475.0809	15.7275
11.2851	482.511	15.74707
11.28742	474.413	15.7666
11.288	476.981	15.7861
11.2909	482.137	15.8057
11.2912	481.174	15.8252
11.2937	474.329	15.8447
11.2958	484.188	15.8643
11.29703	483.89	15.8838
11.2989	479.244	15.90332
11.3009	484.483	15.9229
11.3031	487.93	15.9424
11.3039	477.617	15.9619
11.305	488.165	15.9814
11.307	490.846	16.001
11.3093	483.337	16.0205
11.3105	481.3938	16.04
11.3122	494.9082	16.05957
11.3132	485.986	16.0791
11.31447	487.152	16.0986
11.31747	496.055	16.1182
11.3186	490.39	16.1377
11.3192	484.336	16.1572
11.32157	499.336	16.1768
11.3232	494.305	16.1963
11.3253	487.215	16.21582
11.3259	496.333	16.2354
11.3281	497.5	16.2549
11.3286	489.525	16.2744
11.331	499.034	16.2939
11.3333	500.984	16.3135
11.3342	494.194	16.333
11.3362	499.218	16.3525
11.3368	504.12	16.37207
11.3393	496.8233	16.3916
11.3412	498.339	16.4111
11.34306	508.412	16.4307
11.3441	501.1301	16.4502
11.3458	499.148	16.4697
11.347	505.715	16.4893
11.3485	507.901	16.5088
11.3491	499.846	16.52832
11.3523	511.022	16.5479
11.3543	508.776	16.5674
11.356	502.69	16.5869
11.35694	505.34	16.6064
11.35909	515.616	16.626
11.3603	504.837	16.6455
11.3618	510.792	16.665
11.3646	517.968	16.68457
11.3651	512.012	16.7041
11.3664	505.796	16.7236
11.36942	519.953	16.7432
11.3697	511.54	16.7627
11.3709	510.917	16.7822
11.3728	519.24	16.8018
11.3751	517.179	16.8213
11.3776	508.467	16.84082
11.3776	522.009	16.8604
11.3796	523.177	16.8799
11.3819	513.188	16.8994
11.3825	520.618	16.9189
11.3862	522.79	16.9385
11.3856	515.046	16.958
11.3873	520.599	16.9775
11.3903	525.585	16.99707
11.3921	521.025	17.0166
11.3934	521.841	17.0361
11.3947	527.579	17.0557
11.3958	523.067	17.0752
11.3983	522.2771	17.0947
11.4002	532.225	17.1143
11.4014	528.728	17.1338
11.4024	523.4718	17.15332
11.4047	526.83	17.1729
11.406	533.395	17.1924
11.4074	525.759	17.2119
11.4091	531.994	17.2314
11.41108	535.675	17.251
11.4131	528.758	17.2705
11.414	528.608	17.29
11.4159	540.865	17.30957
11.4176	530.189	17.3291
11.4188	530.355	17.3486
11.4204	540.521	17.3682
11.4231	535.966	17.3877
11.4238	529.232	17.4072
11.4256	542.2569	17.4268
11.4266	540.571	17.4463
11.4285	534.727	17.46582
11.4303	542.481	17.4854
11.4314	542.929	17.5049
11.4328	533.462	17.5244
11.4357	543.143	17.5439
11.4376	545.8927	17.5635
11.4385	537.8725	17.583
11.4397	541.965	17.6025
11.44226	548.122	17.62207
11.4432	541.576	17.6416
11.44551	543.153	17.6611
11.4468	551.529	17.6807
11.4493	544.803	17.7002
11.4495	543.263	17.7197
11.4513	550.334	17.7393
11.4533	552.002	17.7588
11.4548	542.485	17.77832
11.4569	554.448	17.7979
11.4584	554.039	17.8174
11.4606	548.88	17.8369
11.4617	548.746	17.8564
11.46228	557.567	17.876
11.4649	550.172	17.8955
11.466	557.017	17.915
11.4682	561.331	17.93457
11.4704	552.89	17.9541
11.4719	549.327	17.9736
11.4728	564.498	17.9932
11.4741	556.177	18.0127
11.4762	553.696	18.0322
11.4781	562.662	18.0518
11.4794	562.349	18.0713
11.4807	553.766	18.09082
11.4823	564.42	18.1104
11.4844	563.834	18.1299
11.4859	556.986	18.1494
11.4882	563.9115	18.1689
11.4892	568.169	18.1885
11.4909	557.49	18.208
11.4923	562.979	18.2275
11.4942	571.5752	18.24707
11.4954	562.094	18.2666
11.4983	563.9032	18.2861
11.4981	570.802	18.3057
11.5009	567.391	18.3252
11.502	564.038	18.3447
11.504	573.992	18.3643
11.5057	570.245	18.3838
11.5073	566.433	18.40332
11.5092	572.086	18.4229
11.5097	577.499	18.4424
11.51221	567.4519	18.4619
11.5135	574.993	18.4814
11.5145	579.055	18.501
11.5176	572.519	18.5205
11.5193	572.005	18.54
11.5197	581.579	18.55957
11.5224	572.372	18.5791
11.5239	573.966	18.5986
11.5248	583.922	18.6182
11.5259	577.17	18.6377
11.5274	570.393	18.6572
11.5292	585.951	18.6768
11.5315	582.3894	18.6963
11.5326	576.809	18.71582
11.5349	584.4425	18.7354
11.537	583.437	18.7549
11.5377	577.379	18.7744
11.5397	584.834	18.7939
11.5412	588.4859	18.8135
11.5428	579.251	18.833
11.5448	585.214	18.8525
11.5455	589.987	18.87207
11.5468	582.8	18.8916
11.5498	585.174	18.9111
11.5501	592.583	18.9307
11.5533	588.142	18.9502
11.5542	586.26	18.9697
11.5557	589.517	18.9893
11.5579	591.973	19.0088
11.559	586.329	19.02832
11.5605	596.113	19.0479
11.5625	594.274	19.0674
11.564	589.207	19.0869
11.5649	592.564	19.1064
11.5672	601.191	19.126
11.5697	589.9212	19.1455
11.5707	594.162	19.165
11.5719	600.416	19.18457
11.5729	594.495	19.2041
11.5756	591.352	19.2236
11.577	605.025	19.2432
11.5788	596.802	19.2627
11.5808	595.531	19.2822
11.5821	606.8103	19.3018
11.58376	604.85	19.3213
11.585	592.665	19.34082
11.5867	603.763	19.3604
11.5875	605.009	19.3799
11.5905	599.081	19.3994
11.5923	603.889	19.4189
11.5938	607.351	19.4385
11.5939	599.314	19.458
11.5962	605.77	19.4775
11.5979	611.362	19.49707
11.5995	604.843	19.5166
11.6013	606.127	19.5361
11.6034	611.857	19.5557
11.6052	609.478	19.5752
11.6069	605.553	19.5947
11.608	613.888	19.6143
11.6093	611.947	19.6338
11.6116	607.515	19.65332
11.6124	611.935	19.6729
11.6151	615.416	19.6924
11.6161	608.596	19.7119
11.618	616.797	19.7314
11.6187	621.151	19.751
11.6215	612.093	19.7705
11.6229	612.856	19.79
11.6239	625.32	19.80957
11.6245	613.901	19.8291
11.6267	616.089	19.8486
11.6291	623.493	19.8682
11.63	618.435	19.8877
11.63214	614.12	19.9072
11.6337	626.123	19.9268
11.6354	621.413	19.9463
11.6376	617.129	19.96582
11.6388	626.703	19.9854
11.6404	627.207	20.0049
11.6412	622.22	20.0146

Data Header:			0.254_hd_uprint_typei_4545_r0			Time:	40.0198	s	4/15/2019 4:06:00 PM
Data Acquisition:	Timed
Station Name:	ft40.cfg
Test File Name:	monotonic_0.2540_typei_hd_4545_uprint.tst
Displacement	Force	Running Time
mm	N	s
11.6419	614.388	20.0244
11.6439	625.911	20.0439
11.6455	630.973	20.0635
11.6467	622.334	20.083
11.6487	625.166	20.1025
11.65	630.065	20.12207
11.6529	624.4563	20.1416
11.653	625.929	20.1611
11.65602	633.9433	20.1807
11.6576	627.889	20.2002
11.6585	625.783	20.2197
11.66057	632.839	20.2393
11.6617	631.729	20.2588
11.6632	626.729	20.27832
11.6655	635.354	20.2979
11.6663	634.617	20.3174
11.6682	629.819	20.3369
11.6696	631.524	20.3564
11.6705	638.558	20.376
11.6737	631.056	20.3955
11.6753	634.221	20.415
11.6752	643.395	20.43457
11.6784	635.454	20.4541
11.6799	631.3653	20.4736
11.6809	645.602	20.4932
11.6835	638.909	20.5127
11.6848	637.235	20.5322
11.6859	643.228	20.5518
11.6874	642.944	20.5713
11.6889	633.684	20.59082
11.69041	645.817	20.6104
11.6922	645.399	20.6299
11.6949	637.8634	20.6494
11.6964	644.59	20.6689
11.6972	649.357	20.6885
11.6989	639.2085	20.708
11.7013	644.2912	20.7275
11.7028	651.342	20.74707
11.7041	645.012	20.7666
11.7049	644.7738	20.7861
11.708	650.611	20.8057
11.7078	645.964	20.8252
11.7115	645.261	20.8447
11.7121	654.811	20.8643
11.7134	652.023	20.8838
11.7151	645.995	20.90332
11.7171	651.7865	20.9229
11.7187	655.821	20.9424
11.72	647.474	20.9619
11.7227	656.2475	20.9814
11.7231	657.935	21.001
11.7254	652.587	21.0205
11.727	652.748	21.04
11.7279	662.3515	21.05957
11.72957	652.839	21.0791
11.7318	654.192	21.0986
11.7331	664.545	21.1182
11.7349	660.185	21.1377
11.7368	649.551	21.1572
11.7375	665.352	21.1768
11.7409	661.899	21.1963
11.7416	656.331	21.21582
11.7419	663.637	21.2354
11.7445	664.706	21.2549
11.7459	653.574	21.2744
11.748	665.474	21.2939
11.7498	668.565	21.3135
11.75174	660.258	21.333
11.75203	665.364	21.3525
11.7539	671.008	21.37207
11.7558	661.909	21.3916
11.7577	662.9032	21.4111
11.7589	671.956	21.4307
11.7621	667.003	21.4502
11.7633	665.327	21.4697
11.7631	671.458	21.4893
11.7657	669.235	21.5088
11.76806	664.6842	21.52832
11.77	674.299	21.5479
11.77108	675.007	21.5674
11.7724	668.0379	21.5869
11.7735	669.8241	21.6064
11.7757	679.1875	21.626
11.7766	669.326	21.6455
11.7785	673.927	21.665
11.7811	681.472	21.68457
11.7821	673.792	21.7041
11.7832	671.653	21.7236
11.7847	683.5498	21.7432
11.787	674.808	21.7627
11.7892	671.722	21.7822
11.7907	682.4679	21.8018
11.7916	681.654	21.8213
11.7933	670.319	21.84082
11.7947	682.4126	21.8604
11.7974	682.5733	21.8799
11.7984	676.275	21.8994
11.7991	683.431	21.9189
11.8007	685.899	21.9385
11.8037	675.378	21.958
11.8053	682.626	21.9775
11.8069	689.279	21.99707
11.8086	681.9552	22.0166
11.80967	682.286	22.0361
11.8103	690.14	22.0557
11.8129	683.02	22.0752
11.8149	681.882	22.0947
11.8162	690.075	22.1143
11.8186	687.348	22.1338
11.8198	685.253	22.15332
11.8218	689.993	22.1729
11.8222	690.673	22.1924
11.8238	682.831	22.2119
11.8254	691.711	22.2314
11.8274	696.263	22.251
11.8299	689.807	22.2705
11.83	686.419	22.29
11.832	699.426	22.30957
11.8334	690.261	22.3291
11.8369	693.326	22.3486
11.8365	702.1145	22.3682
11.8389	695.852	22.3877
11.8413	688.801	22.4072
11.8418	701.927	22.4268
11.8438	698.359	22.4463
11.8454	692.209	22.46582
11.8479	701.465	22.4854
11.8493	701.284	22.5049
11.8514	691.209	22.5244
11.8507	700.469	22.5439
11.8534	705.204	22.5635
11.855	697.838	22.583
11.8568	701.7	22.6025
11.8588	707.725	22.62207
11.861	696.125	22.6416
11.862	700.0816	22.6611
11.8628	708.998	22.6807
11.8654	702.489	22.7002
11.8675	699.932	22.7197
11.8672	705.884	22.7393
11.8696	705.616	22.7588
11.87113	701.573	22.77832
11.8728	710.491	22.7979
11.8758	709.626	22.8174
11.8775	703.438	22.8369
11.877	705.468	22.8564
11.879	712.7699	22.876
11.8808	704.334	22.8955
11.8822	709.165	22.915
11.8842	714.781	22.93457
11.8863	709.303	22.9541
11.8885	704.663	22.9736
11.8895	717.733	22.9932
11.8904	710.6781	23.0127
11.8928	709.299	23.0322
11.8948	719.072	23.0518
11.8955	714.776	23.0713
11.8981	706.222	23.09082
11.89958	719.529	23.1104
11.9007	718.283	23.1299
11.9018	712.096	23.1494
11.9036	717.333	23.1689
11.9058	722.047	23.1885
11.9075	709.449	23.208
11.9088	717.843	23.2275
11.9108	722.762	23.24707
11.9132	715.782	23.2666
11.913	715.91	23.2861
11.9147	726.186	23.3057
11.917	717.108	23.3252
11.9184	717.669	23.3447
11.9193	724.758	23.3643
11.9221	724.417	23.3838
11.9232	718.56	23.40332
11.9248	722.846	23.4229
11.9268	725.207	23.4424
11.9288	719.409	23.4619
11.9302	726.983	23.4814
11.9315	730.042	23.501
11.9325	723.118	23.5205
11.9345	723.83	23.54
11.9354	733.241	23.55957
11.938	724.8028	23.5791
11.9407	726.706	23.5986
11.94182	732.908	23.6182
11.94295	729.326	23.6377
11.9456	721.322	23.6572
11.946	735.4953	23.6768
11.9487	729.73	23.6963
11.9507	726.42	23.71582
11.95121	734.426	23.7354
11.9525	735.578	23.7549
11.9554	723.178	23.7744
11.9556	734.896	23.7939
11.9578	739.194	23.8135
11.9583	730.128	23.833
11.9603	733.372	23.8525
11.9627	739.131	23.87207
11.9649	729.606	23.8916
11.9646	735.287	23.9111
11.9676	741.634	23.9307
11.968	734.325	23.9502
11.9703	733.361	23.9697
11.9721	741.489	23.9893
11.9734	737.082	24.0088
11.976	733.132	24.02832
11.9784	741.57	24.0479
11.9787	742.97	24.0674
11.9795	736.833	24.0869
11.983	739.144	24.1064
11.9837	744.547	24.126
11.9862	737.7522	24.1455
11.9883	741.479	24.165
11.989	748.3822	24.18457
11.9905	740.621	24.2041
11.9919	736.404	24.2236
11.9938	749.441	24.2432
11.9954	744.299	24.2627
11.9962	741.527	24.2822
11.9985	748.608	24.3018
12.0001	748.59	24.3213
12.0014	737.1712	24.34082
12.003	751.181	24.3604
12.0047	748.612	24.3799
12.0061	742.546	24.3994
12.0089	749.794	24.4189
12.0103	755.101	24.4385
12.0118	741.3	24.458
12.0135	748.449	24.4775
12.0153	755.945	24.49707
12.0156	748.878	24.5166
12.0179	749.48	24.5361
12.0201	756.261	24.5557
12.0213	748.588	24.5752
12.0228	748.535	24.5947
12.0244	757.25	24.6143
12.0268	755.3	24.6338
12.0283	747.729	24.65332
12.0299	756.105	24.6729
12.0308	757.209	24.6924
12.0326	750.913	24.7119
12.0346	757.731	24.7314
12.03666	760.243	24.751
12.03758	753.502	24.7705
12.0387	753.174	24.79
12.0407	761.849	24.80957
12.0423	754.316	24.8291
12.0437	755.3941	24.8486
12.0463	763.698	24.8682
12.04697	758.944	24.8877
12.0492	749.876	24.9072
12.05	764.329	24.9268
12.0522	761.971	24.9463
12.0543	757.681	24.96582
12.0548	762.2594	24.9854
12.0569	765.626	25.0049
12.0588	752.714	25.0244
12.0596	764.425	25.0439
12.0621	768.187	25.0635
12.0634	759.18	25.083
12.0656	761.986	25.1025
12.0671	769.029	25.12207
12.0689	759.034	25.1416
12.0682	762.61	25.1611
12.072	770.115	25.1807
12.0734	765.372	25.2002
12.074	763.016	25.2197
12.0766	769.494	25.2393
12.0783	765.177	25.2588
12.07921	762.7196	25.27832
12.0817	772.385	25.2979
12.0836	772.149	25.3174
12.0847	764.513	25.3369
12.0861	769.918	25.3564
12.08817	774.287	25.376
12.0894	767.753	25.3955
12.0917	770.416	25.415
12.0931	775.117	25.43457
12.094	771.367	25.4541
12.09636	767.069	25.4736
12.0976	777.708	25.4932
12.0997	772.937	25.5127
12.1003	771.416	25.5322
12.1026	778.168	25.5518
12.1039	777.145	25.5713
12.1059	766.421	25.59082
12.1077	778.156	25.6104
12.1086	778.072	25.6299
12.1105	771.541	25.6494
12.1122	776.438	25.6689
12.1134	781.901	25.6885
12.1163	769.548	25.708
12.1175	777.65	25.7275
12.1193	782.852	25.74707
12.1222	776.797	25.7666
12.1218	774.854	25.7861
12.1243	785.168	25.8057
12.12507	777.133	25.8252
12.1279	777.917	25.8447
12.1281	783.1087	25.8643
12.1302	782.645	25.8838
12.132	777.191	25.90332
12.1327	783.137	25.9229
12.1355	782.931	25.9424
12.1371	777.49	25.9619
12.1385	784.4635	25.9814
12.14	788.256	26.001
12.1409	780.2063	26.0205
12.1436	780.217	26.04
12.1441	786.343	26.05957
12.1477	784.148	26.0791
12.14873	783.593	26.0986
12.15	790.7995	26.1182
12.1523	785.0722	26.1377
12.152	781.2793	26.1572
12.1547	791.405	26.1768
12.1568	789.016	26.1963
12.1583	782.511	26.21582
12.1598	790.933	26.2354
12.1607	793.856	26.2549
12.1628	780.56	26.2744
12.1647	791.346	26.2939
12.16682	791.79	26.3135
12.1677	787.367	26.333
12.1699	791.064	26.3525
12.1716	797.023	26.37207
12.173	784.707	26.3916
12.1741	789.16	26.4111
12.1765	796.802	26.4307
12.1778	792.002	26.4502
12.1793	788.037	26.4697
12.1807	796.327	26.4893
12.1821	792.403	26.5088
12.1835	790.481	26.52832
12.186	796.427	26.5479
12.1877	796.824	26.5674
12.1892	788.973	26.5869
12.191	796.223	26.6064
12.192	797.562	26.626
12.1933	793.372	26.6455
12.1956	793.822	26.665
12.1977	802.664	26.68457
12.1993	795.913	26.7041
12.1997	790.729	26.7236
12.2024	800.484	26.7432
12.2033	798.824	26.7627
12.20575	795.328	26.7822
12.2077	801.99	26.8018
12.2093	801.111	26.8213
12.2113	790.659	26.84082
12.2109	801.681	26.8604
12.2132	802.761	26.8799
12.2151	795.543	26.8994
12.2171	800.783	26.9189
12.2184	804.865	26.9385
12.219	794.326	26.958
12.2215	801.273	26.9775
12.22351	805.655	26.99707
12.2254	800.615	27.0166
12.2257	798.957	27.0361
12.228	809.888	27.0557
12.2302	799.156	27.0752
12.2313	798.54	27.0947
12.2334	808.628	27.1143
12.23433	806.159	27.1338
12.2359	799.877	27.15332
12.23805	806.978	27.1729
12.2392	804.293	27.1924
12.2413	802.908	27.2119
12.2429	807.183	27.2314
12.2442	811.894	27.251
12.2454	802.174	27.2705
12.2478	805.014	27.29
12.2484	809.43	27.30957
12.2513	807.396	27.3291
12.2518	805.346	27.3486
12.2539	813.705	27.3682
12.25491	808.94	27.3877
12.2565	802.113	27.4072
12.2598	810.563	27.4268
12.2601	810.06	27.4463
12.2625	806.268	27.46582
12.26408	812.825	27.4854
12.2651	815.994	27.5049
12.2665	801.205	27.5244
12.2684	812.45	27.5439
12.2703	816.454	27.5635
12.2726	809.449	27.583
12.2732	811.021	27.6025
12.2755	818.541	27.62207
12.2779	807.103	27.6416
12.2781	812.217	27.6611
12.2799	818.1665	27.6807
12.282	814.517	27.7002
12.2825	809.363	27.7197
12.285	818.001	27.7393
12.28564	812.911	27.7588
12.2886	811.031	27.77832
12.2901	815.794	27.7979
12.2912	818.934	27.8174
12.29178	812.775	27.8369
12.2951	817.297	27.8564
12.2966	818.683	27.876
12.2977	813.741	27.8955
12.2997	815.1676	27.915
12.30197	823	27.93457
12.3038	816.126	27.9541
12.3048	812.645	27.9736
12.305	821.121	27.9932
12.3077	820.041	28.0127
12.3087	813.543	28.0322
12.31068	822.5365	28.0518
12.3133	820.883	28.0713
12.3139	812.5863	28.09082
12.3147	821.633	28.1104
12.3177	821.9209	28.1299
12.31864	816.5249	28.1494
12.3214	821.745	28.1689
12.3223	825.478	28.1885
12.3244	814.421	28.208
12.3252	818.466	28.2275
12.3278	827.097	28.24707
12.3284	821.614	28.2666
12.3311	819.365	28.2861
12.3314	827.7	28.3057
12.3336	817.989	28.3252
12.3358	819.538	28.3447
12.3372	826.355	28.3643
12.338	826.89	28.3838
12.3411	818.244	28.40332
12.3416	828.049	28.4229
12.3425	826.028	28.4424
12.3455	820.551	28.4619
12.3475	824.688	28.4814
12.3492	830.618	28.501
12.35	821.185	28.5205
12.35122	825.012	28.54
12.353	827.889	28.55957
12.3549	824.275	28.5791
12.3565	823.831	28.5986
12.3569	833.07	28.6182
12.35974	827.355	28.6377
12.3619	821.509	28.6572
12.3637	828.874	28.6768
12.3648	830.574	28.6963
12.3658	824.924	28.71582
12.3685	830.022	28.7354
12.37	832.631	28.7549
12.3704	822.111	28.7744
12.37318	828.781	28.7939
12.37372	834.0152	28.8135
12.376	825.454	28.833
12.3783	827.778	28.8525
12.3804	835.165	28.87207
12.3811	825.693	28.8916
12.3824	828.1084	28.9111
12.3845	835.08	28.9307
12.3868	831.062	28.9502
12.3875	826.793	28.9697
12.38767	837.516	28.9893
12.391	828.517	29.0088
12.3924	827.383	29.02832
12.3946	834.553	29.0479
12.39542	837.491	29.0674
12.3974	828.577	29.0869
12.3988	834.963	29.1064
12.4013	835.203	29.126
12.4021	831.176	29.1455
12.4039	833.479	29.165
12.4043	839.835	29.18457
12.4077	831.733	29.2041
12.40763	830.559	29.2236
12.4096	838.231	29.2432
12.41173	835.322	29.2627
12.4133	828.959	29.2822
12.4153	838.919	29.3018
12.4155	838.634	29.3213
12.4184	828.065	29.34082
12.4199	835.281	29.3604
12.4206	841.956	29.3799
12.4239	832.483	29.3994
12.425	837.453	29.4189
12.4268	842.242	29.4385
12.4283	830.503	29.458
12.4308	835.125	29.4775
12.4321	843.356	29.49707
12.43212	836.81	29.5166
12.43492	833.154	29.5361
12.4371	844.11	29.5557
12.4368	835.023	29.5752
12.4398	833.699	29.5947
12.4403	840.666	29.6143
12.4428	841.1037	29.6338
12.4453	834.206	29.65332
12.447	842.676	29.6729
12.4478	838.777	29.6924
12.4499	835.287	29.7119
12.4515	839.401	29.7314
12.4521	845.0697	29.751
12.4543	836.309	29.7705
12.4562	839.748	29.79
12.4575	841.419	29.80957
12.4592	840.188	29.8291
12.4606	836.604	29.8486
12.4617	846.719	29.8682
12.4635	840.372	29.8877
12.4656	836.239	29.9072
12.4663	843.344	29.9268
12.4689	844.787	29.9463
12.4699	835.084	29.96582
12.47181	844.1817	29.9854
12.4739	847.0387	30.0049
12.4738	836.397	30.0244
12.47679	840.303	30.0439
12.4792	847.843	30.0635
12.4804	838.367	30.083
12.4817	842.847	30.1025
12.4836	850.261	30.12207
12.4857	838.79	30.1416
12.4867	837.925	30.1611
12.4887	849.31	30.1807
12.4901	844.995	30.2002
12.4909	839.29	30.2197
12.4927	849.196	30.2393
12.4943	841.82	30.2588
12.4972	840.089	30.27832
12.4981	848.815	30.2979
12.4998	848.856	30.3174
12.5011	839.195	30.3369
12.5027	847.0282	30.3564
12.5044	847.913	30.376
12.50679	841.409	30.3955
12.5078	841.391	30.415
12.5099	852.8606	30.43457
12.5105	845.668	30.4541
12.5133	845.4129	30.4736
12.5151	848.611	30.4932
12.5162	847.847	30.5127
12.5184	844.08	30.5322
12.5197	853.196	30.5518
12.5208	849.456	30.5713
12.5224	843.22	30.59082
12.5236	847.81	30.6104
12.5265	852.59	30.6299
12.5271	842.963	30.6494
12.5289	848.0528	30.6689
12.5314	854.522	30.6885
12.5325	843.686	30.708
12.5333	843.564	30.7275
12.5356	854.245	30.74707
12.5369	847.692	30.7666
12.5391	845.216	30.7861
12.5401	855.914	30.8057
12.5428	847.222	30.8252
12.5435	842.347	30.8447
12.5453	852.518	30.8643
12.5469	853.649	30.8838
12.5488	845.878	30.90332
12.5506	855.021	30.9229
12.552	849.044	30.9424
12.5528	844.761	30.9619
12.5556	850.599	30.9814
12.5565	856.77	31.001
12.5586	846.164	31.0205
12.5602	850.621	31.04
12.5612	854.59	31.05957
12.5642	852.714	31.0791
12.5644	846.252	31.0986
12.5663	858.324	31.1182
12.5684	851.0835	31.1377
12.5708	850.325	31.1572
12.5707	853.436	31.1768
12.5733	855.296	31.1963
12.5755	845.717	31.21582
12.5753	857.321	31.2354
12.5784	857.492	31.2549
12.5799	847.7301	31.2744
12.5813	850.343	31.2939
12.5824	858.301	31.3135
12.5838	849.0509	31.333
12.58481	851.7052	31.3525
12.5881	859.118	31.37207
12.5896	851.213	31.3916
12.5916	849.164	31.4111
12.5925	862.16	31.4307
12.5941	853.751	31.4502
12.5959	848.321	31.4697
12.597	859.594	31.4893
12.6	853.818	31.5088
12.6	847.116	31.52832
12.6024	857.503	31.5479
12.6044	858.607	31.5674
12.6057	850.397	31.5869
12.6072	856.555	31.6064
12.6084	856.223	31.626
12.6102	850.778	31.6455
12.6117	855.505	31.665
12.614	863.528	31.68457
12.6149	853.103	31.7041
12.6173	852.795	31.7236
12.6181	858.14	31.7432
12.6205	857.899	31.7627
12.6221	851.701	31.7822
12.6241	860.5553	31.8018
12.6242	858.191	31.8213
12.6263	851.184	31.84082
12.6274	855.537	31.8604
12.63003	862.72	31.8799
12.6319	851.699	31.8994
12.6326	856.953	31.9189
12.6351	862.857	31.9385
12.6357	853.696	31.958
12.63781	851.536	31.9775
12.64063	862.638	31.99707
[...]
13.0013	861.995	36.333
13.0033	865.457	36.3525
13.0037	870.375	36.37207
13.00631	864.566	36.3916
13.0075	859.572	36.4111
13.0093	871.384	36.4307
13.01	865.576	36.4502
13.0134	861.336	36.4697
13.0138	870.904	36.4893
13.01561	867.616	36.5088
13.0182	856.014	36.52832
13.0186	869.869	36.5479
13.0213	868.5849	36.5674
13.0228	861.5697	36.5869
13.0242	866.202	36.6064
13.0251	869.762	36.626
13.0281	857.471	36.6455
13.0286	866.624	36.665
13.0302	871.532	36.68457
13.03146	862.867	36.7041
13.0332	861.602	36.7236
13.0348	871.1496	36.7432
13.0373	862.801	36.7627
13.039	863.518	36.7822
13.0408	869.187	36.8018
13.0415	867.737	36.8213
13.0433	860.738	36.84082
13.0451	866.5368	36.8604
13.0461	865.734	36.8799
13.04909	863.025	36.8994
13.0489	867.758	36.9189
13.0519	871.671	36.9385
13.0528	861.592	36.958
13.0553	864.21	36.9775
13.057	869.553	36.99707
13.0585	865.959	37.0166
13.0595	862.41	37.0361
13.0607	870.078	37.0557
13.0638	865.78	37.0752
13.0649	858.436	37.0947
13.0655	870.225	37.1143
13.0673	867.274	37.1338
13.0696	861.533	37.15332
13.0718	867.491	37.1729
13.0721	872.649	37.1924
13.0747	856.822	37.2119
13.0751	866.034	37.2314
13.0779	869.7157	37.251
13.0781	863.666	37.2705
13.0815	866.255	37.29
13.0817	870.884	37.30957
13.08494	858.341	37.3291
13.0864	864.359	37.3486
13.087	871.03	37.3682
13.08917	865.943	37.3877
13.0918	861.5495	37.4072
13.0932	869.559	37.4268
13.0945	866.044	37.4463
13.095	861.226	37.46582
13.0972	866.729	37.4854
13.09915	869.383	37.5049
13.1013	862.626	37.5244
13.1027	866.227	37.5439
13.1039	867.397	37.5635
13.1054	862.129	37.583
13.1062	865.546	37.6025
13.1093	870.06	37.62207
13.1104	863.59	37.6416
13.112	859.974	37.6611
13.1139	870.98	37.6807
13.1147	864.064	37.7002
13.1169	863.621	37.7197
13.1186	869.516	37.7393
13.1202	866.286	37.7588
13.1216	858.7948	37.77832
13.1233	869.05	37.7979
13.1248	869.469	37.8174
13.1262	861.866	37.8369
13.1272	866.909	37.8564
13.1294	870.509	37.876
13.1309	859.194	37.8955
13.1331	864.575	37.915
13.1347	871.029	37.93457
13.1365	865.1062	37.9541
13.138	862.576	37.9736
13.1397	873.479	37.9932
13.1419	861.656	38.0127
13.1427	861.78	38.0322
13.1448	870.582	38.0518
13.1468	869.362	38.0713
13.1475	861.523	38.09082
13.15022	865.309	38.1104
13.1499	865.683	38.1299
13.1522	862.877	38.1494
13.1541	867.164	38.1689
13.1544	869.607	38.1885
13.1568	861.73	38.208
13.1593	863.728	38.2275
13.1598	869.762	38.24707
13.16207	864.058	38.2666
13.163	862.113	38.2861
13.1654	870.863	38.3057
13.1672	865.262	38.3252
13.1687	859.404	38.3447
13.17015	868.257	38.3643
13.1714	866.454	38.3838
13.1743	861.2243	38.40332
13.1749	868.507	38.4229
13.1766	870.044	38.4424
13.1785	858.585	38.4619
13.1798	864.807	38.4814
13.1818	870.888	38.501
13.1835	862.5528	38.5205
13.185	863.448	38.54
13.1862	870.118	38.55957
13.1874	861.718	38.5791
13.1893	865.273	38.5986
13.1915	870.651	38.6182
13.193	866.927	38.6377
13.1951	861.34	38.6572
13.1962	870.474	38.6768
13.1974	863.547	38.6963
13.1992	860.664	38.71582
13.2007	867.148	38.7354
13.2038	871.422	38.7549
13.2043	861.602	38.7744
13.2064	866.825	38.7939
13.2078	865.383	38.8135
13.2098	863.663	38.833
13.2106	864.9491	38.8525
13.212	871.43	38.87207
13.2154	863.26	38.8916
13.2167	861.43	38.9111
13.2172	868.818	38.9307
13.2193	864.764	38.9502
13.2208	859.837	38.9697
13.2227	868.372	38.9893
13.2233	867.719	39.0088
13.2254	859.356	39.02832
13.2277	865.647	39.0479
13.2287	868.311	39.0674
13.2305	861.117	39.0869
13.2316	865.043	39.1064
13.2343	870.364	39.126
13.2349	858.562	39.1455
13.2369	863.495	39.165
13.2392	869.174	39.18457
13.2391	864.231	39.2041
13.2419	862.611	39.2236
13.2438	870.216	39.2432
13.2447	860.821	39.2627
13.2476	861.199	39.2822
13.2484	867.651	39.3018
13.2489	865.116	39.3213
13.2511	858.4353	39.34082
13.2535	869.766	39.3604
13.2549	866.299	39.3799
13.257	861.395	39.3994
13.2591	864.7525	39.4189
13.2595	871.949	39.4385
13.2621	862.394	39.458
13.2637	863.776	39.4775
13.265	867.293	39.49707
13.2654	863.106	39.5166
13.2686	863.746	39.5361
13.2696	871.262	39.5557
13.2691	864.3302	39.5752
13.2726	859.837	39.5947
13.2749	865.404	39.6143
13.276	867.5119	39.6338
13.2775	860.092	39.65332
13.2795	865.65	39.6729
13.2813	867.635	39.6924
13.2827	858.204	39.7119
13.2847	864.043	39.7314
13.2857	867.707	39.751
13.2881	858.933	39.7705
13.2886	861.509	39.79
13.2905	871.109	39.80957
13.2915	857.973	39.8291
13.2943	859.071	39.8486
13.2949	868.515	39.8682
13.2974	864.419	39.8877
13.299	859.684	39.9072
13.3002	867.835	39.9268
13.3021	860.787	39.9463
13.3043	859.506	39.96582
13.3057	864.868	39.9854
13.3066	866.33	40.0049
13.3079	859.736	40.0146

Data Header:			0.254_hd_uprint_typei_4545_r0			Time:	46.0989	s	4/15/2019 4:06:06 PM
Data Acquisition:	Timed
Station Name:	ft40.cfg
Test File Name:	monotonic_0.2540_typei_hd_4545_uprint.tst
Displacement	Force	Running Time
mm	N	s
13.3086	857.21	40.0244
13.3102	859.099	40.03418
13.3093	862.857	40.0439
13.3116	866.676	40.0537
13.312	863.194	40.0635
13.3117	861.189	40.0732
13.3147	859.008	40.083
13.31446	858.051	40.0928
13.3153	860.158	40.1025
13.31628	862.604	40.1123
13.31597	867.466	40.12207
13.3177	864.433	40.1318
13.3187	859.203	40.1416
13.3197	856.26	40.1514
13.3197	859.247	40.1611
13.3201	863.013	40.1709
13.3221	863.367	40.1807
13.323	864.825	40.19043
13.3226	860.656	40.2002
13.3234	858.245	40.21
13.3249	854.557	40.2197
13.3259	856.0459	40.2295
13.327	864.533	40.2393
13.3271	865.312	40.249
13.32777	863.203	40.2588
13.3288	856.551	40.2686
13.3297	851.0802	40.27832
13.3314	860.492	40.2881
13.3312	859.34	40.2979
13.3321	866.008	40.3076
13.3333	864.933	40.3174
13.3331	857.34	40.3271
13.3349	855.876	40.3369
13.3356	851.719	40.34668
13.3365	858.849	40.3564
13.3366	865.361	40.3662
13.3377	865.106	40.376
13.33815	858.392	40.3857
13.3397	850.703	40.3955
13.3399	853.9198	40.4053
13.3412	855.478	40.415
13.3427	861.234	40.4248
13.3427	864.253	40.43457
13.3435	860.303	40.4443
13.343	855.399	40.4541
13.3443	851.118	40.4639
13.3458	854.27	40.4736
13.3471	861.742	40.4834
13.3472	864.142	40.4932
13.3494	860.854	40.50293
13.35106	853.568	40.5127
13.3502	851.658	40.5225
13.3519	852.542	40.5322
13.3514	856.247	40.542
13.3523	861.404	40.5518
13.3539	862.114	40.5615
13.354	858.765	40.5713
13.3548	849.99	40.5811
13.356	853.778	40.59082
13.3571	853.14	40.6006
13.3571	860.023	40.6104
13.3584	862.68	40.6201
13.35831	854.118	40.6299
13.3602	853.661	40.6396
13.3602	850.733	40.6494
13.3613	853.5575	40.65918
13.3624	855.645	40.6689
13.363	857.465	40.6787
13.3637	862.237	40.6885
13.36499	851.825	40.6982
13.3649	850.194	40.708
13.3665	850.141	40.7178
13.3668	853.282	40.7275
13.36802	858.848	40.7373
13.368	856.061	40.74707
13.3689	855.8244	40.7568
13.3711	853.624	40.7666
13.3709	847.735	40.7764
13.37246	849.345	40.7861
13.3732	851.694	40.7959
13.3733	857.942	40.8057
13.3752	858.002	40.81543
13.3748	852.139	40.8252
13.3761	847.224	40.835
13.3768	847.323	40.8447
13.3781	853.278	40.8545
13.3797	853.641	40.8643
13.3783	855.13	40.874
13.3804	855.151	40.8838
13.3813	850.617	40.8936
13.3819	845.866	40.90332
13.3827	848.257	40.9131
13.3849	853.082	40.9229
13.3839	856.423	40.9326
13.3852	854.462	40.9424
13.386	846.867	40.9521
13.38618	845.078	40.9619
13.3864	848.293	40.97168
13.3879	848.955	40.9814
13.3889	856.0069	40.9912
13.3911	853.563	41.001
13.3906	851.912	41.0107
13.3918	846.117	41.0205
13.3931	839.6145	41.0303
13.39317	848.363	41.04
13.3937	851.27	41.0498
13.3946	853.275	41.05957
13.3959	851.406	41.0693
13.3953	843.1554	41.0791
13.3991	844.748	41.0889
13.39865	843.941	41.0986
13.3975	849.983	41.1084
13.3998	852.968	41.1182
13.4002	849.53	41.12793
13.4013	847.546	41.1377
13.4014	839.554	41.1475
13.40255	841.626	41.1572
13.4035	847.9566	41.167
13.4046	851.606	41.1768
13.4042	851.042	41.1865
13.4066	845.018	41.1963
13.4071	842.068	41.2061
13.4078	840.555	41.21582
13.40807	843.909	41.2256
13.4094	846.708	41.2354
13.4109	851.395	41.2451
13.4121	848.347	41.2549
13.4116	842.242	41.2646
13.4131	841.354	41.2744
13.4145	841.925	41.28418
13.4151	847.99	41.2939
13.4158	848.601	41.3037
13.4153	846.403	41.3135
13.4172	844.617	41.3232
13.4171	841.123	41.333
13.4192	840.35	41.3428
13.4196	842.485	41.3525
13.4195	846.187	41.3623
13.4203	850.738	41.37207
13.421	844.12	41.3818
13.4223	841.76	41.3916
13.42322	837.409	41.4014
13.4245	840.071	41.4111
13.425	846.108	41.4209
13.4266	843.776	41.4307
13.4264	845.852	41.44043
13.4278	844.992	41.4502
13.4288	838.965	41.46
13.4287	837.95	41.4697
13.4295	839.4942	41.4795
13.4305	845.564	41.4893
13.4311	846.946	41.499
13.43213	843.291	41.5088
13.4334	839.125	41.5186
13.4348	836.619	41.52832
13.435	841.909	41.5381
13.4362	843.051	41.5479
13.4358	846.526	41.5576
13.4368	845.5116	41.5674
13.4379	840.498	41.5771
13.439	835.246	41.5869
13.44022	834.672	41.59668
13.4397	840.085	41.6064
13.44134	846.163	41.6162
13.442	844.437	41.626
13.4432	838.714	41.6357
13.4436	834.088	41.6455
13.4456	835.822	41.6553
13.446	836.349	41.665
13.446	844.544	41.6748
13.4467	843.769	41.68457
13.4485	843.526	41.6943
13.4484	836.0332	41.7041
13.4482	829.633	41.7139
13.44991	835.052	41.7236
13.4518	840.869	41.7334
13.4523	844.1554	41.7432
13.4523	840.607	41.75293
13.4532	834.856	41.7627
13.4542	835.185	41.7725
13.4547	830.734	41.7822
13.4554	837.639	41.792
13.4564	840.966	41.8018
13.4578	840.978	41.8115
13.4588	839.5376	41.8213
13.4604	830.2168	41.8311
13.4591	830.716	41.84082
13.4616	835.09	41.8506
13.4617	837.997	41.8604
13.4623	841.547	41.8701
13.4627	835.657	41.8799
13.4646	834.762	41.8896
13.4657	831.115	41.8994
13.4658	831.3045	41.90918
13.4668	837.873	41.9189
13.46723	840.015	41.9287
13.4687	841.225	41.9385
13.4689	833.12	41.9482
13.4696	830.305	41.958
13.471	831.526	41.9678
13.4711	833.179	41.9775
13.472	837.976	41.9873
13.4727	837.798	41.99707
13.47376	836.198	42.0068
13.4743	833.429	42.0166
13.4757	828.4082	42.0264
13.476	830.318	42.0361
13.4767	834.188	42.0459
13.4767	838.371	42.0557
13.4786	837.521	42.06543
13.48	832.944	42.0752
13.4803	829.683	42.085
13.4814	830.646	42.0947
13.482	834.071	42.1045
13.4822	833.414	42.1143
13.4839	839.251	42.124
13.4832	835.031	42.1338
13.4849	830.973	42.1436
13.486	826.576	42.15332
13.4877	828.0058	42.1631
13.4878	834.85	42.1729
13.4888	835.995	42.1826
13.48848	836.143	42.1924
13.49	829.4295	42.2021
13.4907	824.633	42.2119
13.4928	829.4762	42.22168
13.492	829.6731	42.2314
13.493	835.146	42.2412
13.4941	837.319	42.251
13.4949	831.066	42.2607
13.4963	827.476	42.2705
13.4958	822.768	42.2803
13.4977	828.999	42.29
13.4984	836.1615	42.2998
13.4993	835.073	42.30957
13.4998	831.673	42.3193
13.5009	825.918	42.3291
13.5013	824.744	42.3389
13.5016	823.708	42.3486
13.5035	831.204	42.3584
13.5032	835.153	42.3682
13.5048	835.342	42.37793
13.5049	828.782	42.3877
13.5073	822.243	42.3975
13.5076	823.642	42.4072
13.5077	829.524	42.417
13.5088	835.468	42.4268
13.5088	832.073	42.4365
13.5109	827.776	42.4463
13.5107	825.814	42.4561
13.5117	821.401	42.46582
13.5123	826.028	42.4756
13.5127	830.787	42.4854
13.5139	832.465	42.4951
13.5158	831.794	42.5049
13.516	820.788	42.5146
13.5169	822.061	42.5244
13.5175	824.51	42.53418
13.519	828.593	42.5439
13.519	830.758	42.5537
13.51939	826.986	42.5635
13.52135	827.145	42.5732
13.5223	822.068	42.583
13.5225	820.7337	42.5928
13.5243	823.906	42.6025
13.5242	826.548	42.6123
13.52553	832.742	42.62207
13.5265	825.243	42.6318
13.526	822.088	42.6416
13.5274	820.2301	42.6514
13.5289	821.6297	42.6611
13.5296	826.644	42.6709
13.5306	824.802	42.6807
13.5308	826.3288	42.69043
13.5316	823.946	42.7002
13.5326	818.118	42.71
13.5327	816.651	42.7197
13.5339	821.671	42.7295
13.535	826.031	42.7393
13.5356	827.554	42.749
13.5369	823.716	42.7588
13.5375	818.796	42.7686
13.538	816.669	42.77832
13.53899	818.062	42.7881
13.5391	820.748	42.7979
13.5402	826.119	42.8076
13.5416	823.6153	42.8174
13.5428	820.519	42.8271
13.5437	813.877	42.8369
13.545	814.075	42.84668
13.5434	821.089	42.8564
13.545	822.807	42.8662
13.5465	825.018	42.876
13.54759	818.736	42.8857
13.5478	813.854	42.8955
13.5488	815.016	42.9053
13.5504	811.622	42.915
13.5501	820.849	42.9248
13.5517	823.7489	42.93457
13.55111	818.787	42.9443
13.5522	814.377	42.9541
13.5537	805.437	42.9639
13.5542	814.402	42.9736
13.5541	819.7915	42.9834
13.5563	820.257	42.9932
13.5565	817.66	43.00293
13.557	812.077	43.0127
13.5583	809.925	43.0225
13.5597	806.478	43.0322
13.5604	811.571	43.042
13.5612	818.223	43.0518
13.5614	818.334	43.0615
13.5623	813.645	43.0713
13.5623	805.614	43.0811
13.5634	803.547	43.09082
13.565	812.8642	43.1006
13.5659	814.533	43.1104
13.5656	815.7453	43.1201
13.5681	813.685	43.1299
13.5691	809.456	43.1396
13.5685	804.338	43.1494
13.5696	805.448	43.15918
13.5708	811.125	43.1689
13.5711	813.342	43.1787
13.573	814.385	43.1885
13.57407	804.7207	43.1982
13.57395	805.699	43.208
13.5755	803.54	43.2178
13.5769	807.516	43.2275
13.5764	810.926	43.2373
13.5778	809.561	43.24707
13.5774	809.335	43.2568
13.5796	805.351	43.2666
13.58	801.329	43.2764
13.581	802.295	43.2861
13.5801	806.382	43.2959
13.5824	813.09	43.3057
13.5821	807.567	43.31543
13.58358	804.871	43.3252
13.5841	801.674	43.335
13.5865	799.488	43.3447
13.5859	805.306	43.3545
13.5878	805.483	43.3643
13.5872	808.699	43.374
13.5888	806.64	43.3838
13.5899	798.714	43.3936
13.5904	796.215	43.40332
13.5915	797.378	43.4131
13.5911	804.516	43.4229
13.5924	804.419	43.4326
13.5937	803.023	43.4424
13.5943	799.128	43.4521
13.5948	792.765	43.4619
13.5949	793.1532	43.47168
13.5972	794.1452	43.4814
13.59788	796.974	43.4912
13.599	797.899	43.501
13.5991	788.0528	43.5107
13.6004	771.731	43.5205
13.6076	-224.014	43.5303
13.6086	-14.6071	43.54
13.6079	-68.2522	43.5498
13.6079	-45.054	43.55957
13.6077	-51.3037	43.5693
13.6079	-48.3778	43.5791
13.6082	-53.3492	43.5889
13.6077	-52.80006	43.5986
13.6095	-48.8045	43.6084
13.6088	-43.1662	43.6182
13.6105	-42.0291	43.62793
13.6109	-50.2054	43.6377
13.61264	-58.8984	43.6475
13.61275	-52.8433	43.6572
13.6136	-48.2931	43.667
13.6133	-44.254	43.6768
13.61498	-44.3286	43.6865
13.6154	-50.4672	43.6963
13.6161	-48.7667	43.7061
13.6169	-56.9812	43.71582
13.6183	-51.1894	43.7256
13.6187	-43.9268	43.7354
13.6197	-44.4398	43.7451
13.6204	-45.59988	43.7549
13.622	-53.68647	43.7646
13.6221	-54.9171	43.7744
13.6236	-50.5921	43.78418
13.6235	-47.8317	43.7939
13.6244	-44.6803	43.8037
13.6252	-46.1846	43.8135
13.626	-48.4944	43.8232
13.6261	-51.6776	43.833
13.6273	-53.9377	43.8428
13.6292	-50.8063	43.8525
13.629	-44.5798	43.8623
13.6289	-41.9578	43.87207
13.6311	-47.5933	43.8818
13.63195	-52.3407	43.8916
13.6318	-53.4353	43.9014
13.6328	-49.609	43.9111
13.6341	-46.0197	43.9209
13.6343	-46.1364	43.9307
13.6364	-44.7698	43.94043
13.6362	-49.66	43.9502
13.6368	-54.12368	43.96
13.6381	-53.87001	43.9697
13.6386	-49.2676	43.9795
13.63959	-42.7579	43.9893
13.6397	-45.4087	43.999
13.64085	-46.2953	44.0088
13.6412	-50.3465	44.0186
13.643	-53.0408	44.02832
13.6433	-50.9304	44.0381
13.6453	-50.4619	44.0479
13.6455	-42.7954	44.0576
13.6476	-44.3385	44.0674
13.6476	-49.4105	44.0771
13.6472	-52.7841	44.0869
13.6483	-55.6516	44.09668
13.649	-45.3412	44.1064
13.6499	-44.8626	44.1162
13.6511	-45.17197	44.126
13.6523	-45.6952	44.1357
13.6525	-52.0458	44.1455
13.6539	-50.5679	44.1553
13.65401	-51.59647	44.165
13.6543	-44.3938	44.1748
13.656	-39.5485	44.18457
13.657	-44.4786	44.1943
13.6576	-51.535	44.2041
13.6592	-55.26368	44.2139
13.6583	-51.117	44.2236
13.6597	-46.1317	44.2334
13.6607	-42.2969	44.2432
13.6615	-44.3343	44.25293
13.6614	-46.8351	44.2627
13.6625	-53.3982	44.2725
13.6638	-55.28812	44.2822
13.6649	-47.9427	44.292
13.66516	-43.3183	44.3018
13.6663	-41.9799	44.3115
13.6676	-45.83321	44.3213
13.6671	-53.9484	44.3311
13.6695	-52.6711	44.34082
13.6688	-51.1073	44.3506
13.671	-44.6787	44.3604
13.671	-43.7073	44.3701
13.67145	-45.8481	44.3799
13.6731	-47.6096	44.3896
13.67439	-55.1603	44.3994
13.6737	-51.2375	44.40918
13.6746	-47.1991	44.4189
13.6765	-44.90123	44.4287
13.6778	-43.3075	44.4385
13.6769	-52.8109	44.4482
13.6783	-53.2896	44.458
13.6791	-50.8865	44.4678
13.681	-49.1793	44.4775
13.6806	-43.77124	44.4873
13.6811	-44.7158	44.49707
13.6828	-44.9596	44.5068
13.6822	-51.3955	44.5166
13.6853	-54.3045	44.5264
13.6841	-50.4265	44.5361
13.6861	-47.6734	44.5459
13.687	-42.9855	44.5557
13.688	-46.3173	44.56543
13.6882	-49.9181	44.5752
13.6881	-50.5731	44.585
13.6902	-52.65678	44.5947
13.6902	-49.0441	44.6045
13.6909	-46.4064	44.6143
13.6923	-43.3325	44.624
13.6929	-45.698	44.6338
13.693	-51.387	44.6436
13.6944	-53.5417	44.65332
13.69507	-52.5097	44.6631
13.69667	-45.3234	44.6729
13.6967	-46.7761	44.6826
13.6983	-43.8001	44.6924
13.7004	-50.2193	44.7021
13.6994	-51.6818	44.7119
13.6997	-50.3495	44.72168
13.7012	-52.2177	44.7314
13.701	-42.0894	44.7412
13.7036	-41.444	44.751
13.7034	-47.3255	44.7607
13.7052	-52.5479	44.7705
13.70562	-55.6424	44.7803
13.7054	-48.6386	44.79
13.7071	-47.1299	44.7998
13.7078	-44.1465	44.80957
13.7084	-44.0066	44.8193
13.7086	-50.41164	44.8291
13.7106	-51.8885	44.8389
13.712	-53.785	44.8486
13.711	-46.7508	44.8584
13.7131	-41.60397	44.8682
13.7136	-44.1856	44.87793
13.7144	-48.2432	44.8877
13.7157	-54.1722	44.8975
13.7154	-52.8615	44.9072
13.7166	-48.2805	44.917
13.7179	-45.53511	44.9268
13.7186	-42.4374	44.9365
13.7199	-46.7402	44.9463
13.7202	-50.3488	44.9561
13.722	-54.9697	44.96582
13.7212	-52.0156	44.9756
13.7218	-43.48851	44.9854
13.7239	-41.4623	44.9951
13.7245	-46.3996	45.0049
13.7243	-51.6111	45.0146
13.72438	-53.3996	45.0244
13.726	-50.8134	45.03418
13.728	-47.0829	45.0439
13.7283	-44.8887	45.0537
13.7284	-45.5821	45.0635
13.73032	-46.2797	45.0732
13.7303	-55.00658	45.083
13.7313	-51.4082	45.0928
13.7324	-50.684	45.1025
13.7336	-41.9087	45.1123
13.73368	-43.1584	45.12207
13.7344	-48.5469	45.1318
13.73428	-50.1708	45.1416
13.7362	-52.6444	45.1514
13.73636	-50.3693	45.1611
13.7381	-46.35564	45.1709
13.7388	-46.2491	45.1807
13.7378	-42.7117	45.19043
13.7394	-49.1155	45.2002
13.7417	-53.5573	45.21
13.7423	-52.7181	45.2197
13.7418	-49.4386	45.2295
13.7441	-43.8029	45.2393
13.7448	-46.8991	45.249
13.7451	-45.7613	45.2588
13.7453	-48.4486	45.2686
13.74722	-51.6408	45.27832
13.748	-51.1657	45.2881
13.7483	-49.162	45.2979
13.748	-44.5402	45.3076
13.75075	-43.1465	45.3174
13.7512	-50.1143	45.3271
13.7521	-54.9791	45.3369
13.7531	-53.1288	45.34668
13.7535	-46.4997	45.3564
13.7539	-45.74123	45.3662
13.7553	-43.4356	45.376
13.7555	-46.8334	45.3857
13.7577	-50.9145	45.3955
13.7577	-53.6649	45.4053
13.7578	-53.614	45.415
13.7603	-45.8076	45.4248
13.7598	-42.6417	45.43457
13.7609	-45.0201	45.4443
13.7613	-51.9155	45.4541
13.7628	-55.2572	45.4639
13.7635	-50.4552	45.4736
13.7641	-48.124	45.4834
13.76543	-41.9124	45.4932
13.7654	-45.6834	45.50293
13.7661	-48.4633	45.5127
13.7674	-52.2994	45.5225
13.7669	-57.1238	45.5322
13.76921	-49.4019	45.542
13.7694	-43.4123	45.5518
13.7702	-43.4494	45.5615
13.7712	-46.5681	45.5713
13.77252	-54.0564	45.5811
13.7736	-54.061	45.59082
13.7736	-50.4128	45.6006
13.7732	-46.4841	45.6104
13.77535	-42.5666	45.6201
13.7762	-45.4896	45.6299
13.7769	-48.149	45.6396
13.7783	-54.589	45.6494
13.7778	-53.4239	45.65918
13.7787	-47.4267	45.6689
13.7797	-41.913	45.6787
13.78169	-43.4713	45.6885
13.78153	-49.9905	45.6982
13.782	-52.2349	45.708
13.7836	-52.5385	45.7178
13.7851	-49.5785	45.7275
13.7848	-45.5028	45.7373
13.786	-43.3742	45.74707
13.7869	-45.706	45.7568
13.7876	-53.2004	45.7666
13.7883	-53.7804	45.7764
13.7894	-51.3879	45.7861
13.7895	-46.2282	45.7959
13.7905	-44.5967	45.8057
13.792	-48.4575	45.81543
13.7922	-50.55	45.8252
13.7924	-52.431	45.835
13.794	-51.7591	45.8447
13.7947	-49.7705	45.8545
13.7953	-48.0817	45.8643
13.7963	-42.6662	45.874
13.7977	-49.3855	45.8838
13.7982	-51.6266	45.8936
13.7987	-53.0903	45.90332
13.7999	-52.73708	45.9131
13.8003	-44.6538	45.9229
13.8016	-47.2037	45.9326
13.8019	-45.633	45.9424
13.8023	-47.7153	45.9521
13.8049	-54.1708	45.9619
13.8041	-51.58	45.97168
13.8054	-51.9138	45.9814
13.8055	-43.4307	45.9912
13.8072	-42.3162	46.001
13.807	-48.2246	46.0107
13.8075	-51.9762	46.0205
13.8101	-56.3798	46.0303
13.8118	-48.5492	46.04
13.8113	-47.006	46.0498
13.812	-43.8052	46.05957
13.8121	-44.4453	46.0693
13.8138	-49.8773	46.0791
13.8145	-53.4142	46.0889