File: data/processed_data_files/tensile/0.254_solid_uprint_typei_4545_r(1).dat
MTS793|BTW|ENU|1|2|.|/|:|1|0|0|A

Data Header:			0.254_solid_uprint_typei_4545_r0			Time:	20.0222	s	4/14/2019 4:17:34 AM
Data Acquisition:	Timed
Station Name:	ft40.cfg
Test File Name:	monotonic_0.2540_typei_solid_4545_uprint.tst
Displacement	Force	Running Time
mm	N	s
9.95245	-123.844	0.0263672
9.953825	-102.364	0.0458984
9.9538	-128.71	0.0654297
9.95355	-132.494	0.0849609
9.95594	-105.14	0.104492
9.95777	-121.326	0.124023
9.959	-127.92	0.143555
9.96046	-105.348	0.163086
9.96108	-110.955	0.182617
9.96441	-131.052	0.202148
9.965064	-103.724	0.22168
9.96766	-105.119	0.241211
9.968708	-126.852	0.260742
9.97006	-109.348	0.280273
9.9722	-97.5127	0.299805
9.97327	-122.761	0.319336
9.97526	-111.968	0.338867
9.97728	-95.817	0.358398
9.97811	-114.226	0.37793
9.97996	-114.37	0.397461
9.980793	-90.6293	0.416992
9.98298	-110.845	0.436523
9.98536	-116.281	0.456055
9.98564	-92.7753	0.475586
9.9883	-98.0966	0.495117
9.99061	-115.548	0.514648
9.9904	-95.6622	0.53418
9.99307	-94.0288	0.553711
9.99441	-109.916	0.573242
9.99531	-95.8238	0.592773
9.99809	-85.8568	0.612305
9.99981	-105.282	0.631836
10.0012	-99.4834	0.651367
10.0032	-81.02652	0.670898
10.00486	-98.7548	0.69043
10.0061	-101.267	0.709961
10.0073	-78.636	0.729492
10.0095	-88.3917	0.749023
10.0116	-103.3649	0.768555
10.0131	-78.0191	0.788086
10.0151	-83.2767	0.807617
10.016	-97.2838	0.827148
10.0187	-78.903	0.84668
10.01913	-74.2923	0.866211
10.0217	-99.5468	0.885742
10.023	-79.0534	0.905273
10.0247	-68.0009	0.924805
10.0255	-90.05143	0.944336
10.0276	-84.6274	0.963867
10.0298	-63.5691	0.983398
10.0303	-85.1727	1.00293
10.0325	-84.1714	1.02246
10.0343	-63.9613	1.04199
10.0362	-75.9747	1.06152
10.0375	-84.1262	1.08105
10.039	-61.0463	1.10059
10.0406	-70.0246	1.12012
10.0426	-83.1201	1.13965
10.0443	-62.6441	1.15918
10.0461	-59.1718	1.17871
10.0478	-79.6072	1.19824
10.04937	-68.6914	1.21777
10.0495	-55.1747	1.2373
10.05321	-73.23555	1.25684
10.0545	-66.20417	1.27637
10.0555	-51.8452	1.2959
10.0571	-67.6652	1.31543
10.0589	-71.7102	1.33496
10.06	-47.585	1.35449
10.0617	-59.62154	1.37402
10.0645	-69.1642	1.39355
10.0657	-46.9204	1.41309
10.0678	-49.9009	1.43262
10.0693	-71.3137	1.45215
10.0706	-48.6532	1.47168
10.0721	-44.6715	1.49121
10.0742	-63.373	1.51074
10.0751	-48.3145	1.53027
10.0773	-34.7799	1.5498
10.0796	-64.2635	1.56934
10.0808	-51.283	1.58887
10.0819	-33.9363	1.6084
10.0835	-50.9814	1.62793
10.0852	-55.05563	1.64746
10.0865	-31.619	1.66699
10.0884	-46.6528	1.68652
10.0906	-52.1442	1.70605
10.0921	-32.4558	1.72559
10.0947	-37.309	1.74512
10.0949	-52.35854	1.76465
10.0965	-31.784	1.78418
10.0979	-30.3705	1.80371
10.10019	-48.5592	1.82324
10.10207	-35.3385	1.84277
10.1033	-22.6261	1.8623
10.105	-40.3004	1.88184
10.108	-39.2661	1.90137
10.1088	-19.9507	1.9209
10.10976	-35.5108	1.94043
10.11142	-38.0383	1.95996
10.1127	-15.9441	1.97949
10.1155	-28.0435	1.99902
10.1167	-41.5597	2.01855
10.1177	-13.60517	2.03809
10.1201	-18.5905	2.05762
10.1212	-36.4759	2.07715
10.1228	-16.49465	2.09668
10.1253	-9.95268	2.11621
10.1257	-36.612	2.13574
10.1269	-18.1064	2.15527
10.1297	-7.15825	2.1748
10.1318	-26.1607	2.19434
10.1337	-19.7151	2.21387
10.1353	-0.0547276	2.2334
10.1361	-24.4576	2.25293
10.1385	-22.0375	2.27246
10.1393	1.08717	2.29199
10.14232	-8.786109	2.31152
10.144	-21.8276	2.33105
10.1441	0.354367	2.35059
10.1455	-6.22144	2.37012
10.14723	-19.3767	2.38965
10.1498	-1.04099	2.40918
10.1513	3.98196	2.42871
10.1536	-16.6942	2.44824
10.1548	-3.659544	2.46777
10.1558	8.865303	2.4873
10.158	-10.2724	2.50684
10.1596	-6.45193	2.52637
10.1604	14.1923	2.5459
10.1627	-2.300905	2.56543
10.1637	-7.70002	2.58496
10.1649	14.4748	2.60449
10.168	3.68538	2.62402
10.1687	-5.42591	2.64355
10.1709	16.4257	2.66309
10.1722	13.563	2.68262
10.1747	-10.22578	2.70215
10.1757	15.5156	2.72168
10.1774	20.7465	2.74121
10.1786	0.18668	2.76074
10.1808	12.9576	2.78027
10.1831	28.7795	2.7998
10.183	4.33206	2.81934
10.18638	11.448	2.83887
10.1867	30.0032	2.8584
10.1884	13.5336	2.87793
10.1901	9.54496	2.89746
10.1926	34.89463	2.91699
10.1945	19.1214	2.93652
10.1957	11.5778	2.95605
10.19691	33.2612	2.97559
10.1989	31.0448	2.99512
10.1998	12.4224	3.01465
10.2019	31.39653	3.03418
10.2029	34.7037	3.05371
10.205	18.1985	3.07324
10.2077	30.2932	3.09277
10.2089	41.586	3.1123
10.2104	21.3572	3.13184
10.2113	25.0489	3.15137
10.21242	46.9602	3.1709
10.2153	29.1613	3.19043
10.2168	26.01655	3.20996
10.2181	49.47	3.22949
10.2195	39.9604	3.24902
10.2203	24.2032	3.26855
10.2223	48.6739	3.28809
10.22463	45.432	3.30762
10.2262	27.82378	3.32715
10.228	48.4064	3.34668
10.2294	54.166	3.36621
10.2314	28.2477	3.38574
10.2336	46.4361	3.40527
10.2346	59.6922	3.4248
10.23542	38.6457	3.44434
10.2383	42.6521	3.46387
10.2392	65.1181	3.4834
10.2401	43.6118	3.50293
10.2424	44.3773	3.52246
10.244	64.6046	3.54199
10.2454	53.5593	3.56152
10.2471	43.2756	3.58105
10.24896	66.19976	3.60059
10.2511	61.542	3.62012
10.2524	45.7642	3.63965
10.25417	63.2723	3.65918
10.25622	71.3347	3.67871
10.25684	50.1859	3.69824
10.25961	60.8386	3.71777
10.2608	72.2664	3.7373
10.2623	56.1724	3.75684
10.264	60.2883	3.77637
10.2647	79.57254	3.7959
10.2673	63.5152	3.81543
10.2686	56.7793	3.83496
10.2713	81.0484	3.85449
10.2728	73.3294	3.87402
10.2729	59.397	3.89355
10.2744	82.51	3.91309
10.2768	81.701	3.93262
10.2777	60.2168	3.95215
10.2806	80.604	3.97168
10.28136	85.8737	3.99121
10.2833	66.738	4.01074
10.2857	79.3329	4.03027
10.2875	94.862	4.0498
10.2892	67.8808	4.06934
10.28919	77.4373	4.08887
10.2923	97.2508	4.1084
10.2934	81.7444	4.12793
10.2946	74.1627	4.14746
10.29688	97.8738	4.16699
10.2986	84.6578	4.18652
10.3003	78.2546	4.20605
10.3013	98.0001	4.22559
10.3036	96.3367	4.24512
10.3045	78.5369	4.26465
10.3066	96.3274	4.28418
10.3066	101.6953	4.30371
10.3095	83.116	4.32324
10.3109	93.3864	4.34277
10.3127	109.949	4.3623
10.3149	89.6041	4.38184
10.3161	90.7397	4.40137
10.3179	108.949	4.4209
10.3197	96.5412	4.44043
10.32058	92.1055	4.45996
10.3229	114.963	4.47949
10.3233	104.338	4.49902
10.3268	90.16848	4.51855
10.3284	114.051	4.53809
10.3287	114.153	4.55762
10.3309	95.2378	4.57715
10.3323	110.523	4.59668
10.3342	122.971	4.61621
10.3353	96.6893	4.63574
10.3368	110.178	4.65527
10.3388	125.697	4.6748
10.3399	106.509	4.69434
10.34249	109.725	4.71387
10.3438	132.024	4.7334
10.3453	109.893	4.75293
10.3477	108.52	4.77246
10.34874	130.112	4.79199
10.3504	123.239	4.81152
10.3521	109.495	4.83105
10.3544	131.384	4.85059
10.3556	127.473	4.87012
10.3577	114.319	4.88965
10.3587	128.73	4.90918
10.3599	136.836	4.92871
10.3613	115.0089	4.94824
10.36322	126.16	4.96777
10.3654	141.612	4.9873
10.3658	122.834	5.00684
10.3679	124.463	5.02637
10.3705	145.573	5.0459
10.3728	131.753	5.06543
10.3738	122.691	5.08496
10.3755	145.121	5.10449
10.3765	137.292	5.12402
10.37893	125.401	5.14355
10.3799	146.573	5.16309
10.3818	146.808	5.18262
10.3833	124.905	5.20215
10.38352	144.333	5.22168
10.3855	153.563	5.24121
10.389	132.648	5.26074
10.38938	141.572	5.28027
10.391	160.87	5.2998
10.393	136.1342	5.31934
10.3941	142.307	5.33887
10.3961	160.458	5.3584
10.3969	147.616	5.37793
10.3992	141.109	5.39746
10.4002	165.6201	5.41699
10.4028	152.489	5.43652
10.4042	141.667	5.45605
10.4058	162.651	5.47559
10.4077	164.125	5.49512
10.4097	143.6683	5.51465
10.4105	161.929	5.53418
10.4124	165.908	5.55371
10.4135	150.671	5.57324
10.415	158.678	5.59277
10.417	174.015	5.6123
10.4189	156.747	5.63184
10.4201	156.051	5.65137
10.422	176.617	5.6709
10.42383	163.1564	5.69043
10.42602	156.361	5.70996
10.4283	179.457	5.72949
10.429	172.711	5.74902
10.43	156.615	5.76855
10.4322	177.378	5.78809
10.4334	179.708	5.80762
10.4352	160.787	5.82715
10.4365	177.893	5.84668
10.4386	186.468	5.86621
10.4391	161.96	5.88574
10.4416	174.865	5.90527
10.4441	191.911	5.9248
10.4451	173.344	5.94434
10.4471	171.362	5.96387
10.4486	194.821	5.9834
10.4491	176.764	6.00293
10.4506	174.028	6.02246
10.4534	193.905	6.04199
10.4536	188.245	6.06152
10.4557	173.624	6.08105
10.45783	197.401	6.10059
10.46	193.414	6.12012
10.461	177.102	6.13965
10.4625	192.097	6.15918
10.4643	202.79	6.17871
10.4668	184.852	6.19824
10.468	191.184	6.21777
10.4692	203.696	6.2373
10.4706	189.333	6.25684
10.4725	189.807	6.27637
10.4735	210.147	6.2959
10.4757	195.269	6.31543
10.4777	187.586	6.33496
10.4805	210.589	6.35449
10.4799	205.671	6.37402
10.482	190.601	6.39355
10.4845	210.637	6.41309
10.4856	214.457	6.43262
10.487	191.586	6.45215
10.4888	208.49	6.47168
10.4903	218.601	6.49121
10.4923	199.435	6.51074
10.4932	208.268	6.53027
10.4956	225.553	6.5498
10.4964	202.7	6.56934
10.4987	207.312	6.58887
10.50039	227.864	6.6084
10.5018	214.883	6.62793
10.50273	204.856	6.64746
10.5053	228.77	6.66699
10.508	217.975	6.68652
10.5078	206.914	6.70605
10.51	226.389	6.72559
10.5121	228.447	6.74512
10.5136	210.701	6.76465
10.51418	226.306	6.78418
10.5159	232.68	6.80371
10.5185	215.354	6.82324
10.5198	221.776	6.84277
10.5221	241.817	6.8623
10.5226	222.855	6.88184
10.5242	222.124	6.90137
10.5267	240.194	6.9209
10.5274	230.141	6.94043
10.5299	222.333	6.95996
10.5324	245.004	6.97949
10.5326	237.582	6.99902
10.5352	220.363	7.01855
10.5361	243.703	7.03809
10.5374	246.516	7.05762
10.5387	226.138	7.07715
10.5417	240.729	7.09668
10.5423	254.123	7.11621
10.5444	230.0515	7.13574
10.5455	240.131	7.15527
10.5472	255.42	7.1748
10.5492	239.008	7.19434
10.5502	238.84	7.21387
10.5529	262.874	7.2334
10.5537	242.123	7.25293
10.557	237.982	7.27246
10.5567	260.0426	7.29199
10.5585	255.141	7.31152
10.5603	239.269	7.33105
10.5624	259.39	7.35059
10.5636	257.65	7.37012
10.5658	244.564	7.38965
10.5671	257.829	7.40918
10.5684	266.987	7.42871
10.5701	246.41	7.44824
10.572	257.692	7.46777
10.5723	271.834	7.4873
10.5758	255.364	7.50684
10.5764	253.727	7.52637
10.5785	274.767	7.5459
10.5803	263.887	7.56543
10.5817	254.175	7.58496
10.5828	273.266	7.60449
10.5849	270.179	7.62402
10.5865	257.233	7.64355
10.5902	277.288	7.66309
10.59	279.793	7.68262
10.5914	257.515	7.70215
10.5928	272.764	7.72168
10.5944	285.71	7.74121
10.5961	263.336	7.76074
10.5981	271.8515	7.78027
10.5996	289.654	7.7998
10.60121	268.553	7.81934
10.603	273.018	7.83887
10.6044	289.378	7.8584
10.6061	277.495	7.87793
10.6072	270.242	7.89746
10.6094	294.247	7.91699
10.6096	282.411	7.93652
10.6133	271.301	7.95605
10.614	289.338	7.97559
10.6164	294.026	7.99512
10.6161	275.904	8.01465
10.6186	289.675	8.03418
10.6199	294.941	8.05371
10.62243	281.238	8.07324
10.6235	287.841	8.09277
10.62434	304.26	8.1123
10.6278	285.701	8.13184
10.629	286.1188	8.15137
10.6302	303.158	8.1709
10.6335	294.765	8.19043
10.6329	284.234	8.20996
10.6352	308.4418	8.22949
10.6363	302.234	8.24902
10.6383	285.297	8.26855
10.6405	302.69	8.28809
10.6426	308.769	8.30762
10.6441	291.272	8.32715
10.6459	306.615	8.34668
10.6476	316.449	8.36621
10.6488	293.191	8.38574
10.6504	302.136	8.40527
10.6515	319.771	8.4248
10.6536	304.783	8.44434
10.6544	300.946	8.46387
10.6567	323.951	8.4834
10.6575	307.717	8.50293
10.6607	304.315	8.52246
10.6621	322.029	8.54199
10.6627	318.584	8.56152
10.6651	304.858	8.58105
10.6661	324.812	8.60059
10.6669	322.797	8.62012
10.6702	308.487	8.63965
10.6718	319.483	8.65918
10.6734	332.594	8.67871
10.6743	313.615	8.69824
10.6769	318.63	8.71777
10.6783	331.037	8.7373
10.6801	321.415	8.75684
10.6809	318.828	8.77637
10.6818	338.381	8.7959
10.685	328.15	8.81543
10.686	318.725	8.83496
10.6879	334.982	8.85449
10.6885	337.572	8.87402
10.691	319.8782	8.89355
10.69243	337.163	8.91309
10.6936	342.806	8.93262
10.6955	324.116	8.95215
10.6973	333.637	8.97168
10.6989	346.783	8.99121
10.7002	330.73	9.01074
10.70276	334.059	9.03027
10.7039	352.172	9.0498
10.7045	333.265	9.06934
10.707	333.483	9.08887
10.7089	353.047	9.1084
10.7097	344.897	9.12793
10.7122	334.259	9.14746
10.7139	353.718	9.16699
10.715	347.696	9.18652
10.7169	339.455	9.20605
10.718	350.7153	9.22559
10.7206	358.304	9.24512
10.722	340.048	9.26465
10.7239	350.883	9.28418
10.7248	360.852	9.30371
10.7265	348.15	9.32324
10.7288	348.051	9.34277
10.7302	366.646	9.3623
10.73085	354.094	9.38184
10.7333	348.6499	9.40137
10.7345	363.259	9.4209
10.7367	361.706	9.44043
10.7382	349.238	9.45996
10.7403	368.523	9.47949
10.741	367.203	9.49902
10.7429	351.453	9.51855
10.745	365.1088	9.53809
10.7465	375.596	9.55762
10.7486	357.17	9.57715
10.74985	365.184	9.59668
10.7511	378.966	9.61621
10.7532	362.027	9.63574
10.7549	364.13	9.65527
10.7569	380.879	9.6748
10.7571	370.291	9.69434
10.7585	364.056	9.71387
10.7605	386.88	9.7334
10.7621	373.439	9.75293
10.7648	365.464	9.77246
10.7658	383.0563	9.79199
10.7671	385.293	9.81152
10.769	367.416	9.83105
10.7709	382.674	9.85059
10.7723	384.948	9.87012
10.77422	375.357	9.88965
10.775	380.517	9.90918
10.7778	395.2095	9.92871
10.7795	377.638	9.94824
10.7806	381.253	9.96777
10.7815	394.65	9.9873
10.7841	386.569	10.0068
10.7851	377.917	10.0264
10.7873	399.468	10.0459
10.7881	392.36	10.06543
10.79011	379.181	10.085
10.7919	395.246	10.1045
10.7935	399.6261	10.124
10.7953	384.125	10.1436
10.7966	398.018	10.1631
10.7983	406.4668	10.1826
10.8004	385.1604	10.2021
10.80208	394.033	10.22168
10.8033	410.439	10.2412
10.8062	394.396	10.2607
10.8067	394.166	10.2803
10.8075	413.726	10.2998
10.8106	398.9314	10.3193
10.8103	395.404	10.3389
10.8128	413.577	10.3584
10.8159	408.632	10.37793
10.81594	396.828	10.3975
10.8177	417.013	10.417
10.8191	413.7012	10.4365
10.8197	399.4075	10.4561
10.8231	412.884	10.4756
10.8246	423.05	10.4951
10.8258	404.347	10.5146
10.8272	411.95	10.53418
10.8292	421.245	10.5537
10.8307	412.133	10.5732
10.8323	409.357	10.5928
10.833	429.046	10.6123
10.8357	416.049	10.6318
10.8377	411.773	10.6514
10.8388	427.093	10.6709
10.8409	425.0809	10.69043
10.8429	410.075	10.71
10.8437	428.637	10.7295
10.8458	431.562	10.749
10.8472	415.294	10.7686
10.8489	425.1926	10.7881
10.8502	436.522	10.8076
10.8531	420.443	10.8271
10.8543	426.872	10.84668
10.8558	441.922	10.8662
10.857	423.91	10.8857
10.8586	424.694	10.9053
10.8601	442.838	10.9248
10.862	431.782	10.9443
10.863	425.024	10.9639
10.8654	445.752	10.9834
10.86732	435.7446	11.00293
10.8684	427.4346	11.0225
10.8697	444.083	11.042
10.8709	446.587	11.0615
10.8736	430.934	11.0811
10.8754	446.354	11.1006
10.8763	449.033	11.1201
10.879	435.2218	11.1396
10.8796	441.515	11.15918
10.8805	457.008	11.1787
10.883	441.634	11.1982
10.8843	441.38	11.2178
10.886	454.08	11.2373
10.8878	448.308	11.2568
10.8899	441.969	11.2764
10.8917	460.859	11.2959
10.8932	454.147	11.31543
10.8936	441.804	11.335
10.8953	456.7113	11.3545
10.8975	462.377	11.374
10.89968	444.77	11.3936
10.9004	458.407	11.4131
10.902	467.437	11.4326
10.905	448.598	11.4521
10.9055	455.923	11.47168
10.9078	471.831	11.4912
10.9098	455.534	11.5107
10.9109	455.554	11.5303
10.9118	476.045	11.5498
10.914	459.977	11.5693
10.9153	454.745	11.5889
10.9177	473.968	11.6084
10.9182	472.094	11.62793
10.9206	457.819	11.6475
10.9228	474.4523	11.667
10.9232	473.447	11.6865
10.9251	461.83	11.7061
10.9273	472.4819	11.7256
10.92871	483.8479	11.7451
10.93	466.144	11.7646
10.9323	474.308	11.78418
10.9335	483.894	11.8037
10.9357	472.436	11.8232
10.9374	470.3212	11.8428
10.9381	489.12	11.8623
10.9402	478.321	11.8818
10.9426	472.041	11.9014
10.9434	486.313	11.9209
10.9456	486.414	11.94043
10.9471	471.588	11.96
10.9483	492.145	11.9795
10.9499	490.997	11.999
10.9504	473.108	12.0186
10.9527	485.023	12.0381
10.95445	497.754	12.0576
10.9556	480.638	12.0771
10.9571	486.369	12.09668
10.9601	501.778	12.1162
10.9627	486.114	12.1357
10.9631	484.727	12.1553
10.9645	503.648	12.1748
10.9671	493.079	12.1943
10.968	484.832	12.2139
10.969	507.678	12.2334
10.97106	497.66	12.25293
10.9736	486.437	12.2725
10.9745	503.717	12.292
10.9761	509.381	12.3115
10.9785	490.93	12.3311
10.9793	503.752	12.3506
10.9797	508.862	12.3701
10.9812	495.65	12.3896
10.9844	501.3187	12.40918
10.9848	516.044	12.4287
10.9875	499.944	12.4482
10.9893	501.997	12.4678
10.99025	515.147	12.4873
10.9923	508.522	12.5068
10.9939	499.4639	12.5264
10.9953	519.532	12.5459
10.997	516.323	12.56543
10.9997	503.251	12.585
10.9999	515.0929	12.6045
11.0015	522.0954	12.624
11.0032	505.208	12.6436
11.005	517.843	12.6631
11.0069	526.703	12.6826
11.0084	508.057	12.7021
11.0105	512.511	12.72168
11.0113	532.251	12.7412
11.0136	516.522	12.7607
11.0144	514.881	12.7803
11.0168	534.397	12.7998
11.0178	522.792	12.8193
11.0192	514.613	12.8389
11.0206	533.044	12.8584
11.0227	529.02	12.87793
11.0261	517.212	12.8975
11.0262	535.963	12.917
11.0282	533.474	12.9365
11.0282	519.605	12.9561
11.0319	530.913	12.9756
11.0326	541.644	12.9951
11.0329	525.4812	13.0146
11.0362	530.562	13.03418
11.0371	541.687	13.0537
11.0395	532.523	13.0732
11.0401	528.668	13.0928
11.0417	548.674	13.1123
11.0448	536.582	13.1318
11.0454	530.666	13.1514
11.0469	546.409	13.1709
11.04936	545.434	13.19043
11.0506	530.087	13.21
11.0523	547.52	13.2295
11.0537	551.224	13.249
11.0552	534.878	13.2686
11.05712	542.486	13.2881
11.0589	555.446	13.3076
11.06098	537.853	13.3271
11.0615	544.882	13.34668
11.0634	560.804	13.3662
11.06573	543.037	13.3857
11.0673	541.52	13.4053
11.0689	563.137	13.4248
11.07	552.738	13.4443
11.0726	541.728	13.4639
11.0725	562.668	13.4834
11.0753	555.737	13.50293
11.0768	544.908	13.5225
11.07875	561.9574	13.542
11.07948	563.75	13.5615
11.0814	547.459	13.5811
11.0829	562.5705	13.6006
11.0837	567.636	13.6201
11.0868	553.587	13.6396
11.0879	556.838	13.65918
11.0901	574.332	13.6787
11.091	559.802	13.6982
11.0926	556.841	13.7178
11.0953	571.989	13.7373
11.0971	567.505	13.7568
11.09716	556.75	13.7764
11.0993	578.465	13.7959
11.101	572.221	13.81543
11.1031	558.445	13.835
11.104	574.15	13.8545
11.1041	579.866	13.874
11.10767	561.942	13.8936
11.109	574.706	13.9131
11.1112	583.146	13.9326
11.112	566.833	13.9521
11.1127	571.023	13.97168
11.117	586.505	13.9912
11.117	571.275	14.0107
11.1193	571.466	14.0303
11.1204	591.713	14.0498
11.1223	576.773	14.0693
11.1236	567.861	14.0889
11.1258	591.116	14.1084
11.1262	586.532	14.12793
11.1286	571.985	14.1475
11.1301	591.566	14.167
11.1324	590.608	14.1865
11.1328	576.2641	14.2061
11.13459	588.493	14.2256
11.1367	597.338	14.2451
11.1379	579.51	14.2646
11.1408	589.791	14.28418
11.1414	598.777	14.3037
11.1424	586.487	14.3232
11.14483	584.981	14.3428
11.1463	602.968	14.3623
11.149	592.213	14.3818
11.1502	587.837	14.4014
11.15168	599.8692	14.4209
11.1535	600.773	14.44043
11.1554	585.7804	14.46
11.155	604.918	14.4795
11.1586	605.541	14.499
11.1596	589.246	14.5186
11.161	599.8255	14.5381
11.163	613.714	14.5576
11.1656	594.47	14.5771
11.1663	600.759	14.59668
11.16859	615.575	14.6162
11.1691	598.931	14.6357
11.17	597.161	14.6553
11.17207	618.655	14.6748
11.175	605.299	14.6943
11.1758	599.323	14.7139
11.1776	620.127	14.7334
11.1783	609.659	14.75293
11.1809	599.101	14.7725
11.1822	617.5448	14.792
11.1841	621.362	14.8115
11.1854	602.782	14.8311
11.1868	618.2959	14.8506
11.1886	620.879	14.8701
11.19038	608.259	14.8896
11.19334	615.471	14.90918
11.1939	630.453	14.9287
11.1948	611.007	14.9482
11.1974	616.893	14.9678
11.1993	630.536	14.9873
11.1999	620.217	15.0068
11.201	610.88	15.0264
11.2042	635.676	15.0459
11.2051	627.082	15.06543
11.2079	615.184	15.085
11.2085	627.953	15.1045
11.20872	633.766	15.124
11.21116	616.283	15.1436
11.214	633.051	15.1631
11.2143	639.978	15.1826
11.2164	618.49	15.2021
11.21789	626.975	15.22168
11.2208	644.362	15.2412
11.2219	625.707	15.2607
11.2228	627.0025	15.2803
11.2252	646.144	15.2998
11.2267	631.591	15.3193
11.2286	625.431	15.3389
11.2297	647.151	15.3584
11.23138	638.478	15.37793
11.23235	627.494	15.3975
11.2345	648.655	15.417
11.236	643.8009	15.4365
11.2374	628.577	15.4561
11.24022	644.558	15.4756
11.2419	653.754	15.4951
11.24293	634.163	15.5146
11.2449	644.838	15.53418
11.2461	652.6297	15.5537
11.2479	640.82	15.5732
11.2486	641.177	15.5928
11.2512	661.126	15.6123
11.2522	643.667	15.6318
11.2534	642.115	15.6514
11.2549	658.712	15.6709
11.2579	654.002	15.69043
11.2602	639.1864	15.71
11.25966	660.87	15.7295
11.2624	660.802	15.749
11.2643	644.447	15.7686
11.2641	655.653	15.7881
11.2678	666.376	15.8076
11.26834	646.094	15.8271
11.271	658.453	15.84668
11.2725	671.826	15.8662
11.2733	651.706	15.8857
11.2758	652.35	15.9053
11.2764	674.442	15.9248
11.2786	659.31	15.9443
11.2796	654.61	15.9639
11.2818	675.012	15.9834
11.2835	663.046	16.00293
11.28485	653.355	16.0225
11.2867	673.776	16.042
11.2886	671.774	16.0615
11.2896	655.735	16.0811
11.2915	673.4552	16.1006
11.2924	676.579	16.1201
11.295	659.1	16.1396
11.2961	670.345	16.15918
11.29773	684.6944	16.1787
11.3	665.692	16.1982
11.3002	671.5246	16.2178
11.3027	681.8924	16.2373
11.30341	671.753	16.2568
11.3062	667.632	16.2764
11.3078	688.866	16.2959
11.3089	676.3598	16.31543
11.3114	668.26	16.335
11.3121	685.162	16.3545
11.3146	686.975	16.374
11.3155	668.249	16.3936
11.3166	686.849	16.4131
11.3198	692.449	16.4326
11.3206	672.264	16.4521
11.3217	682.463	16.47168
11.3235	696.556	16.4912
11.3246	676.755	16.5107
11.3266	683.106	16.5303
11.32839	700.97	16.5498
11.3307	682.059	16.5693
11.3325	677.808	16.5889
11.3334	702.804	16.6084
11.3358	692.653	16.62793
11.3384	679.8725	16.6475
11.3381	701.343	16.667
11.3404	695.4231	16.6865
11.3413	681.222	16.7061
11.3436	701.337	16.7256
11.3452	702.115	16.7451
11.34774	683.4397	16.7646
11.3488	700.193	16.78418
11.3494	706.918	16.8037
11.352	690.845	16.8232
11.3533	693.573	16.8428
11.3552	713.269	16.8623
11.3564	697.76	16.8818
11.3572	695.0069	16.9014
11.3606	711.374	16.9209
11.3618	704.541	16.94043
11.3632	692.929	16.96
11.3641	715.398	16.9795
11.3666	709.462	16.999
11.368	695.112	17.0186
11.3691	708.208	17.0381
11.371	717.335	17.0576
11.3722	697.166	17.0771
11.3748	709.6568	17.09668
11.3758	721.762	17.1162
11.3783	701.57	17.1357
11.3785	705.983	17.1553
11.3803	725.417	17.1748
11.3831	708.347	17.1943
11.3845	706.759	17.2139
11.3862	729.328	17.2334
11.3865	714.137	17.25293
11.3888	703.938	17.2725
11.3918	727.913	17.292
11.3924	724.7926	17.3115
11.3939	707.5174	17.3311
11.3957	727.168	17.3506
11.3965	725.716	17.3701
11.399	711.453	17.3896
11.3998	723.347	17.40918
11.4016	736.589	17.4287
11.4038	715.003	17.4482
11.40543	723.473	17.4678
11.4075	737.175	17.4873
11.4089	721.912	17.5068
11.4103	717.835	17.5264
11.4113	740.823	17.5459
11.4136	728.324	17.56543
11.4146	720.551	17.585
11.4164	735.783	17.6045
11.4186	735.969	17.624
11.42	719.0036	17.6436
11.4215	739.183	17.6631
11.4225	742.32	17.6826
11.425	720.819	17.7021
11.4262	732.607	17.72168
11.4279	749.642	17.7412
11.4296	728.034	17.7607
11.4312	733.43	17.7803
11.4337	749.269	17.7998
11.4337	731.523	17.8193
11.4358	730.6886	17.8389
11.43745	752.8338	17.8584
11.4397	738.436	17.87793
11.4402	731.002	17.8975
11.4422	754.008	17.917
11.4432	743.998	17.9365
11.4461	728.307	17.9561
11.44822	750.841	17.9756
11.4487	753.952	17.9951
11.4509	735.674	18.0146
11.4521	749.641	18.03418
11.4528	755.494	18.0537
11.4559	739.722	18.0732
11.4583	745.359	18.0928
11.4588	764.77	18.1123
11.4603	744.6228	18.1318
11.4618	745.443	18.1514
11.4634	762.073	18.1709
11.466	754.64	18.19043
11.4673	742.234	18.21
11.4683	765.77	18.2295
11.4708	760.179	18.249
11.4712	745.511	18.2686
11.4749	759.213	18.2881
11.4749	765.82	18.3076
11.4764	746.192	18.3271
11.4789	761.92	18.34668
11.48	771.012	18.3662
11.4813	750.53	18.3857
11.4831	756.322	18.4053
11.486	776.119	18.4248
11.4872	757.446	18.4443
11.4882	754.833	18.4639
11.4911	777.616	18.4834
11.4915	762.607	18.50293
11.4937	753.47	18.5225
11.4951	776.99	18.542
11.4975	771.387	18.5615
11.4977	755.433	18.5811
11.5003	777.421	18.6006
11.50177	776.058	18.6201
11.5025	757.654	18.6396
11.5051	772.375	18.65918
11.5072	783.449	18.6787
11.507	762.231	18.6982
11.5098	770.435	18.7178
11.5111	783.793	18.7373
11.5134	768.526	18.7568
11.5151	769.604	18.7764
11.51587	790.591	18.7959
11.5184	775.0155	18.81543
11.5185	766.867	18.835
11.5209	786.128	18.8545
11.5231	784.545	18.874
11.5236	766.474	18.8936
11.52584	788.508	18.9131
11.5274	788.575	18.9326
11.5288	771.666	18.9521
11.5314	781.703	18.97168
11.5319	793.699	18.9912
11.5342	773.328	19.0107
11.5356	783.631	19.0303
11.5365	799.712	19.0498
11.53889	778.912	19.0693
11.5413	776.11	19.0889
11.5417	801.808	19.1084
11.54289	787.54	19.12793
11.5447	778.225	19.1475
11.5463	801.448	19.167
11.5487	790.413	19.1865
11.5489	777.893	19.2061
11.5515	799.462	19.2256
11.55317	799.875	19.2451
11.5552	780.324	19.2646
11.5566	799.842	19.28418
11.5576	802.8811	19.3037
11.5595	785.581	19.3232
11.5623	794.195	19.3428
11.5634	810.9552	19.3623
11.5651	791.794	19.3818
11.5663	794.551	19.4014
11.568	808.981	19.4209
11.57	797.669	19.44043
11.5709	789.002	19.46
11.5731	813.747	19.4795
11.5745	804.312	19.499
11.577	790.083	19.5186
11.5765	807.639	19.5381
11.5789	813.177	19.5576
11.5805	791.077	19.5771
11.5825	807.179	19.59668
11.5846	816.351	19.6162
11.5859	797.462	19.6357
11.5868	802.559	19.6553
11.5892	821.539	19.6748
11.5913	802.898	19.6943
11.5925	803.718	19.7139
11.594	825.069	19.7334
11.5946	807.234	19.75293
11.5979	798.737	19.7725
11.5985	822.502	19.792
11.6009	815.4566	19.8115
11.6027	801.826	19.8311
11.6045	822.169	19.8506
11.6052	818.156	19.8701
11.608	803.3186	19.8896
11.60973	819.258	19.90918
11.6102	828.048	19.9287
11.6116	805.898	19.9482
11.6131	818.023	19.9678
11.6152	829.04	19.9873
11.6171	813.165	20.0068
11.6177	809.567	20.0166

Data Header:			0.254_solid_uprint_typei_4545_r0			Time:	40.0222	s	4/14/2019 4:17:54 AM
Data Acquisition:	Timed
Station Name:	ft40.cfg
Test File Name:	monotonic_0.2540_typei_solid_4545_uprint.tst
Displacement	Force	Running Time
mm	N	s
11.6191	812.889	20.0264
11.6204	835.833	20.0459
11.6214	821.6355	20.06543
11.6236	815.142	20.085
11.6252	831.045	20.1045
11.6268	825.835	20.124
11.6285	812.519	20.1436
11.6295	834.934	20.1631
11.6316	833.46	20.1826
11.63294	816.325	20.2021
11.6359	827.753	20.22168
11.6367	839.904	20.2412
11.6384	819.337	20.2607
11.6407	827.376	20.2803
11.6418	840.848	20.2998
11.6431	823.365	20.3193
11.6443	824.671	20.3389
11.6467	843.887	20.3584
11.6478	827.153	20.37793
11.6501	823.012	20.3975
11.6504	847.203	20.417
11.6523	836.659	20.4365
11.6538	822.41	20.4561
11.6564	843.641	20.4756
11.6565	843.378	20.4951
11.6577	825.363	20.5146
11.6599	843.309	20.53418
11.6616	845.061	20.5537
11.6642	828.009	20.5732
11.6656	839.956	20.5928
11.6663	854.807	20.6123
11.6688	831.982	20.6318
11.6699	836.931	20.6514
11.67101	852.846	20.6709
11.6738	842.413	20.69043
11.6757	833.59	20.71
11.6777	856.569	20.7295
11.6788	847.435	20.749
11.6798	836.63	20.7686
11.681	851.914	20.7881
11.6833	852.795	20.8076
11.6846	833.141	20.8271
11.68755	853.107	20.84668
11.688	859.711	20.8662
11.6891	837.864	20.8857
11.6918	846.344	20.9053
11.693	863.367	20.9248
11.6958	844.834	20.9443
11.6966	846.592	20.9639
11.6986	865.623	20.9834
11.69962	848.945	21.00293
11.7014	841.8429	21.0225
11.7023	865.679	21.042
11.7039	855.786	21.0615
11.7059	841.459	21.0811
11.7076	866.368	21.1006
11.7081	861.1947	21.1201
11.7105	844.713	21.1396
11.713	860.832	21.15918
11.7147	869.244	21.1787
11.7145	850.733	21.1982
11.7168	860.872	21.2178
11.7197	867.83	21.2373
11.7209	855.141	21.2568
11.7218	856.334	21.2764
11.7251	875.255	21.2959
11.72662	859.786	21.31543
11.7273	856.19	21.335
11.7282	873.142	21.3545
11.72963	868.25	21.374
11.733	854.291	21.3936
11.73453	876.051	21.4131
11.7354	872.73	21.4326
11.738	857.722	21.4521
11.7386	870.034	21.47168
11.74	878.563	21.4912
11.742	857.781	21.5107
11.7438	872.143	21.5303
11.7456	884.1355	21.5498
11.747	862.63	21.5693
11.7484	863.195	21.5889
11.7504	886.872	21.6084
11.752	869.826	21.62793
11.7533	865.182	21.6475
11.7553	887.361	21.667
11.75627	874.502	21.6865
11.7579	863.593	21.7061
11.7599	886.138	21.7256
11.7612	882.22	21.7451
11.763	863.856	21.7646
11.7642	883.016	21.78418
11.7659	885.335	21.8037
11.7685	868.959	21.8232
11.7691	878.918	21.8428
11.7717	891.638	21.8623
11.7729	872.965	21.8818
11.7744	879.233	21.9014
11.7763	891.016	21.9209
11.7772	879.985	21.94043
11.7787	873.372	21.96
11.7807	898.338	21.9795
11.7832	886.092	21.999
11.7836	874.401	22.0186
11.7853	891.382	22.0381
11.7866	894.254	22.0576
11.78961	873.935	22.0771
11.7908	892.467	22.09668
11.7929	896.629	22.1162
11.7932	878.126	22.1357
11.7954	886.428	22.1553
11.7979	902.41	22.1748
11.7992	880.856	22.1943
11.8006	886.995	22.2139
11.8024	905.5	22.2334
11.8039	886.255	22.25293
11.8056	881.165	22.2725
11.8062	905.245	22.292
11.8086	894.228	22.3115
11.8106	882.736	22.3311
11.8118	904.792	22.3506
11.8132	898.246	22.3701
11.8152	883.29	22.3896
11.8169	901.6286	22.40918
11.8198	907.001	22.4287
11.8211	886.251	22.4482
11.822	899.827	22.4678
11.8215	908.482	22.4873
11.8246	892.17	22.5068
11.8269	893.315	22.5264
11.8288	913.016	22.5459
11.8293	897.657	22.56543
11.8313	894.937	22.585
11.8335	908.492	22.6045
11.8355	902.9231	22.624
11.836	892.1333	22.6436
11.8385	913.976	22.6631
11.84	908.593	22.6826
11.8414	893.0022	22.7021
11.8433	906.329	22.72168
11.8443	915.74	22.7412
11.845	895.38	22.7607
11.8476	907.206	22.7803
11.8491	918.87	22.7998
11.8506	901.0249	22.8193
11.853	900.5412	22.8389
11.8547	921.726	22.8584
11.8552	905.165	22.87793
11.8575	901.884	22.8975
11.8587	921.413	22.917
11.8614	911.191	22.9365
11.8634	897.567	22.9561
11.8637	919.668	22.9756
11.86575	916.232	22.9951
11.8677	902.3501	23.0146
11.8689	918.891	23.03418
11.8704	917.782	23.0537
11.8724	902.594	23.0732
11.8732	915.816	23.0928
11.8756	927.54	23.1123
11.8775	906.891	23.1318
11.879	914.186	23.1514
11.8802	927.157	23.1709
11.8814	915.521	23.19043
11.8831	908.308	23.21
11.8853	930.657	23.2295
11.8867	919.843	23.249
11.8887	912.682	23.2686
11.8903	925.171	23.2881
11.8926	925.199	23.3076
11.8933	908.252	23.3271
11.8953	928.05	23.34668
11.8965	931.253	23.3662
11.8977	911.098	23.3857
11.8998	920.751	23.4053
11.901	933.857	23.4248
11.9027	915.6889	23.4443
11.9047	921.608	23.4639
11.9062	936.254	23.4834
11.9085	921.059	23.50293
11.9104	915.434	23.5225
11.9115	937.787	23.542
11.9127	925.668	23.5615
11.9147	917.176	23.5811
11.9153	937.72	23.6006
11.918	932.2359	23.6201
11.9193	914.8136	23.6396
11.9212	934.403	23.65918
11.9228	938.045	23.6787
11.9233	919.396	23.6982
11.9254	932.63	23.7178
11.9267	937.721	23.7373
11.9285	922.335	23.7568
11.9309	927.917	23.7764
11.9318	946.255	23.7959
11.9337	928.5495	23.81543
11.9352	926.6673	23.835
11.9364	941.163	23.8545
11.9385	935.716	23.874
11.94038	923.545	23.8936
11.9429	944.865	23.9131
11.9439	940.127	23.9326
11.9446	925.862	23.9521
11.9467	938	23.97168
11.948	944.9928	23.9912
11.9495	924.265	24.0107
11.9516	939.932	24.0303
11.954	949.35	24.0498
11.9553	931.023	24.0693
11.9565	930.802	24.0889
11.9583	952.607	24.1084
11.9594	935.649	24.12793
11.9622	933.114	24.1475
11.9634	952.128	24.167
11.9648	939.66	24.1865
11.9665	930.461	24.2061
11.9683	952.531	24.2256
11.9692	946.04	24.2451
11.9722	931.057	24.2646
11.9734	950.604	24.28418
11.9749	951.449	24.3037
11.9762	933.073	24.3232
11.9786	945.055	24.3428
11.9797	957.123	24.3623
11.9813	937.96	24.3818
11.9824	946.024	24.4014
11.9843	956.008	24.4209
11.9854	941.341	24.44043
11.9864	940.3338	24.46
11.9889	960.407	24.4795
11.9916	949.29	24.499
11.9921	939.372	24.5186
11.9941	955.141	24.5381
11.9957	955.168	24.5576
11.9969	939.109	24.5771
11.9998	956.666	24.59668
11.9998	958.17	24.6162
12.0024	941.513	24.6357
12.0045	951.085	24.6553
12.0061	964.42	24.6748
12.00716	942.433	24.6943
12.0085	951.573	24.7139
12.0104	965.694	24.7334
12.0127	948.8114	24.75293
12.0143	943.811	24.7725
12.0156	967.644	24.792
12.0176	954.373	24.8115
12.0186	945.66	24.8311
12.0206	964.838	24.8506
12.022	957.194	24.8701
12.0234	943.66	24.8896
12.0255	963.7196	24.90918
12.027	965.849	24.9287
12.0275	945.292	24.9482
12.03014	960.251	24.9678
12.0314	967.05	24.9873
12.033	949.9	25.0068
12.03548	956.921	25.0264
12.0361	970.955	25.0459
12.0388	955.35	25.06543
12.0401	956.443	25.085
12.041	967.099	25.1045
12.0424	959.539	25.124
12.0446	950.395	25.1436
12.047	973.184	25.1631
12.0481	967.892	25.1826
12.0496	953.119	25.2021
12.0516	965.598	25.22168
12.0522	973.553	25.2412
12.0546	952.954	25.2607
12.0559	964.908	25.2803
12.0584	977.064	25.2998
12.0593	957.6427	25.3193
12.06019	960.222	25.3389
12.0629	979.901	25.3584
12.0638	959.165	25.37793
12.0661	959.565	25.3975
12.0666	979.003	25.417
12.0693	966.516	25.4365
12.0711	953.853	25.4561
12.0719	976.817	25.4756
12.0738	973.001	25.4951
12.0752	957.461	25.5146
12.0781	975.555	25.53418
12.0788	973.771	25.5537
12.0809	956.436	25.5732
12.0824	972.63	25.5928
12.0833	980.5683	25.6123
12.08589	960.882	25.6318
12.08736	969.258	25.6514
12.088	980.9342	25.6709
12.0906	967.316	25.69043
12.0916	964.47	25.71
12.0937	983.845	25.7295
12.0952	970.585	25.749
12.097	965.818	25.7686
12.0982	981.017	25.7881
12.1	978.309	25.8076
12.1016	961.09	25.8271
12.1041	981.891	25.84668
12.1045	982.945	25.8662
12.1073	965.425	25.8857
12.1073	973.19	25.9053
12.1092	987.2937	25.9248
12.111	968.4339	25.9443
12.11269	973.729	25.9639
12.1141	987.445	25.9834
12.1154	973.872	26.00293
12.1171	968.143	26.0225
12.1211	991.383	26.042
12.12063	976.486	26.0615
12.1231	968.186	26.0811
12.1249	989.562	26.1006
12.126	983.078	26.1201
12.1265	966.6228	26.1396
12.1291	984.902	26.15918
12.1316	987.262	26.1787
12.132	969.432	26.1982
12.1337	983.19	26.2178
12.1353	988.757	26.2373
12.1375	970.058	26.2568
12.139	978.787	26.2764
12.1416	994.032	26.2959
12.1422	976.075	26.31543
12.1442	975.193	26.335
12.1441	991.585	26.3545
12.1478	982.977	26.374
12.1485	973.857	26.3936
12.15	992.935	26.4131
12.152	986.396	26.4326
12.154	975.204	26.4521
12.15561	987.75	26.47168
12.1568	993.993	26.4912
12.1588	973.812	26.5107
12.15975	989.313	26.5303
12.1615	998.3606	26.5498
12.1637	978.66	26.5693
12.1651	979.914	26.5889
12.1672	997.56	26.6084
12.1688	979.886	26.62793
12.16952	981.433	26.6475
12.17208	998.816	26.667
12.17272	986.412	26.6865
12.1753	974.997	26.7061
12.1765	998.892	26.7256
12.1782	990.113	26.7451
12.1793	976.926	26.7646
12.1812	996.4931	26.78418
12.183	995.052	26.8037
12.1844	978.652	26.8232
12.1855	992.235	26.8428
12.1888	998.998	26.8623
12.1899	981.885	26.8818
12.1917	990.751	26.9014
12.1933	999.031	26.9209
12.195	984.493	26.94043
12.1955	983.902	26.96
12.1966	1004.76	26.9795
12.1997	989.4411	26.999
12.2014	984.084	27.0186
12.2022	997.252	27.0381
12.204	995.724	27.0576
12.2066	982.698	27.0771
12.208	1000.25	27.09668
12.2092	999.845	27.1162
12.21051	984.578	27.1357
12.21175	992.957	27.1553
12.2141	1005.41	27.1748
12.2161	983.241	27.1943
12.2175	991.149	27.2139
12.218	1006.43	27.2334
12.2204	990.004	27.25293
12.2219	983.036	27.2725
12.2234	1006.16	27.292
12.2254	993.65	27.3115
12.2271	987.273	27.3311
12.2281	1005.51	27.3506
12.22927	997.572	27.3701
12.2329	983.215	27.3896
12.2343	1004.799	27.40918
12.23522	1003.87	27.4287
12.2368	984.41	27.4482
12.23844	999.229	27.4678
12.2405	1005.56	27.4873
12.2416	987.112	27.5068
12.2437	994.521	27.5264
12.2448	1009.62	27.5459
12.2466	991.684	27.56543
12.2482	993.211	27.585
12.2488	1005.89	27.6045
12.2511	997.101	27.624
12.253	988.5329	27.6436
12.2541	1009.77	27.6631
12.257	1002.42	27.6826
12.2577	988.501	27.7021
12.2593	1001.11	27.72168
12.2614	1007.6	27.7412
12.2624	988.369	27.7607
12.2639	1004.58	27.7803
12.26537	1009.55	27.7998
12.2672	993.382	27.8193
12.26909	995.003	27.8389
12.2708	1013.42	27.8584
12.2728	994.871	27.87793
12.2742	994.721	27.8975
12.2747	1013.35	27.917
12.2777	1001.99	27.9365
12.2796	988.898	27.9561
12.2811	1011.77	27.9756
12.2823	1004.44	27.9951
12.2836	992.911	28.0146
12.2856	1009.98	28.03418
12.2871	1006.73	28.0537
12.2886	989.216	28.0732
12.2901	1004.61	28.0928
12.2919	1013.24	28.1123
12.2934	994.0235	28.1318
12.2948	1001.83	28.1514
12.2959	1014.23	28.1709
12.2977	997.771	28.19043
12.29933	998.614	28.21
12.3008	1015.8	28.2295
12.30354	1002	28.249
12.3046	997.3736	28.2686
12.3071	1011.92	28.2881
12.3076	1008.1	28.3076
12.3091	993.5	28.3271
12.31144	1014.21	28.34668
12.3135	1013.81	28.3662
12.3142	996.249	28.3857
12.3168	1003.96	28.4053
12.31815	1018.41	28.4248
12.3193	997.255	28.4443
12.3198	1006.02	28.4639
12.3235	1018.53	28.4834
12.323	1002.03	28.50293
12.3268	997.316	28.5225
12.3277	1019.74	28.542
12.3295	1005.19	28.5615
12.3307	998.089	28.5811
12.332	1016.631	28.6006
12.3339	1010.29	28.6201
12.336	994.904	28.6396
12.3377	1014.381	28.65918
12.3387	1014.56	28.6787
12.3412	997.655	28.6982
12.3423	1013.34	28.7178
12.3431	1015.85	28.7373
12.3464	996.331	28.7568
12.347	1006.83	28.7764
12.3493	1022.21	28.7959
12.3506	1003.81	28.81543
12.3522	1003.84	28.835
12.3533	1018.91	28.8545
12.3558	1007.71	28.874
12.357	999.7052	28.8936
12.3587	1019.37	28.9131
12.36	1011.41	28.9326
12.362	1000.79	28.9521
12.3639	1014.26	28.97168
12.36536	1019.08	28.9912
12.3667	997.451	29.0107
12.3683	1012.72	29.0303
12.3708	1022.05	29.0498
12.37126	1003.42	29.0693
12.3735	1004.63	29.0889
12.3759	1023.5	29.1084
12.3774	1005.48	29.12793
12.3791	1007.25	29.1475
12.37942	1023.95	29.167
12.3814	1012.98	29.1865
12.3832	999.739	29.2061
12.3833	1024.32	29.2256
12.3864	1014.41	29.2451
12.3868	1001.62	29.2646
12.3894	1019.1	29.28418
12.391	1021.4	29.3037
12.3927	999.114	29.3232
12.394	1016.82	29.3428
12.3953	1022.48	29.3623
12.3968	1005.17	29.3818
12.3996	1012.11	29.4014
12.4004	1022.78	29.4209
12.4023	1004.824	29.44043
12.4045	1007.88	29.46
12.4058	1024.5	29.4795
12.40726	1013.33	29.499
12.4082	1005.06	29.5186
12.4109	1019.71	29.5381
12.41266	1016.84	29.5576
12.4139	1005.13	29.5771
12.4167	1022.43	29.59668
12.4174	1020.81	29.6162
12.4169	1004.33	29.6357
12.4213	1015.75	29.6553
12.4221	1026.623	29.6748
12.42358	1004.961	29.6943
12.4251	1014.67	29.7139
12.4262	1027.167	29.7334
12.4277	1012.48	29.75293
12.43	1005.87	29.7725
12.4324	1028.51	29.792
12.4336	1013.7	29.8115
12.4357	1007.3	29.8311
12.4361	1026.36	29.8506
12.4384	1016.95	29.8701
12.4405	1002.36	29.8896
12.4413	1024.89	29.90918
12.44355	1024.04	29.9287
12.4446	1006.46	29.9482
12.44526	1018.8	29.9678
12.44785	1025.21	29.9873
12.4494	1005.94	30.0068
12.451	1015.74	30.0264
12.453	1027.93	30.0459
12.4556	1009.88	30.06543
12.4559	1012.41	30.085
12.4573	1028.07	30.1045
12.4591	1012.53	30.124
12.4611	1008.41	30.1436
12.4632	1027.51	30.1631
12.4636	1019.89	30.1826
12.465	1008.4	30.2021
12.468	1022.001	30.22168
12.4696	1025.22	30.2412
12.4707	1008.61	30.2607
12.472	1021.729	30.2803
12.47441	1027.62	30.2998
12.4747	1011.39	30.3193
12.4765	1011.9	30.3389
12.4785	1032.91	30.3584
12.4805	1010.98	30.37793
12.48025	1013.8	30.3975
12.4838	1030.63	30.417
12.4853	1017.44	30.4365
12.4867	1007.44	30.4561
12.4887	1029.39	30.4756
12.4905	1019.877	30.4951
12.4913	1009.543	30.5146
12.4932	1025.15	30.53418
12.4948	1024.24	30.5537
12.4968	1006.14	30.5732
12.4978	1021.8	30.5928
12.5001	1028.756	30.6123
12.5012	1010.49	30.6318
12.5032	1018.28	30.6514
12.5044	1029.2	30.6709
12.5074	1012.14	30.69043
12.508	1014.33	30.71
12.5099	1029.14	30.7295
12.5111	1016.05	30.749
12.513	1012.881	30.7686
12.51352	1028.39	30.7881
12.5167	1020.29	30.8076
12.5183	1009.25	30.8271
12.52	1027.76	30.84668
12.5204	1025.73	30.8662
12.5231	1010.11	30.8857
12.5243	1019.02	30.9053
12.5255	1029.79	30.9248
12.5281	1012.01	30.9443
12.5303	1021.23	30.9639
12.5319	1031.27	30.9834
12.5325	1015.68	31.00293
12.5336	1011.25	31.0225
12.53593	1034.28	31.042
12.5374	1018.76	31.0615
12.5394	1012.4	31.0811
12.5406	1030.1	31.1006
12.5425	1025.67	31.1201
12.5434	1007.82	31.1396
12.5459	1028.199	31.15918
12.5475	1026.88	31.1787
12.549	1010.92	31.1982
12.5514	1024.48	31.2178
12.5521	1031.31	31.2373
12.5529	1007.88	31.2568
12.5551	1021.05	31.2764
12.5576	1032.59	31.2959
12.5585	1016.38	31.31543
12.5607	1015.93	31.335
12.56263	1031.53	31.3545
12.5628	1017.28	31.374
12.5647	1014.39	31.3936
12.5661	1032.14	31.4131
12.5687	1022.74	31.4326
12.5704	1014.39	31.4521
12.5718	1027.53	31.47168
12.5728	1027.85	31.4912
12.5752	1011.56	31.5107
12.576	1025.293	31.5303
12.578	1031.91	31.5498
12.5806	1016.69	31.5693
12.5817	1018.26	31.5889
12.5832	1033.2	31.6084
12.58466	1016.32	31.62793
12.587	1019.9	31.6475
12.5882	1034.52	31.667
12.5898	1020.45	31.6865
12.5908	1011.22	31.7061
12.5936	1033.77	31.7256
12.59552	1024.86	31.7451
12.5956	1013.33	31.7646
12.5976	1029.57	31.78418
12.59854	1030.25	31.8037
12.60101	1009.93	31.8232
12.6024	1025.84	31.8428
12.604	1030.03	31.8623
12.60639	1014.74	31.8818
12.6082	1022.91	31.9014
12.6091	1035.16	31.9209
12.6111	1014.14	31.94043
12.6139	1019.305	31.96
12.6132	1035.1	31.9795
12.6157	1022.15	31.999
12.6176	1015.36	32.0186
12.61828	1030.39	32.0381
12.6203	1023	32.0576
12.6215	1013.41	32.0771
[...]
16.28228	1007.88	76.00293
16.2835	1015.16	76.0225
16.2845	1019.13	76.042
16.28727	1012.41	76.0615
16.2879	1010	76.0811
16.2894	1025	76.1006
16.2925	1013.46	76.1201
16.2933	1007.25	76.1396
16.2941	1019.87	76.15918
16.2969	1020.01	76.1787
16.2977	1005.71	76.1982
16.3007	1019.1	76.2178
16.3016	1021.21	76.2373
16.304	1007.68	76.2568
16.3039	1013.7	76.2764
16.3048	1021.02	76.2959
16.308	1007.65	76.31543
16.3092	1012.38	76.335
16.3118	1024.92	76.3545
16.3131	1007.29	76.374
16.31456	1009.35	76.3936
16.3162	1024.37	76.4131
16.3191	1015.23	76.4326
16.3192	1006.88	76.4521
16.3211	1024.32	76.47168
16.3225	1013.58	76.4912
16.3238	1009.06	76.5107
16.3261	1019.73	76.5303
16.327	1019.55	76.5498
16.3284	1004.81	76.5693
16.3312	1017.02	76.5889
16.3309	1020.51	76.6084
16.3346	1009.3	76.62793
16.3354	1012.142	76.6475
16.337	1025.17	76.667
16.3385	1011.25	76.6865
16.34095	1011.33	76.7061
16.3415	1019.34	76.7256
16.3434	1012.39	76.7451
16.34483	1005.996	76.7646
16.3472	1021.96	76.78418
16.3479	1018.22	76.8037
16.34964	1006.83	76.8232
16.3517	1017.272	76.8428
16.3536	1021.72	76.8623
16.3554	1005.39	76.8818
16.3571	1015.66	76.9014
16.35977	1022.45	76.9209
16.3598	1006.22	76.94043
16.3622	1011.88	76.96
16.3637	1022.89	76.9795
16.3644	1009.75	76.999
16.3671	1009.23	77.0186
16.3678	1025.08	77.0381
16.3694	1011.82	77.0576
16.3713	1007.233	77.0771
16.3729	1019.707	77.09668
16.3745	1017.457	77.1162
16.37586	1005.5	77.1357
16.378	1020.68	77.1553
16.37985	1016.544	77.1748
16.3803	1006.95	77.1943
16.3837	1014.769	77.2139
16.3838	1023.23	77.2334
16.3856	1006.575	77.25293
16.388	1014.69	77.2725
16.38921	1020.84	77.292
16.3912	1012.25	77.3115
16.3927	1008.02	77.3311
16.3953	1023.61	77.3506
16.396	1013.54	77.3701
16.3977	1008.61	77.3896
16.3989	1019.18	77.40918
16.4001	1016.3	77.4287
16.4027	1004.33	77.4482
16.4044	1020.38	77.4678
16.405	1021.31	77.4873
16.4074	1005.94	77.5068
16.4073	1012.55	77.5264
16.41013	1022.83	77.5459
16.4112	1008.46	77.56543
16.413	1011.56	77.585
16.4142	1023	77.6045
16.4165	1007.79	77.624
16.4183	1007.92	77.6436
16.4202	1023.89	77.6631
16.4216	1012.09	77.6826
16.42391	1005.26	77.7021
16.4262	1021.49	77.72168
16.4261	1015.47	77.7412
16.4277	1005	77.7607
16.4302	1016.96	77.7803
16.432	1020.16	77.7998
16.4332	1006.93	77.8193
16.4342	1018.416	77.8389
16.4369	1017.8	77.8584
16.4383	1006.91	77.87793
16.4394	1010.98	77.8975
16.4415	1024.51	77.917
16.4434	1009.41	77.9365
16.4444	1008.35	77.9561
16.446	1019.74	77.9756
16.4478	1015.35	77.9951
16.44968	1005.03	78.0146
16.4511	1019.45	78.03418
16.4536	1015.64	78.0537
16.4545	1006.67	78.0732
16.4562	1015.72	78.0928
16.4568	1019.87	78.1123
16.4592	1004.18	78.1318
16.4623	1014.36	78.1514
16.4615	1022.79	78.1709
16.4634	1006.12	78.19043
16.466	1007.995	78.21
16.4674	1022.82	78.2295
16.4683	1009.8	78.249
16.4705	1007.964	78.2686
16.47225	1023.75	78.2881
16.4737	1008.75	78.3076
16.476	1004.21	78.3271
16.47714	1021.94	78.34668
16.4787	1016.39	78.3662
16.48	1002.88	78.3857
16.4812	1017.7	78.4053
16.4831	1017.47	78.4248
16.4853	1004.67	78.4443
16.4862	1012.509	78.4639
16.4884	1018.57	78.4834
16.4898	1005.14	78.50293
16.49012	1013.42	78.5225
16.4938	1018.27	78.542
16.4951	1007.49	78.5615
16.496	1006.53	78.5811
16.4979	1022.35	78.6006
16.4993	1011.84	78.6201
16.501	1006.27	78.6396
16.5028	1015.87	78.65918
16.5047	1017.1	78.6787
16.5067	1003.91	78.6982
16.5076	1019.29	78.7178
16.5089	1017.98	78.7373
16.5111	1005.7	78.7568
16.5125	1011.64	78.7764
16.5148	1021.72	78.7959
16.5172	1004.41	78.81543
16.5183	1010.69	78.835
16.5186	1021.925	78.8545
16.52179	1009.87	78.874
16.5214	1005.4	78.8936
16.5243	1021.71	78.9131
16.5257	1011.52	78.9326
16.5269	1006.29	78.9521
16.5284	1020.683	78.97168
16.5308	1012.63	78.9912
16.5314	1002.31	79.0107
16.5344	1017.62	79.0303
16.5357	1018.05	79.0498
16.5376	1003.31	79.0693
16.5394	1013.86	79.0889
16.5407	1018.28	79.1084
16.5421	1004.42	79.12793
16.5432	1010.89	79.1475
16.5449	1021.59	79.167
16.547	1007.5	79.1865
16.5484	1008.98	79.2061
16.5504	1017.01	79.2256
16.5519	1011.25	79.2451
16.5529	1004.82	79.2646
16.5566	1021.28	79.28418
16.557	1015.84	79.3037
16.5587	1006.32	79.3232
16.5595	1012.796	79.3428
16.56291	1018.598	79.3623
16.5628	1004.79	79.3818
16.5647	1016.05	79.4014
16.5672	1018.8	79.4209
16.5681	1004.87	79.44043
16.5691	1006.15	79.46
16.5715	1022.62	79.4795
16.5723	1006.25	79.499
16.57402	1007.15	79.5186
16.5767	1021.01	79.5381
16.5768	1011.83	79.5576
16.58036	1003.67	79.5771
16.58095	1019.81	79.59668
16.5823	1015.189	79.6162
16.5849	1004.51	79.6357
16.5872	1018.181	79.6553
16.5872	1016.2	79.6748
16.5894	1000.71	79.6943
16.5917	1014.48	79.7139
16.5931	1020.35	79.7334
16.594	1004.96	79.75293
16.5948	1009.6	79.7725
16.5969	1018.57	79.792
16.5986	1005.59	79.8115
16.6005	1008.37	79.8311
16.60223	1019.795	79.8506
16.6048	1008.81	79.8701
16.6056	1007.19	79.8896
16.6059	1016.75	79.90918
16.60886	1015.4	79.9287
16.6103	1000.98	79.9482
16.6117	1017.42	79.9678
16.6135	1016.24	79.9873
16.6154	1007.14	80.0068
16.61797	1006.82	80.0166

Data Header:			0.254_solid_uprint_typei_4545_r0			Time:	85.9255	s	4/14/2019 4:18:40 AM
Data Acquisition:	Timed
Station Name:	ft40.cfg
Test File Name:	monotonic_0.2540_typei_solid_4545_uprint.tst
Displacement	Force	Running Time
mm	N	s
16.6164	1009.5	80.0264
16.6177	1018.78	80.0361
16.6189	1020.37	80.0459
16.6197	1013.86	80.0557
16.6203	1004.03	80.06543
16.6212	1001.63	80.0752
16.6212	1010.47	80.085
16.6226	1014.78	80.0947
16.6235	1020.14	80.1045
16.62496	1015.07	80.1143
16.6254	1006.23	80.124
16.6263	1002.94	80.1338
16.6267	1001.93	80.1436
16.6281	1012.94	80.15332
16.6295	1021.27	80.1631
16.6289	1018.37	80.1729
16.6301	1009.5	80.1826
16.6313	1002.07	80.1924
16.6317	1003.99	80.2021
16.6327	1011.59	80.2119
16.6324	1018.113	80.22168
16.6336	1019.4	80.2314
16.6353	1013.59	80.2412
16.635	1005.7	80.251
16.63711	1000.528	80.2607
16.6362	1007.03	80.2705
16.6386	1017.056	80.2803
16.6392	1022.567	80.29
16.6394	1015.51	80.2998
16.6417	1006.96	80.30957
16.6404	1001.53	80.3193
16.6424	1006.18	80.3291
16.6438	1014.77	80.3389
16.6447	1017.88	80.3486
16.6437	1019.14	80.3584
16.6454	1012.733	80.3682
16.6462	1000.53	80.37793
16.6476	1004.38	80.3877
16.6468	1008.39	80.3975
16.649	1017.77	80.4072
16.6489	1019.43	80.417
16.6509	1011.91	80.4268
16.6509	1005.59	80.4365
16.6521	1003.45	80.4463
16.65296	1007.31	80.4561
16.6537	1012.62	80.46582
16.65451	1015.38	80.4756
16.6558	1019	80.4854
16.6561	1009.4	80.4951
16.657	1002.91	80.5049
16.6576	1002.59	80.5146
16.6581	1009.83	80.5244
16.6601	1018.04	80.53418
16.6597	1016.84	80.5439
16.6606	1011.11	80.5537
16.66258	1008.09	80.5635
16.66256	1003.09	80.5732
16.6634	1005.99	80.583
16.6638	1013.04	80.5928
16.665	1020.16	80.6025
16.6656	1017.42	80.6123
16.667	1008.84	80.62207
16.668	1000.85	80.6318
16.6685	1002.97	80.6416
16.6693	1011.02	80.6514
16.6697	1017.4	80.6611
16.6712	1018.03	80.6709
16.6717	1010.11	80.6807
16.672	1005.35	80.69043
16.6727	1001.485	80.7002
16.6739	1004.49	80.71
16.6752	1014.53	80.7197
16.6769	1019.72	80.7295
16.6762	1016.21	80.7393
16.67642	1003.54	80.749
16.6783	1000.32	80.7588
16.67979	1006.09	80.7686
16.67943	1011.42	80.77832
16.6812	1019.66	80.7881
16.6808	1015.34	80.7979
16.6816	1010.38	80.8076
16.6836	1003.76	80.8174
16.6844	997.012	80.8271
16.684	1008.19	80.8369
16.6852	1019.74	80.84668
16.68615	1019.48	80.8564
16.6873	1012.67	80.8662
16.6882	1000.22	80.876
16.6876	1001.36	80.8857
16.6891	1007.29	80.8955
16.6902	1014.99	80.9053
16.691	1018.85	80.915
16.6924	1015.47	80.9248
16.6917	1007.84	80.93457
16.6944	998.929	80.9443
16.6943	1002.98	80.9541
16.6954	1012.02	80.9639
16.6961	1019.93	80.9736
16.6973	1016.67	80.9834
16.6975	1008.18	80.9932
16.6985	1000.26	81.00293
16.699	1002.63	81.0127
16.7006	1009.39	81.0225
16.7007	1014.46	81.0322
16.7011	1019	81.042
16.7031	1013.98	81.0518
16.7031	1003.35	81.0615
16.7043	1001.57	81.0713
16.7053	1002.74	81.0811
16.706	1014.92	81.09082
16.7064	1016.74	81.1006
16.7069	1012.23	81.1104
16.7081	1006.1	81.1201
16.7083	1001.11	81.1299
16.7092	1003.79	81.1396
16.7092	1007.21	81.1494
16.711	1013.75	81.15918
16.7129	1017.98	81.1689
16.7126	1009.69	81.1787
16.7142	1004.874	81.1885
16.7148	1001.88	81.1982
16.71619	1006.9	81.208
16.7162	1013.849	81.2178
16.7182	1014.51	81.2275
16.7182	1013.68	81.2373
16.7186	1007.27	81.24707
16.7207	1000.83	81.2568
16.7202	1003.99	81.2666
16.7205	1006.23	81.2764
16.722	1016.8	81.2861
16.7223	1017.52	81.2959
16.72315	1009.57	81.3057
16.7244	1001.54	81.31543
16.72508	999.778	81.3252
16.7268	1005.78	81.335
16.7278	1012.52	81.3447
16.7279	1016.18	81.3545
16.7274	1012.91	81.3643
16.7305	1006.83	81.374
16.7293	999.702	81.3838
16.73163	1000.87	81.3936
16.7322	1011.44	81.40332
16.7318	1018.38	81.4131
16.7336	1016.27	81.4229
16.7332	1003.83	81.4326
16.735	1001.02	81.4424
16.7358	1001.19	81.4521
16.737	1005.67	81.4619
16.7368	1016.26	81.47168
16.7389	1016.8	81.4814
16.7379	1011.25	81.4912
16.74	1001.69	81.501
16.7403	995.467	81.5107
16.7423	1005.36	81.5205
16.7426	1011.88	81.5303
16.7437	1018.6	81.54
16.744	1013.33	81.5498
16.7437	1000.54	81.55957
16.7454	1001.23	81.5693
16.7467	1000.89	81.5791
16.7469	1009.72	81.5889
16.7482	1015.237	81.5986
16.7487	1015.27	81.6084
16.7503	1009.58	81.6182
16.75	996.826	81.62793
16.7509	999.091	81.6377
16.7533	1007.62	81.6475
16.7516	1013.81	81.6572
16.7545	1018.18	81.667
16.755	1008.74	81.6768
16.7547	1002.65	81.6865
16.75687	1000.56	81.6963
16.7569	1002.85	81.7061
16.7578	1009.408	81.71582
16.7582	1016.06	81.7256
16.7587	1013.26	81.7354
16.7602	1005.42	81.7451
16.75992	999.654	81.7549
16.7615	1000.52	81.7646
16.7636	1008.62	81.7744
16.7628	1013.19	81.78418
16.7636	1012.93	81.7939
16.7642	1007.56	81.8037
16.7654	1000.66	81.8135
16.766	999.9964	81.8232
16.7668	1000.21	81.833
16.7678	1010.04	81.8428
16.7694	1016.82	81.8525
16.7711	1011.24	81.8623
16.7707	1004.35	81.87207
16.772	997.115	81.8818
16.7715	1001.241	81.8916
16.7747	1009.33	81.9014
16.7741	1011.377	81.9111
16.7751	1014.34	81.9209
16.776	1008.259	81.9307
16.7773	999.022	81.94043
16.7773	997.622	81.9502
16.7786	999.796	81.96
16.7788	1011.08	81.9697
16.7803	1015.58	81.9795
16.7812	1009.3	81.9893
16.7803	1001.32	81.999
16.7819	995.476	82.0088
16.7816	1001.21	82.0186
16.7835	1006.22	82.02832
16.78488	1014.37	82.0381
16.7856	1013.993	82.0479
16.7861	1005.14	82.0576
16.7867	997.565	82.0674
16.7872	994.648	82.0771
16.7887	1002.37	82.0869
16.79	1013.9	82.09668
16.7904	1013.91	82.1064
16.7909	1005.9	82.1162
16.7915	999.739	82.126
16.7923	996.1311	82.1357
16.7941	1000.48	82.1455
16.7943	1009.51	82.1553
16.7947	1012.63	82.165
16.7957	1010.99	82.1748
16.7978	1001.17	82.18457
16.7971	992.751	82.1943
16.7991	997.639	82.2041
16.7993	1007.27	82.2139
16.7997	1014.28	82.2236
16.8007	1011.22	82.2334
16.8017	1002.53	82.2432
16.8027	997.06	82.25293
16.8043	995.3761	82.2627
16.8045	1003.21	82.2725
16.80423	1008.64	82.2822
16.8045	1011.8	82.292
16.8068	1008.06	82.3018
16.8079	994.421	82.3115
16.8083	993.526	82.3213
16.8089	998.757	82.3311
16.8101	1006.11	82.34082
16.8111	1011.77	82.3506
16.8108	1005.11	82.3604
16.8111	1000.41	82.3701
16.8127	995.935	82.3799
16.8146	995.9472	82.3896
16.8139	1001.09	82.3994
16.8161	1007.44	82.40918
16.8163	1010.92	82.4189
16.818	1002.05	82.4287
16.8179	994.782	82.4385
16.8191	993.496	82.4482
16.8196	1000.93	82.458
16.82003	1005.54	82.4678
16.8203	1007.41	82.4775
16.822	1006.03	82.4873
16.8223	999.175	82.49707
16.82408	993.219	82.5068
16.8245	991.782	82.5166
16.825	1001.52	82.5264
16.8262	1007.37	82.5361
16.8275	1007.09	82.5459
16.8276	1002.04	82.5557
16.8289	992.975	82.56543
16.8303	992.735	82.5752
16.8297	999.389	82.585
16.83	1001.45	82.5947
16.8312	1007.5	82.6045
16.8332	1002.81	82.6143
16.83429	996.213	82.624
16.8337	989.442	82.6338
16.8354	989.477	82.6436
16.8358	1002.356	82.65332
16.8375	1006.56	82.6631
16.8364	1006.298	82.6729
16.8389	998.508	82.6826
16.83853	987.931	82.6924
16.8397	991.73	82.7021
16.8412	994.176	82.7119
16.8417	1005.4	82.72168
16.8425	1006.23	82.7314
16.8433	999.345	82.7412
16.8442	992.049	82.751
16.8438	984.951	82.7607
16.8446	992.001	82.7705
16.8472	1003.42	82.7803
16.8488	1004.59	82.79
16.8476	998.884	82.7998
16.8497	990.4798	82.80957
16.8505	985.9	82.8193
16.8502	987.505	82.8291
16.8517	993.044	82.8389
16.85199	1001.68	82.8486
16.8529	1001.68	82.8584
16.8544	991.741	82.8682
16.85396	981.292	82.87793
16.856	982.856	82.8877
16.8564	988.916	82.8975
16.8577	997.54	82.9072
16.8571	994.035	82.917
16.8585	987.911	82.9268
16.8591	979.215	82.9365
16.8609	969.199	82.9463
16.867	-100.442	82.9561
16.86932	-10.9177	82.96582
16.8688	-27.9488	82.9756
16.8688	-31.9515	82.9854
16.869	-40.3734	82.9951
16.8689	-53.0952	83.0049
16.8685	-45.4893	83.0146
16.87	-41.6178	83.0244
16.8694	-30.5737	83.03418
16.8711	-33.2969	83.0439
16.8709	-35.1062	83.0537
16.8713	-46.1624	83.0635
16.8724	-49.6559	83.0732
16.8726	-47.4615	83.083
16.874	-37.026	83.0928
16.8745	-29.3227	83.1025
16.8752	-34.25309	83.1123
16.8768	-42.7215	83.12207
16.8763	-49.1753	83.1318
16.8768	-47.7382	83.1416
16.8793	-41.0707	83.1514
16.8796	-35.1935	83.1611
16.8804	-32.2307	83.1709
16.8802	-36.63517	83.1807
16.8816	-46.5909	83.19043
16.8818	-52.82156	83.2002
16.8818	-44.551	83.21
16.884	-34.2462	83.2197
16.8847	-28.8897	83.2295
16.8856	-32.9853	83.2393
16.8861	-45.4128	83.249
16.8852	-50.2098	83.2588
16.888	-48.3555	83.2686
16.8897	-41.1506	83.27832
16.8889	-30.2436	83.2881
16.8906	-32.3791	83.2979
16.8906	-38.9048	83.3076
16.8919	-49.90659	83.3174
16.89172	-52.8562	83.3271
16.8942	-41.3631	83.3369
16.8938	-32.61776	83.34668
16.8953	-27.9274	83.3564
16.8968	-38.8355	83.3662
16.8968	-46.4483	83.376
16.8976	-47.9488	83.3857
16.8982	-48.3131	83.3955
16.8996	-35.7255	83.4053
16.8999	-29.1348	83.415
16.901	-34.7824	83.4248
16.90255	-42.0412	83.43457
16.9019	-52.1033	83.4443
16.90332	-48.6976	83.4541
16.9044	-37.9212	83.4639
16.9044	-32.3506	83.4736
16.9055	-32.6308	83.4834
16.9067	-40.3843	83.4932
16.90704	-44.7431	83.50293
16.9076	-49.08569	83.5127
16.9085	-42.37574	83.5225
16.9095	-34.9889	83.5322
16.9099	-30.0658	83.542
16.9111	-35.6888	83.5518
16.9113	-46.2832	83.5615
16.9143	-50.5881	83.5713
16.9136	-43.3661	83.5811
16.9145	-36.6123	83.59082
16.9151	-33.1607	83.6006
16.916	-33.5345	83.6104
16.9158	-40.5814	83.6201
16.9179	-48.1043	83.6299
16.9189	-48.5325	83.6396
16.9194	-42.768	83.6494
16.91967	-33.0307	83.65918
16.9212	-30.8028	83.6689
16.921	-41.5792	83.6787
16.9232	-44.4223	83.6885
16.924	-48.7323	83.6982
16.9237	-42.1949	83.708
16.9244	-37.96159	83.7178
16.926	-35.4144	83.7275
16.92647	-34.3178	83.7373
16.92746	-42.58707	83.74707
16.9275	-47.3757	83.7568
16.92889	-48.1476	83.7666
16.9294	-41.79287	83.7764
16.93042	-29.2942	83.7861
16.9309	-35.032	83.7959
16.933	-39.9339	83.8057
16.9332	-47.4225	83.81543
16.934	-49.2294	83.8252
16.935	-42.8951	83.835
16.9359	-36.8619	83.8447
16.9364	-34.06	83.8545
16.93751	-34.1724	83.8643
16.938	-44.5714	83.874
16.9384	-50.8369	83.8838
16.9398	-46.5114	83.8936
16.9412	-38.5339	83.90332
16.9421	-33.3743	83.9131
16.9415	-33.9594	83.9229
16.9423	-43.0283	83.9326
16.94385	-46.3436	83.9424
16.9454	-49.1421	83.9521
16.9463	-42.0763	83.9619
16.9458	-33.4473	83.97168
16.9474	-32.0136	83.9814
16.9477	-36.299	83.9912
16.9483	-48.0646	84.001
16.9492	-50.4564	84.0107
16.9507	-45.0892	84.0205
16.9501	-35.8353	84.0303
16.9516	-31.28694	84.04
16.9522	-37.5567	84.0498
16.9537	-42.2078	84.05957
16.954	-47.7752	84.0693
16.95488	-50.3253	84.0791
16.9557	-38.661	84.0889
16.9563	-34.3553	84.0986
16.9572	-31.8233	84.1084
16.9579	-39.4839	84.1182
16.9595	-51.4585	84.12793
16.9599	-48.8339	84.1377
16.9612	-40.9171	84.1475
16.9618	-35.0273	84.1572
16.9632	-31.9075	84.167
16.9628	-38.9894	84.1768
16.9645	-45.1594	84.1865
16.9644	-50.2867	84.1963
16.96537	-45.3634	84.2061
16.9663	-36.6069	84.21582
16.9676	-32.1225	84.2256
16.9678	-33.8472	84.2354
16.9685	-44.1555	84.2451
16.9685	-49.6601	84.2549
16.9698	-45.62196	84.2646
16.9718	-41.38076	84.2744
16.9722	-35.6394	84.28418
16.973	-34.0904	84.2939
16.9742	-38.5147	84.3037
16.9745	-44.4384	84.3135
16.9751	-46.1123	84.3232
16.9757	-45.7345	84.333
16.9769	-35.05706	84.3428
16.9779	-31.31567	84.3525
16.97901	-38.7909	84.3623
16.9801	-43.9624	84.37207
16.9794	-48.7236	84.3818
16.9804	-45.3469	84.3916
16.9822	-41.3943	84.4014
16.9817	-35.7912	84.4111
16.984	-33.5536	84.4209
16.9848	-40.1045	84.4307
16.985	-45.1752	84.44043
16.9854	-48.6833	84.4502
16.98595	-44.6917	84.46
16.9876	-34.3287	84.4697
16.9886	-35.6413	84.4795
16.9888	-34.5497	84.4893
16.9902	-45.5124	84.499
16.9904	-48.9325	84.5088
16.9915	-44.31509	84.5186
16.9918	-40.4685	84.52832
16.9926	-33.38343	84.5381
16.9939	-33.0887	84.5479
16.9946	-39.8378	84.5576
16.9959	-47.8903	84.5674
16.99678	-49.6168	84.5771
16.9976	-41.1799	84.5869
16.99828	-34.3844	84.59668
16.999	-34.5312	84.6064
17.0003	-38.2344	84.6162
16.9994	-45.0036	84.626
17.001	-49.6595	84.6357
17.002	-47.6079	84.6455
17.003	-36.2293	84.6553
17.0032	-31.4879	84.665
17.0033	-34.2825	84.6748
17.0056	-45.0364	84.68457
17.0065	-50.8997	84.6943
17.0068	-47.4169	84.7041
17.00799	-40.2309	84.7139
17.0089	-31.8362	84.7236
17.0097	-35.3001	84.7334
17.0102	-39.9962	84.7432
17.0119	-47.28561	84.75293
17.0123	-49.8556	84.7627
17.0121	-41.5596	84.7725
17.0134	-35.3267	84.7822
17.0147	-28.4447	84.792
17.0158	-37.4988	84.8018
17.0155	-49.2823	84.8115
17.0168	-49.2789	84.8213
17.0181	-45.1758	84.8311
17.0187	-36.5937	84.84082
17.0193	-32.534	84.8506
17.0195	-35.0815	84.8604
17.0199	-39.2957	84.8701
17.0218	-48.7675	84.8799
17.0222	-47.2522	84.8896
17.0235	-40.2208	84.8994
17.0246	-34.2977	84.90918
17.0244	-32.4529	84.9189
17.0262	-41.5666	84.9287
17.0271	-47.6273	84.9385
17.028	-45.9562	84.9482
17.0281	-43.3383	84.958
17.0294	-37.9273	84.9678
17.0296	-33.8181	84.9775
17.031	-35.8114	84.9873
17.0316	-42.8314	84.99707
17.0321	-49.8032	85.0068
17.03334	-48.8145	85.0166
17.0337	-39.185	85.0264
17.0346	-33.3812	85.0361
17.036	-35.0548	85.0459
17.0361	-40.4561	85.0557
17.0372	-45.0906	85.06543
17.0378	-46.474	85.0752
17.0393	-44.6533	85.085
17.0386	-36.2004	85.0947
17.0401	-32.4185	85.1045
17.04059	-34.6038	85.1143
17.0415	-42.0859	85.124
17.043	-50.3913	85.1338
17.0442	-45.9552	85.1436
17.044	-37.4489	85.15332
17.045	-34.6092	85.1631
17.045	-32.3922	85.1729
17.0472	-41.49947	85.1826
17.048	-46.5541	85.1924
17.0482	-47.537	85.2021
17.0503	-43.6567	85.2119
17.0504	-33.9691	85.22168
17.0498	-32.0174	85.2314
17.0516	-37.0553	85.2412
17.0523	-45.3071	85.251
17.0539	-50.8875	85.2607
17.0527	-43.557	85.2705
17.0551	-36.899	85.2803
17.0563	-32.6144	85.29
17.0561	-36.7166	85.2998
17.0569	-44.1471	85.30957
17.0582	-47.7604	85.3193
17.0584	-49.8788	85.3291
17.0599	-41.5937	85.3389
17.0618	-31.3216	85.3486
17.0613	-32.4577	85.3584
17.0628	-42.0836	85.3682
17.0635	-48.4827	85.37793
17.0645	-47.9362	85.3877
17.0636	-40.3205	85.3975
17.0652	-35.0754	85.4072
17.067	-34.5171	85.417
17.0688	-36.9	85.4268
17.068	-45.4812	85.4365
17.0688	-51.7935	85.4463
17.069	-44.5665	85.4561
17.0707	-38.5082	85.46582
17.0722	-30.6172	85.4756
17.072	-35.078	85.4854
17.0732	-46.4059	85.4951
17.0737	-49.0854	85.5049
17.0745	-47.60828	85.5146
17.0759	-39.539	85.5244
17.0756	-36.471	85.53418
17.07695	-36.1314	85.5439
17.0787	-37.2506	85.5537
17.0781	-49.3026	85.5635
17.0787	-47.7731	85.5732
17.0802	-45.3625	85.583
17.0806	-35.2758	85.5928
17.0821	-32.2659	85.6025
17.0825	-40.4434	85.6123
17.084	-43.6802	85.62207
17.0832	-47.4994	85.6318
17.0858	-46.11618	85.6416
17.0862	-38.8297	85.6514
17.0864	-34.9952	85.6611
17.0882	-34.1297	85.6709
17.0876	-40.4771	85.6807
17.0892	-46.7421	85.69043
17.0903	-47.6659	85.7002
17.0908	-42.9685	85.71
17.092	-34.7336	85.7197
17.0915	-35.3431	85.7295
17.0929	-38.6181	85.7393
17.095	-44.9344	85.749
17.0953	-45.2771	85.7588
17.09527	-47.58	85.7686
17.096	-40.0553	85.77832
17.0973	-33.0745	85.7881
17.0977	-33.0001	85.7979
17.0998	-40.6748	85.8076
17.0995	-50.6438	85.8174
17.101	-48.1977	85.8271
17.1007	-39.5805	85.8369
17.1025	-36.7239	85.84668
17.103	-32.10144	85.8564
17.10371	-39.9528	85.8662
17.105	-45.1965	85.876
17.10557	-49.1272	85.8857
17.1062	-47.1145	85.8955
17.1067	-35.8732	85.9053
17.1086	-30.9592	85.915