File: data/processed_data_files/tensile/0.254_hd_uprint_typeiv_090_r(9).dat
MTS793|BTW|ENU|1|2|.|/|:|1|0|0|A

Data Header:			0.254_hd_uprint_typeiv_090_r0			Time:	20.0305	s	4/13/2019 11:19:04 PM
Data Acquisition:	Timed
Station Name:	ft40.cfg
Test File Name:	monotonic_0.2540_typeiv_solid_4545_uprint.tst
Displacement	Force	Running Time
mm	N	s
-40.0423	-110.851	0.0354004
-40.0419	-111.622	0.0549316
-40.0413	-111.9	0.0744629
-40.042	-115.2867	0.0939941
-40.0399	-105.984	0.113525
-40.03775	-108.925	0.133057
-40.0359	-111.402	0.152588
-40.0349	-103.26	0.172119
-40.0336	-102.355	0.19165
-40.0319	-110.861	0.211182
-40.0302	-102.195	0.230713
-40.0287	-99.7489	0.250244
-40.0272	-100.91	0.269775
-40.02528	-101.222	0.289307
-40.0224	-95.6716	0.308838
-40.0224	-104.383	0.328369
-40.01981	-97.9245	0.3479
-40.0189	-92.9035	0.367432
-40.01733	-96.3851	0.386963
-40.0155	-97.3899	0.406494
-40.0143	-91.8642	0.426025
-40.01244	-94.0214	0.445557
-40.0108	-94.7445	0.465088
-40.008	-90.0237	0.484619
-40.0077	-87.662	0.50415
-40.0057	-89.7391	0.523682
-40.0046	-87.1187	0.543213
-40.0028	-87.997	0.562744
-39.9999	-89.5497	0.582275
-39.9992	-85.11058	0.601807
-39.9979	-80.4096	0.621338
-39.9969	-84.4704	0.640869
-39.9956	-86.7117	0.6604
-39.9925	-78.3958	0.679932
-39.9915	-80.6101	0.699463
-39.9899	-82.0375	0.718994
-39.9872	-78.2959	0.738525
-39.98653	-75.9118	0.758057
-39.9857	-81.9078	0.777588
-39.9833	-72.7508	0.797119
-39.9817	-74.4797	0.81665
-39.9796	-77.8556	0.836182
-39.97879	-72.0488	0.855713
-39.9766	-68.8364	0.875244
-39.9749	-76.7849	0.894775
-39.9734	-70.4417	0.914307
-39.9709	-65.824	0.933838
-39.96983	-70.0083	0.953369
-39.9682	-67.9441	0.9729
-39.9671	-63.5987	0.992432
-39.9652	-70.05233	1.01196
-39.964	-64.5164	1.03149
-39.9615	-59.4156	1.05103
-39.9609	-62.6439	1.07056
-39.9585	-64.7986	1.09009
-39.9569	-58.2532	1.10962
-39.9552	-60.3023	1.12915
-39.9543	-61.05	1.14868
-39.9517	-55.46579	1.16821
-39.95015	-54.3754	1.18774
-39.9484	-57.9228	1.20728
-39.9466	-56.1339	1.22681
-39.9462	-52.5596	1.24634
-39.9446	-57.5945	1.26587
-39.9423	-52.3945	1.2854
-39.9412	-47.6299	1.30493
-39.93853	-50.4187	1.32446
-39.9376	-53.5153	1.34399
-39.9354	-44.3911	1.36353
-39.93401	-48.6199	1.38306
-39.932	-48.5451	1.40259
-39.9316	-45.2772	1.42212
-39.9299	-42.2747	1.44165
-39.9282	-49.9262	1.46118
-39.9256	-39.333	1.48071
-39.9242	-40.377	1.50024
-39.9238	-43.9301	1.51978
-39.9222	-39.7631	1.53931
-39.9195	-35.0059	1.55884
-39.91898	-43.8635	1.57837
-39.91573	-37.6057	1.5979
-39.9145	-33.2061	1.61743
-39.9127	-35.2103	1.63696
-39.9106	-37.6004	1.65649
-39.9096	-34.2637	1.67603
-39.9081	-36.0905	1.69556
-39.9064	-33.3677	1.71509
-39.9042	-28.01088	1.73462
-39.9028	-30.0933	1.75415
-39.9022	-33.3568	1.77368
-39.901	-27.72123	1.79321
-39.8991	-24.9646	1.81274
-39.8967	-29.0963	1.83228
-39.8946	-26.8902	1.85181
-39.8945	-22.7492	1.87134
-39.892	-23.4642	1.89087
-39.89093	-26.0052	1.9104
-39.8893	-17.1768	1.92993
-39.8864	-23.4166	1.94946
-39.88504	-20.3198	1.96899
-39.8838	-15.1599	1.98853
-39.8826	-16.4823	2.00806
-39.8801	-24.064	2.02759
-39.8786	-13.8581	2.04712
-39.878	-13.7085	2.06665
-39.8749	-16.3152	2.08618
-39.8745	-12.1536	2.10571
-39.8729	-8.87603	2.12524
-39.8712	-17.5341	2.14478
-39.8684	-8.30297	2.16431
-39.868	-7.35889	2.18384
-39.8671	-12.2163	2.20337
-39.8647	-7.92987	2.2229
-39.8627	-2.22726	2.24243
-39.86142	-10.00896	2.26196
-39.8592	-7.478529	2.28149
-39.8577	-2.16262	2.30103
-39.8566	-3.77617	2.32056
-39.854	-3.61699	2.34009
-39.855	-0.768509	2.35962
-39.8506	-2.14182	2.37915
-39.8493	-3.99053	2.39868
-39.8483	2.50902	2.41821
-39.8465	3.26888	2.43774
-39.8447	1.70465	2.45728
-39.844	1.81267	2.47681
-39.84201	8.13388	2.49634
-39.8396	3.40735	2.51587
-39.8383	5.763052	2.5354
-39.8355	10.5853	2.55493
-39.8345	9.31219	2.57446
-39.8332	4.35224	2.59399
-39.8321	13.7105	2.61353
-39.8306	9.77915	2.63306
-39.8284	9.31217	2.65259
-39.8274	17.9016	2.67212
-39.82592	16.71693	2.69165
-39.8249	8.20212	2.71118
-39.8219	16.4584	2.73071
-39.8213	18.4732	2.75024
-39.8188	15.917	2.76978
-39.8173	19.235	2.78931
-39.8146	21.6315	2.80884
-39.8143	15.7467	2.82837
-39.8133	22.47261	2.8479
-39.8111	26.34	2.86743
-39.808	21.0992	2.88696
-39.8073	21.721	2.90649
-39.80619	29.09602	2.92603
-39.8036	24.102	2.94556
-39.8021	23.4993	2.96509
-39.7997	29.994	2.98462
-39.8001	31.9425	3.00415
-39.79818	29.0881	3.02368
-39.7948	29.5887	3.04321
-39.7943	34.4293	3.06274
-39.7929	29.91363	3.08228
-39.791	35.2954	3.10181
-39.7888	39.3109	3.12134
-39.7886	35.0991	3.14087
-39.78614	32.9375	3.1604
-39.785	43.3748	3.17993
-39.7833	36.9282	3.19946
-39.7809	39.13	3.21899
-39.7805	43.7405	3.23853
-39.7782	43.3511	3.25806
-39.7775	36.6373	3.27759
-39.7752	47.3839	3.29712
-39.7727	43.2119	3.31665
-39.7711	41.6268	3.33618
-39.7701	48.261	3.35571
-39.7681	51.5301	3.37524
-39.7664	39.86932	3.39478
-39.7657	49.91399	3.41431
-39.7634	55.44051	3.43384
-39.7617	48.6574	3.45337
-39.7596	50.3927	3.4729
-39.7579	54.146	3.49243
-39.7582	50.9209	3.51196
-39.7553	54.4834	3.53149
-39.7533	57.1955	3.55103
-39.7526	54.696	3.57056
-39.7499	55.1586	3.59009
-39.7484	59.0479	3.60962
-39.7472	60.81525	3.62915
-39.7449	56.1858	3.64868
-39.744	62.6448	3.66821
-39.7422	64.6685	3.68774
-39.741	61.7522	3.70728
-39.7385	58.9598	3.72681
-39.737	68.3058	3.74634
-39.7359	62.4897	3.76587
-39.7348	66.35305	3.7854
-39.7329	71.0783	3.80493
-39.7302	68.1181	3.82446
-39.7303	64.3435	3.84399
-39.7277	75.8739	3.86353
-39.726	71.8522	3.88306
-39.7234	68.8016	3.90259
-39.7225	76.4709	3.92212
-39.7213	76.2837	3.94165
-39.72	69.2202	3.96118
-39.7179	79.6645	3.98071
-39.7159	77.86042	4.00024
-39.7153	74.0425	4.01978
-39.7133	79.6567	4.03931
-39.711	82.8038	4.05884
-39.70813	75.0806	4.07837
-39.7087	79.4497	4.0979
-39.70702	86.9964	4.11743
-39.706	81.7059	4.13696
-39.70229	82.482	4.15649
-39.70089	85.0533	4.17603
-39.7001	84.3926	4.19556
-39.6998	83.0586	4.21509
-39.6955	88.8857	4.23462
-39.6956	88.8804	4.25415
-39.6951	87.1105	4.27368
-39.6918	87.7453	4.29321
-39.6893	93.8198	4.31274
-39.6891	87.5492	4.33228
-39.6862	94.1507	4.35181
-39.686	97.7676	4.37134
-39.6832	93.7655	4.39087
-39.68121	90.2916	4.4104
-39.68	100.774	4.42993
-39.67868	96.43	4.44946
-39.6762	97.512	4.46899
-39.6755	103.124	4.48853
-39.6738	99.9158	4.50806
-39.67329	92.883	4.52759
-39.6704	105.774	4.54712
-39.6689	103.164	4.56665
-39.6684	100.618	4.58618
-39.6644	106.119	4.60571
-39.6647	107.793	4.62524
-39.6626	101.614	4.64478
-39.66095	106.313	4.66431
-39.6604	109.5891	4.68384
-39.658	106.7699	4.70337
-39.6562	109.843	4.7229
-39.6548	112.808	4.74243
-39.6529	106.647	4.76196
-39.6504	108.814	4.78149
-39.6509	116.259	4.80103
-39.6477	114.384	4.82056
-39.6468	112.515	4.84009
-39.6444	115.0797	4.85962
-39.643	118.016	4.87915
-39.6422	113.784	4.89868
-39.639	120.005	4.91821
-39.6378	120.633	4.93774
-39.6365	118.285	4.95728
-39.635	118.402	4.97681
-39.6335	125.642	4.99634
-39.6316	120	5.01587
-39.62986	123.1553	5.0354
-39.6291	129.24	5.05493
-39.6267	126.6097	5.07446
-39.6247	122.485	5.09399
-39.6235	131.449	5.11353
-39.6215	128.081	5.13306
-39.6203	128.2037	5.15259
-39.6188	134.499	5.17212
-39.6173	131.4185	5.19165
-39.6145	126.1	5.21118
-39.6143	135.6151	5.23071
-39.6127	136.45	5.25024
-39.61087	132.358	5.26978
-39.60902	135.1591	5.28931
-39.6072	137.153	5.30884
-39.6054	133.1048	5.32837
-39.6041	137.118	5.3479
-39.6022	142.308	5.36743
-39.60083	138.157	5.38696
-39.5997	140.689	5.40649
-39.598	142.291	5.42603
-39.5952	142.1382	5.44556
-39.5945	139.338	5.46509
-39.5921	148.475	5.48462
-39.5912	147.351	5.50415
-39.58968	145.543	5.52368
-39.5873	145.694	5.54321
-39.58596	152.15	5.56274
-39.5843	145.135	5.58228
-39.5832	151.794	5.60181
-39.5807	153.741	5.62134
-39.5805	149.996	5.64087
-39.5771	150.034	5.6604
-39.5756	159.1427	5.67993
-39.5757	152.615	5.69946
-39.5725	152.1577	5.71899
-39.5706	159.003	5.73853
-39.56868	160.3	5.75806
-39.5679	150.104	5.77759
-39.566	162.023	5.79712
-39.5655	159.376	5.81665
-39.5629	158.586	5.83618
-39.5621	164.019	5.85571
-39.5605	163.536	5.87524
-39.5581	157.036	5.89478
-39.5568	165.277	5.91431
-39.5547	168.523	5.93384
-39.5536	163.173	5.95337
-39.5519	164.831	5.9729
-39.5499	167.281	5.99243
-39.5481	166.927	6.01196
-39.5467	167.305	6.03149
-39.5448	173.887	6.05103
-39.5441	170.2272	6.07056
-39.5427	170.263	6.09009
-39.5413	172.189	6.10962
-39.5396	175.406	6.12915
-39.5373	169.718	6.14868
-39.5357	178.097	6.16821
-39.5339	178.592	6.18774
-39.53252	175.94	6.20728
-39.5317	173.959	6.22681
-39.5293	182.612	6.24634
-39.5269	177.041	6.26587
-39.5266	180.877	6.2854
-39.5254	185.916	6.30493
-39.5232	181.099	6.32446
-39.5207	178.324	6.34399
-39.52039	189.729	6.36353
-39.5182	184.945	6.38306
-39.5154	182.99	6.40259
-39.5145	188.807	6.42212
-39.5126	190.305	6.44165
-39.5106	183.5256	6.46118
-39.5097	189.799	6.48071
-39.5079	192.176	6.50024
-39.5062	187.5296	6.51978
-39.5047	193.833	6.53931
-39.5024	193.774	6.55884
-39.5018	189.064	6.57837
-39.5005	194.05	6.5979
-39.498	200.515	6.61743
-39.4969	196.264	6.63696
-39.4942	195.651	6.65649
-39.49382	197.5995	6.67603
-39.4921	199.404	6.69556
-39.4904	197.312	6.71509
-39.489	203.603	6.73462
-39.487	202.259	6.75415
-39.4855	200.164	6.77368
-39.4839	202.088	6.79321
-39.4823	208.046	6.81274
-39.4813	200.693	6.83228
-39.4783	206.866	6.85181
-39.4774	210.518	6.87134
-39.4752	206.525	6.89087
-39.4733	203.025	6.9104
-39.4712	213.087	6.92993
-39.4707	209	6.94946
-39.46899	209.468	6.96899
-39.4666	215.673	6.98853
-39.4649	212.615	7.00806
-39.4641	206.971	7.02759
-39.4625	218.434	7.04712
-39.461	217.025	7.06665
-39.4581	211.9906	7.08618
-39.457	218.026	7.10571
-39.4556	218.987	7.12524
-39.4544	215.038	7.14478
-39.4533	219.109	7.16431
-39.4503	224.177	7.18384
-39.4496	218.531	7.20337
-39.4469	222.886	7.2229
-39.4465	224.528	7.24243
-39.4452	221.836	7.26196
-39.4431	221.2117	7.28149
-39.4409	230.764	7.30103
-39.439	226.337	7.32056
-39.4367	226.217	7.34009
-39.4366	226.229	7.35962
-39.4348	230.795	7.37915
-39.4337	225.849	7.39868
-39.4322	232.198	7.41821
-39.4305	234.395	7.43774
-39.4282	228.831	7.45728
-39.4269	231.491	7.47681
-39.4259	238.976	7.49634
-39.4232	230.1924	7.51587
-39.4224	235.5098	7.5354
-39.4204	240.2332	7.55493
-39.419	236.111	7.57446
-39.4162	232.976	7.59399
-39.4152	242.6	7.61353
-39.4141	240.265	7.63306
-39.4113	238.304	7.65259
-39.41	243.569	7.67212
-39.4092	242.305	7.69165
-39.4073	236.6637	7.71118
-39.4058	245.892	7.73071
-39.4046	247.371	7.75024
-39.40239	242.4023	7.76978
-39.4012	246.125	7.78931
-39.399	248.762	7.80884
-39.3962	246.3291	7.82837
-39.3952	245.425	7.8479
-39.394	254.287	7.86743
-39.3917	248.523	7.88696
-39.3908	250.806	7.90649
-39.3891	251.749	7.92603
-39.3868	253.079	7.94556
-39.38591	248.238	7.96509
-39.3845	259.024	7.98462
-39.383	258.011	8.00415
-39.38092	252.543	8.02368
-39.37952	254.467	8.04321
-39.378	261.1983	8.06274
-39.3768	255.1133	8.08228
-39.37376	260.387	8.10181
-39.3727	263.822	8.12134
-39.3709	260.269	8.14087
-39.3684	257.387	8.1604
-39.3679	267.835	8.17993
-39.3665	260.878	8.19946
-39.365	261.476	8.21899
-39.3635	269.435	8.23853
-39.3613	267.055	8.25806
-39.3595	260.573	8.27759
-39.3579	270.622	8.29712
-39.3565	270.307	8.31665
-39.3548	266.228	8.33618
-39.3531	271.919	8.35571
-39.3529	272.675	8.37524
-39.3506	265.772	8.39478
-39.3483	272.799	8.41431
-39.3471	277.181	8.43384
-39.3461	269.699	8.45337
-39.3433	273.3631	8.4729
-39.3427	276.518	8.49243
-39.3408	275.938	8.51196
-39.3389	273.258	8.53149
-39.3383	283.062	8.55103
-39.3359	278.824	8.57056
-39.334	278.17	8.59009
-39.3318	280.963	8.60962
-39.3313	283.722	8.62915
-39.32996	277.946	8.64868
-39.3278	286.193	8.66821
-39.3259	287.311	8.68774
-39.3241	282.473	8.70728
-39.323	281.779	8.72681
-39.3211	291.24	8.74634
-39.3194	285.635	8.76587
-39.3178	287.39	8.7854
-39.3154	293.022	8.80493
-39.3144	286.0816	8.82446
-39.3133	285.055	8.84399
-39.3101	296.233	8.86353
-39.3098	291.761	8.88306
-39.3073	289.156	8.90259
-39.3062	296.3782	8.92212
-39.3047	294.412	8.94165
-39.3033	288.299	8.96118
-39.3008	296.201	8.98071
-39.3011	299.213	9.00024
-39.2976	295.181	9.01978
-39.2964	298.66	9.03931
-39.2947	297.749	9.05884
-39.2932	295.752	9.07837
-39.2917	298.282	9.0979
-39.2902	306.139	9.11743
-39.2889	301.039	9.13696
-39.28661	301.6265	9.15649
-39.2859	302.949	9.17603
-39.283	305.265	9.19556
-39.2826	301.326	9.21509
-39.2812	307.765	9.23462
-39.2777	308.627	9.25415
-39.2771	303.659	9.27368
-39.2741	306.831	9.29321
-39.2736	312.7392	9.31274
-39.2713	306.287	9.33228
-39.2701	311.407	9.35181
-39.2689	314.841	9.37134
-39.26783	310.293	9.39087
-39.2641	306.851	9.4104
-39.26405	318.275	9.42993
-39.2631	313.168	9.44946
-39.2609	314.209	9.46899
-39.2587	319.558	9.48853
-39.2569	313.586	9.50806
-39.2559	311.3967	9.52759
-39.2543	320.701	9.54712
-39.2529	320.981	9.56665
-39.2509	313.977	9.58618
-39.2486	321.996	9.60571
-39.24649	322.763	9.62524
-39.2463	318.266	9.64478
-39.2444	322.556	9.66431
-39.2429	325.936	9.68384
-39.241	322.007	9.70337
-39.2399	325.078	9.7229
-39.238	325.939	9.74243
-39.2374	325.798	9.76196
-39.2356	323.204	9.78149
-39.23317	332.575	9.80103
-39.2315	329.139	9.82056
-39.2298	326.339	9.84009
-39.228	329.432	9.85962
-39.2266	334.166	9.87915
-39.2251	326.901	9.89868
-39.2237	333.813	9.91821
-39.2222	335.525	9.93774
-39.2205	331.139	9.95728
-39.2169	331.031	9.97681
-39.2164	340.35	9.99634
-39.2151	331.411	10.0159
-39.2129	335.034	10.0354
-39.212	342.167	10.0549
-39.2105	335.334	10.0745
-39.20882	333.571	10.094
-39.2064	342.176	10.1135
-39.2056	340.749	10.1331
-39.20414	338.5491	10.1526
-39.2016	344.3642	10.1721
-39.2007	341.559	10.19165
-39.1992	338.024	10.2112
-39.1969	345.7236	10.2307
-39.1954	349.324	10.2502
-39.1937	341.639	10.2698
-39.19228	346.251	10.2893
-39.1907	349.323	10.3088
-39.1901	345.2623	10.3284
-39.1875	345.504	10.3479
-39.1862	353.799	10.3674
-39.184	350.282	10.387
-39.1829	350.139	10.4065
-39.1808	352.0726	10.426
-39.17873	351.8959	10.4456
-39.1775	346.859	10.4651
-39.1752	356.73	10.4846
-39.1745	355.586	10.50415
-39.1727	351.496	10.5237
-39.17202	351.387	10.5432
-39.1692	360.496	10.5627
-39.1683	352.886	10.5823
-39.1653	356.61	10.6018
-39.1649	361.473	10.6213
-39.1632	355.775	10.6409
-39.1611	354.643	10.6604
-39.16	365.359	10.6799
-39.15855	357.331	10.6995
-39.1561	358.493	10.719
-39.1539	365.951	10.7385
-39.1534	362.0401	10.7581
-39.15136	357.791	10.7776
-39.1505	365.449	10.7971
-39.14859	366.4751	10.81665
-39.1463	360.408	10.8362
-39.1459	367.891	10.8557
-39.1435	365.028	10.8752
-39.1413	362.515	10.8948
-39.13974	366.663	10.9143
-39.1379	373.933	10.9338
-39.1368	366.511	10.9534
-39.1354	368.296	10.9729
-39.1337	369.341	10.9924
-39.1311	371.529	11.012
-39.1301	369.03	11.0315
-39.1296	376.5177	11.051
-39.1264	374.379	11.0706
-39.1256	372.59	11.0901
-39.1233	373.7392	11.1096
-39.1234	377.615	11.12915
-39.1209	369.739	11.1487
-39.1186	378.399	11.1682
-39.1178	381.6384	11.1877
-39.1161	374.962	11.2073
-39.1148	374.169	11.2268
-39.1123	384.008	11.2463
-39.1104	377.309	11.2659
-39.1098	377.318	11.2854
-39.10833	384.163	11.3049
-39.10603	378.833	11.3245
-39.1048	377.357	11.344
-39.1031	385.692	11.3635
-39.1009	382.549	11.3831
-39.0998	380.112	11.4026
-39.0986	389.009	11.4221
-39.097	385.038	11.44165
-39.0951	381.795	11.4612
-39.0936	387.256	11.4807
-39.0911	389.895	11.5002
-39.09024	383.811	11.5198
-39.0891	390.624	11.5393
-39.0867	388.785	11.5588
-39.0851	386.648	11.5784
-39.0827	388.445	11.5979
-39.0813	396.216	11.6174
-39.07933	389.977	11.637
-39.0782	388.702	11.6565
-39.0766	392.639	11.676
-39.0753	392.6239	11.6956
-39.0732	388.426	11.7151
-39.0724	395.455	11.7346
-39.06992	395.005	11.75415
-39.0687	393.517	11.7737
-39.0664	394.994	11.7932
-39.0655	398.808	11.8127
-39.0644	390.691	11.8323
-39.0624	398.343	11.8518
-39.0588	402.326	11.8713
-39.0591	395.757	11.8909
-39.0568	393.375	11.9104
-39.0555	403.429	11.9299
-39.0546	399.213	11.9495
-39.052	397.859	11.969
-39.0502	404.346	11.9885
-39.0499	400.508	12.0081
-39.0479	397.197	12.0276
-39.0457	407.053	12.0471
-39.0442	405.159	12.06665
-39.0424	398.8	12.0862
-39.0411	406.908	12.1057
-39.0383	405.258	12.1252
-39.0382	401.158	12.1448
-39.0362	405.215	12.1643
-39.0341	409.718	12.1838
-39.0328	404.537	12.2034
-39.0313	407.625	12.2229
-39.0289	407.529	12.2424
-39.0273	406.681	12.262
-39.0266	406.549	12.2815
-39.0254	413.834	12.301
-39.0219	410.011	12.3206
-39.021	407.331	12.3401
-39.0204	407.819	12.3596
-39.018	413.544	12.37915
-39.0167	407.619	12.3987
-39.0158	413.3244	12.4182
-39.013	414.693	12.4377
-39.0123	409.021	12.4573
-39.0104	410.314	12.4768
-39.0096	417.541	12.4963
-39.0071	410.406	12.5159
-39.0051	412.802	12.5354
-39.004	419.419	12.5549
-39.0008	412.296	12.5745
-39.0006	409.909	12.594
-38.9988	419.573	12.6135
-38.9961	417.9183	12.6331
-38.9958	413.632	12.6526
-38.9945	420.522	12.6721
-38.9927	414.811	12.69165
-38.9905	413.924	12.7112
-38.9883	421.575	12.7307
-38.9887	423.469	12.7502
-38.9846	413.783	12.7698
-38.9846	419.421	12.7893
-38.9828	420.717	12.8088
-38.9803	418.136	12.8284
-38.97855	416.581	12.8479
-38.9777	424.273	12.8674
-38.9755	420.577	12.887
-38.973	421.3558	12.9065
-38.9729	423.361	12.926
-38.9715	423.775	12.9456
-38.9695	417.94	12.9651
-38.96772	427.28	12.9846
-38.9666	426.084	13.00415
-38.964	418.577	13.0237
-38.96291	420.443	13.0432
-38.961	429.2359	13.0627
-38.9598	421.8031	13.0823
-38.9581	426.475	13.1018
-38.9559	428.605	13.1213
-38.9551	423.442	13.1409
-38.9528	421.95	13.1604
-38.9522	430.398	13.1799
-38.9492	425.01	13.1995
-38.9474	422.763	13.219
-38.9471	430.995	13.2385
-38.946	424.872	13.2581
-38.9441	421.081	13.2776
-38.9409	430.57	13.2971
-38.9397	430.671	13.31665
-38.9387	424.908	13.3362
-38.9366	431.671	13.3557
-38.9354	428.876	13.3752
-38.93446	424.7532	13.3948
-38.9315	427.902	13.4143
-38.9306	433.661	13.4338
-38.92791	426.185	13.4534
-38.9269	429.294	13.4729
-38.9255	429.304	13.4924
-38.9237	429.392	13.512
-38.9225	425.321	13.5315
-38.9206	432.508	13.551
-38.9194	432.024	13.5706
-38.9182	429.013	13.5901
-38.916	429.3652	13.6096
-38.9151	432.947	13.62915
-38.9117	425.94	13.6487
-38.9104	433.058	13.6682
-38.9101	435.292	13.6877
-38.90699	427.07	13.7073
-38.9062	427.592	13.7268
-38.9043	435.454	13.7463
-38.9023	429.994	13.7659
-38.9009	429.816	13.7854
-38.8998	434.738	13.8049
-38.898	429.409	13.8245
-38.8964	428.0943	13.844
-38.89632	437.231	13.8635
-38.8928	433.691	13.8831
-38.891	426.695	13.9026
-38.89003	435.814	13.9221
-38.8887	429.9014	13.94165
-38.8861	428.657	13.9612
-38.8845	433.562	13.9807
-38.8841	437.725	14.0002
-38.8804	432.256	14.0198
-38.8797	433.165	14.0393
-38.8772	432.209	14.0588
-38.8767	430.837	14.0784
-38.8749	431.369	14.0979
-38.87365	439.461	14.1174
-38.8725	432.309	14.137
-38.8702	431.386	14.1565
-38.8683	433.867	14.176
-38.868	436.195	14.1956
-38.8644	430.595	14.2151
-38.8641	436.632	14.2346
-38.8616	435.806	14.25415
-38.861	430.728	14.2737
-38.858	431.821	14.2932
-38.85577	438.476	14.3127
-38.8554	430.1427	14.3323
-38.8541	433.797	14.3518
-38.8519	439.039	14.3713
-38.8513	429.191	14.3909
-38.8479	429.323	14.4104
-38.8475	438.169	14.4299
-38.8447	432.06	14.4495
-38.8436	430.005	14.469
-38.8426	436.766	14.4885
-38.8392	430.379	14.5081
-38.8391	428.898	14.5276
-38.8375	434.8743	14.5471
-38.8358	435.8161	14.56665
-38.8335	429.152	14.5862
-38.8329	436.31	14.6057
-38.8307	434.183	14.6252
-38.8292	431.583	14.6448
-38.8285	431.3577	14.6643
-38.826	436.75	14.6838
-38.8246	430.814	14.7034
-38.8235	434.042	14.7229
-38.8203	433.207	14.7424
-38.8206	432.726	14.762
-38.8177	428.167	14.7815
-38.81543	437.943	14.801
-38.8133	433.961	14.8206
-38.8128	429.654	14.8401
-38.8111	432.591	14.8596
-38.8115	436.274	14.87915
-38.8081	428.523	14.8987
-38.8064	433.258	14.9182
-38.8047	433.977	14.9377
-38.8037	429.486	14.9573
-38.8011	430.2446	14.9768
-38.7993	435.8197	14.9963
-38.7994	428.538	15.0159
-38.7961	430.667	15.0354
-38.7953	437.477	15.0549
-38.7934	429.025	15.0745
-38.7928	426.37	15.094
-38.7909	433.927	15.1135
-38.7883	432.242	15.1331
-38.7872	427.302	15.1526
-38.7845	434.529	15.1721
-38.7841	429.117	15.19165
-38.7816	426.963	15.2112
-38.7804	431.444	15.2307
-38.7787	434.053	15.2502
-38.7785	427.191	15.2698
-38.7757	432.813	15.2893
-38.7733	433.553	15.3088
-38.7716	429.881	15.3284
-38.7692	427.086	15.3479
-38.769	433.455	15.3674
-38.769	430.191	15.387
-38.7655	427.751	15.4065
-38.7641	430.344	15.426
-38.7629	430.287	15.4456
-38.7602	425.461	15.4651
-38.7611	432.697	15.4846
-38.7584	431.81	15.50415
-38.7565	424.809	15.5237
-38.7534	427.0369	15.5432
-38.753	432.413	15.5627
-38.7506	425.476	15.5823
-38.7487	428.208	15.6018
-38.7486	431.6297	15.6213
-38.7464	424.051	15.6409
-38.7439	424.387	15.6604
-38.7426	430.85	15.6799
-38.741	425.267	15.6995
-38.7407	423.971	15.719
-38.7376	432.565	15.7385
-38.7372	423.834	15.7581
-38.7347	422.554	15.7776
-38.7337	428.079	15.7971
-38.7322	428.137	15.81665
-38.7309	423.597	15.8362
-38.7281	430.867	15.8557
-38.7275	424.275	15.8752
-38.7257	423.071	15.8948
-38.7239	426.9212	15.9143
-38.7224	431.267	15.9338
-38.7187	421.862	15.9534
-38.7183	424.595	15.9729
-38.7171	427.421	15.9924
-38.7152	425.549	16.012
-38.7146	420.471	16.0315
-38.712	430.101	16.051
-38.70882	425.418	16.0706
-38.709	423.532	16.0901
-38.7078	425.492	16.1096
-38.7056	428.072	16.12915
-38.7033	420.623	16.1487
-38.7032	427.234	16.1682
-38.701	427.155	16.1877
-38.69939	418.75	16.2073
-38.6973	420.445	16.2268
-38.6958	427.934	16.2463
-38.6944	422.399	16.2659
-38.6931	421.471	16.2854
-38.6919	426.905	16.3049
-38.6896	420.993	16.3245
-38.6884	419.2543	16.344
-38.6852	426.975	16.3635
-38.6832	423.643	16.3831
-38.6843	418.485	16.4026
-38.68153	428.194	16.4221
-38.6793	422.448	16.44165
-38.678	419.416	16.4612
-38.6761	422.493	16.4807
-38.67458	427.382	16.5002
-38.6724	420.266	16.5198
-38.671	424.238	16.5393
-38.6699	421.0856	16.5588
-38.6672	421.783	16.5784
-38.6661	421.3291	16.5979
-38.664	428.701	16.6174
-38.66383	421.276	16.637
-38.6617	419.6673	16.6565
-38.6605	423.367	16.676
-38.6581	423.088	16.6956
-38.6566	418.39	16.7151
-38.655	423.743	16.7346
-38.6545	424.651	16.75415
-38.6528	418.384	16.7737
-38.6501	421.413	16.7932
-38.6487	425.115	16.8127
-38.6461	417.866	16.8323
-38.6454	421.2767	16.8518
-38.6436	426.003	16.8713
-38.6435	416.953	16.8909
-38.6398	417.097	16.9104
-38.6394	425.045	16.9299
-38.6383	419.285	16.9495
-38.6352	418.02	16.969
-38.63414	425.111	16.9885
-38.6334	417.334	17.0081
-38.63158	416.006	17.0276
-38.6289	422.839	17.0471
-38.6269	421.237	17.06665
-38.6266	415.342	17.0862
-38.6241	421.674	17.1057
-38.6214	421.675	17.1252
-38.621	418.111	17.1448
-38.6184	416.52	17.1643
-38.6185	424.717	17.1838
-38.6167	416.578	17.2034
-38.61504	419.611	17.2229
-38.6124	418.507	17.2424
-38.6118	418.2066	17.262
-38.6099	415.928	17.2815
-38.6092	423.586	17.301
-38.6065	419.536	17.3206
-38.6047	414.37	17.3401
-38.6032	418.644	17.3596
-38.6018	422.071	17.37915
-38.6003	416.598	17.3987
-38.5975	420.082	17.4182
-38.5957	420.423	17.4377
-38.59539	413.123	17.4573
-38.5937	415.541	17.4768
-38.592	420.0274	17.4963
-38.5898	415.421	17.5159
-38.5878	414.283	17.5354
-38.5878	422.92	17.5549
-38.5852	412.855	17.5745
-38.5832	414.525	17.594
-38.58218	420.076	17.6135
-38.57938	419.3	17.6331
-38.5783	413.606	17.6526
-38.57655	420.51	17.6721
-38.5768	414.919	17.69165
-38.5733	414.957	17.7112
-38.5725	419.389	17.7307
-38.5697	420.604	17.7502
-38.5686	413.792	17.7698
-38.5675	417.487	17.7893
-38.5665	417.0817	17.8088
-38.5646	414.901	17.8284
-38.5634	413.186	17.8479
-38.5595	423.082	17.8674
-38.5589	415.908	17.887
-38.5577	415.297	17.9065
-38.5572	417.351	17.926
-38.554	416.579	17.9456
-38.5532	411.74	17.9651
-38.5498	420.555	17.9846
-38.5499	420.1181	18.00415
-38.5482	410.4931	18.0237
-38.5457	413.643	18.0432
-38.5446	421.625	18.0627
-38.5426	413.845	18.0823
-38.54118	414.821	18.1018
-38.5398	419.257	18.1213
-38.5375	411.776	18.1409
-38.5352	414.078	18.1604
-38.53368	419.621	18.1799
-38.5326	414.285	18.1995
-38.5322	412.385	18.219
-38.53	423.1636	18.2385
-38.5284	414.1051	18.2581
-38.52626	411.602	18.2776
-38.5248	416.625	18.2971
-38.5232	418.635	18.31665
-38.5218	413.534	18.3362
-38.51963	417.876	18.3557
-38.5195	413.403	18.3752
-38.5161	413.346	18.3948
-38.5147	414.943	18.4143
-38.51432	420.55	18.4338
-38.51231	411.649	18.4534
-38.5114	413.741	18.4729
-38.5087	415.783	18.4924
-38.5073	414.64	18.512
-38.5057	410.752	18.5315
-38.5049	418.526	18.551
-38.5005	415.3381	18.5706
-38.4997	410.78	18.5901
-38.4987	415.536	18.6096
-38.4979	416.347	18.62915
-38.49567	410.874	18.6487
-38.4932	416.597	18.6682
-38.49305	418.938	18.6877
-38.4907	410.27	18.7073
-38.48864	410.6282	18.7268
-38.4878	418.0524	18.7463
-38.4862	412.931	18.7659
-38.484	412.774	18.7854
-38.4831	418.591	18.8049
-38.4812	412.2222	18.8245
-38.4792	413.135	18.844
-38.4791	416.724	18.8635
-38.4763	414.719	18.8831
-38.4746	411.84	18.9026
-38.4728	419.089	18.9221
-38.4712	413.022	18.94165
-38.4698	411.609	18.9612
-38.4675	412.588	18.9807
-38.4663	417.534	19.0002
-38.4648	412.265	19.0198
-38.4638	415.142	19.0393
-38.4622	413.62	19.0588
-38.4608	412.6897	19.0784
-38.4587	412.647	19.0979
-38.4563	418.832	19.1174
-38.4562	413.704	19.137
-38.4541	412.046	19.1565
-38.4517	413.432	19.176
-38.4501	415.482	19.1956
-38.4486	409.6066	19.2151
-38.4478	414.257	19.2346
-38.4456	415.039	19.25415
-38.4432	409.132	19.2737
-38.4415	411.72	19.2932
-38.4395	416.444	19.3127
-38.4389	411.579	19.3323
-38.4365	412.804	19.3518
-38.4346	418.288	19.3713
-38.4343	408.72	19.3909
-38.4322	410.129	19.4104
-38.4299	416.667	19.4299
-38.4288	412.92	19.4495
-38.4268	411.042	19.469
-38.4276	417.087	19.4885
-38.4245	409.993	19.5081
-38.423	409.958	19.5276
-38.4212	415.967	19.5471
-38.4206	415.707	19.56665
-38.4169	408.191	19.5862
-38.4166	416.328	19.6057
-38.4144	411.715	19.6252
-38.4127	411.655	19.6448
-38.4118	413.174	19.6643
-38.4107	417.44	19.6838
-38.40752	410.804	19.7034
-38.4057	412.6911	19.7229
-38.4045	413.915	19.7424
-38.4033	412.72	19.762
-38.4014	410.641	19.7815
-38.3989	417.805	19.801
-38.398	413.159	19.8206
-38.3965	407.99	19.8401
-38.3962	413.394	19.8596
-38.393	415.614	19.87915
-38.3915	408.586	19.8987
-38.3901	413.597	19.9182
-38.38937	416.798	19.9377
-38.3872	408.309	19.9573
-38.385	411.079	19.9768
-38.3835	415.139	19.9963
-38.3814	410.297	20.0159
-38.3812	407.357	20.0256

Data Header:			0.254_hd_uprint_typeiv_090_r0			Time:	34.4746	s	4/13/2019 11:19:18 PM
Data Acquisition:	Timed
Station Name:	ft40.cfg
Test File Name:	monotonic_0.2540_typeiv_solid_4545_uprint.tst
Displacement	Force	Running Time
mm	N	s
-38.38055	410.168	20.0354
-38.379	414.949	20.0452
-38.3784	419.52	20.0549
-38.3777	412.764	20.0647
-38.3759	408.437	20.0745
-38.3758	410.1416	20.0842
-38.3757	409.495	20.094
-38.3747	414.046	20.10376
-38.37495	416.005	20.1135
-38.3728	415.145	20.1233
-38.3725	414.214	20.1331
-38.3709	408.12	20.1428
-38.3705	409.021	20.1526
-38.369	412.4902	20.1624
-38.3691	415.659	20.1721
-38.3672	416.93	20.1819
-38.3672	409.826	20.19165
-38.3656	410.278	20.2014
-38.3664	410.608	20.2112
-38.3644	411.521	20.2209
-38.364	412.392	20.2307
-38.3627	414.345	20.2405
-38.3612	415.267	20.2502
-38.3622	410.617	20.26001
-38.3617	408.712	20.2698
-38.3605	408.73	20.2795
-38.3597	413.132	20.2893
-38.3579	414.044	20.2991
-38.3565	413.8107	20.3088
-38.3568	410.61	20.3186
-38.3544	410.645	20.3284
-38.3548	409.456	20.3381
-38.35339	410.098	20.3479
-38.3531	412.549	20.3577
-38.353	416.959	20.3674
-38.352	416.286	20.3772
-38.3513	412.762	20.387
-38.3505	408.228	20.3967
-38.3475	409.892	20.4065
-38.3482	413.413	20.41626
-38.3469	412.245	20.426
-38.3474	413.818	20.4358
-38.3459	412.285	20.4456
-38.3453	410.329	20.4553
-38.3444	409.387	20.4651
-38.3443	407.129	20.4749
-38.342	415.447	20.4846
-38.3422	416.311	20.4944
-38.34087	414.334	20.50415
-38.3397	408.2861	20.5139
-38.3389	406.528	20.5237
-38.3397	411.649	20.5334
-38.3367	411.501	20.5432
-38.3361	415.828	20.553
-38.3362	414.953	20.5627
-38.3352	410.869	20.57251
-38.33511	407.642	20.5823
-38.3331	405.852	20.592
-38.3337	410.672	20.6018
-38.3328	417.848	20.6116
-38.3314	416.512	20.6213
-38.3312	410.387	20.6311
-38.3289	406.403	20.6409
-38.3289	408.521	20.6506
-38.3275	410.496	20.6604
-38.327	412.99	20.6702
-38.32692	415.279	20.6799
-38.3258	413.868	20.6897
-38.3242	409.054	20.6995
-38.324	406.616	20.7092
-38.3234	408.534	20.719
-38.3224	413.512	20.72876
-38.32172	416.956	20.7385
-38.3214	413.67	20.7483
-38.3208	409.417	20.7581
-38.3191	408.711	20.7678
-38.3178	409.103	20.7776
-38.317	413.378	20.7874
-38.3171	413.346	20.7971
-38.316	414.722	20.8069
-38.3149	415.35	20.81665
-38.315	406.936	20.8264
-38.3142	409.331	20.8362
-38.312	410.11	20.8459
-38.3124	414.938	20.8557
-38.3113	415.971	20.8655
-38.3089	411.021	20.8752
-38.3084	409.916	20.88501
-38.31012	409.509	20.8948
-38.3086	408.423	20.9045
-38.3067	409.507	20.9143
-38.3074	411.164	20.9241
-38.3055	417.806	20.9338
-38.3051	411.637	20.9436
-38.3034	410.6947	20.9534
-38.30331	408.868	20.9631
-38.3017	409.986	20.9729
-38.302	414.388	20.9827
-38.3	412.927	20.9924
-38.2993	412.963	21.0022
-38.2977	413.232	21.012
-38.2973	409.6767	21.0217
-38.29731	407.222	21.0315
-38.2967	410.206	21.04126
-38.2952	414.704	21.051
-38.2937	416	21.0608
-38.2932	413.063	21.0706
-38.293	406.383	21.0803
-38.2925	407.9772	21.0901
-38.29187	411.073	21.0999
-38.2903	411.58	21.1096
-38.291	415.4	21.1194
-38.2895	413.748	21.12915
-38.2876	410.613	21.1389
-38.2869	408.757	21.1487
-38.2868	406.371	21.1584
-38.28614	413.295	21.1682
-38.2846	415.119	21.178
-38.28463	416.034	21.1877
-38.2838	409.778	21.19751
-38.2831	404.3526	21.2073
-38.2813	409.406	21.217
-38.2802	409.673	21.2268
-38.2803	414.481	21.2366
-38.2794	416.28	21.2463
-38.2775	412.706	21.2561
-38.2781	410.692	21.2659
-38.276	405.271	21.2756
-38.2764	408.756	21.2854
-38.2765	415.206	21.2952
-38.2749	414.757	21.3049
-38.2746	413.544	21.3147
-38.2722	405.92	21.3245
-38.2726	407.1835	21.3342
-38.2704	408.9931	21.344
-38.2709	413.216	21.35376
-38.2688	414.286	21.3635
-38.2684	415.727	21.3733
-38.2679	411.794	21.3831
-38.26828	406.6308	21.3928
-38.2661	405.994	21.4026
-38.266	410.574	21.4124
-38.2644	416.178	21.4221
-38.2641	414.2023	21.4319
-38.2634	410.349	21.44165
-38.2626	407.515	21.4514
-38.2617	408.001	21.4612
-38.2611	410.52	21.4709
-38.2604	410.573	21.4807
-38.259	413.464	21.4905
-38.2575	414.68	21.5002
-38.2572	407.478	21.51001
-38.2565	407.859	21.5198
-38.25491	409.029	21.5295
-38.2544	411.02	21.5393
-38.2548	414.56	21.5491
-38.2528	410.949	21.5588
-38.253	411.93	21.5686
-38.25172	410.115	21.5784
-38.25153	407.991	21.5881
-38.2497	409.374	21.5979
-38.2508	408.675	21.6077
-38.2482	414.977	21.6174
-38.2476	413.333	21.6272
-38.2461	409.694	21.637
-38.2455	406.608	21.6467
-38.2451	406.32	21.6565
-38.2448	411.443	21.66626
-38.2433	412.011	21.676
-38.2424	412.849	21.6858
-38.242	412.49	21.6956
-38.2408	409.354	21.7053
-38.2399	408.254	21.7151
-38.2392	406.389	21.7249
-38.2379	413.04	21.7346
-38.2378	416.309	21.7444
-38.2372	412.798	21.75415
-38.2357	406.6926	21.7639
-38.23468	405.704	21.7737
-38.2348	409.67	21.7834
-38.2339	410.79	21.7932
-38.2335	415.515	21.803
-38.2317	412.22	21.8127
-38.2317	411.787	21.82251
-38.2307	408.58	21.8323
-38.2284	403.942	21.842
-38.22924	409.9502	21.8518
-38.228	414.775	21.8616
-38.227	416.445	21.8713
-38.2268	410.159	21.8811
-38.2257	405.213	21.8909
-38.2246	406.826	21.9006
-38.2246	408.71	21.9104
-38.2235	415.395	21.9202
-38.2216	414.029	21.9299
-38.2224	412.238	21.9397
-38.221	412.811	21.9495
-38.219	404.617	21.9592
-38.2186	408.627	21.969
-38.2183	412.178	21.97876
-38.2179	413.382	21.9885
-38.2166	413.921	21.9983
-38.2159	407.043	22.0081
-38.2154	405.427	22.0178
-38.2134	409.08	22.0276
-38.213	409.136	22.0374
-38.21191	411.167	22.0471
-38.21151	412.594	22.0569
-38.2111	412.071	22.06665
-38.2092	406.405	22.0764
-38.2079	406.919	22.0862
-38.2081	409.163	22.0959
-38.2085	411.2	22.1057
-38.2076	412.188	22.1155
-38.2059	410.428	22.1252
-38.2048	408.344	22.13501
-38.204	409.618	22.1448
-38.2044	410.146	22.1545
-38.2023	407.63	22.1643
-38.2009	409.999	22.1741
-38.2011	413.623	22.1838
-38.201	411.502	22.1936
-38.1991	409.102	22.2034
-38.198	403.892	22.2131
-38.1978	409.3949	22.2229
-38.1972	412.799	22.2327
-38.1958	410.485	22.2424
-38.1961	412.563	22.2522
-38.19458	408.442	22.262
-38.1936	406.834	22.2717
-38.1925	406.912	22.2815
-38.19249	406.645	22.29126
-38.1912	413.388	22.301
-38.1913	413.3931	22.3108
-38.19006	410.591	22.3206
-38.1883	407.625	22.3303
-38.18784	405.849	22.3401
-38.1872	411.234	22.3499
-38.1869	412.365	22.3596
-38.1865	415.137	22.3694
-38.184	411.596	22.37915
-38.1831	407.9231	22.3889
-38.1843	406.113	22.3987
-38.1822	403.369	22.4084
-38.18169	409.939	22.4182
-38.1805	414.853	22.428
-38.18071	412.968	22.4377
-38.1795	407.303	22.44751
-38.1787	404.652	22.4573
-38.1771	406.877	22.467
-38.1762	410.016	22.4768
-38.1759	412.892	22.4866
-38.1749	412.482	22.4963
-38.1737	412.38	22.5061
-38.1741	407.0545	22.5159
-38.173	403.0723	22.5256
-38.1717	408.368	22.5354
-38.1713	413.091	22.5452
-38.1711	416.858	22.5549
-38.1698	410.8873	22.5647
-38.169	406.028	22.5745
-38.1674	406.46	22.5842
-38.1667	405.581	22.594
-38.1657	412.415	22.60376
-38.1659	412.068	22.6135
-38.1641	412.469	22.6233
-38.1637	411.023	22.6331
-38.1623	403.875	22.6428
-38.16235	406.8909	22.6526
-38.1609	408.3136	22.6624
-38.15966	413.34	22.6721
-38.1602	413.98	22.6819
-38.1592	407.026	22.69165
-38.159	409.053	22.7014
-38.1564	408.961	22.7112
-38.1558	408.732	22.7209
-38.1557	409.818	22.7307
-38.1543	409.914	22.7405
-38.1541	411.506	22.7502
-38.1526	408.315	22.76001
-38.1519	406.105	22.7698
-38.1519	406.01	22.7795
-38.1512	408.741	22.7893
-38.14938	411.515	22.7991
-38.15	410.244	22.8088
-38.1484	409.047	22.8186
-38.1476	408.388	22.8284
-38.146	407.211	22.8381
-38.1463	407.186	22.8479
-38.1451	409.974	22.8577
-38.1447	414.633	22.8674
-38.14378	412.166	22.8772
-38.1428	410.118	22.887
-38.1412	404.718	22.8967
-38.1412	408.252	22.9065
-38.1405	411.496	22.91626
-38.1391	409.524	22.926
-38.1384	414.251	22.9358
-38.1373	409.226	22.9456
-38.1369	408.433	22.9553
-38.1358	407.013	22.9651
-38.1345	405.948	22.9749
-38.1339	412.045	22.9846
-38.1342	414.208	22.9944
-38.1327	414.139	23.00415
-38.1331	407.629	23.0139
-38.1317	403.454	23.0237
-38.131	407.1669	23.0334
-38.1293	409.294	23.0432
-38.1287	413.5831	23.053
-38.1281	412.592	23.0627
-38.1276	410.68	23.07251
-38.1265	406.97	23.0823
-38.1248	403.005	23.092
-38.1253	407.736	23.1018
-38.1243	415.5683	23.1116
-38.12291	414.542	23.1213
-38.1223	409.61	23.1311
-38.1213	404.237	23.1409
-38.1197	406.829	23.1506
-38.1196	408.5773	23.1604
-38.1199	411.016	23.1702
-38.1186	414.806	23.1799
-38.1176	410.534	23.1897
-38.1163	408.541	23.1995
-38.1168	403.713	23.2092
-38.1152	407.368	23.219
-38.1143	409.785	23.22876
-38.1133	415.858	23.2385
-38.112	412.525	23.2483
-38.1124	407.026	23.2581
-38.1112	405.647	23.2678
-38.1106	407.26	23.2776
-38.1087	409.744	23.2874
-38.1085	410.575	23.2971
-38.1077	410.529	23.3069
-38.10667	412.481	23.31665
-38.1049	405.241	23.3264
-38.1042	405.604	23.3362
-38.10331	407.702	23.3459
-38.1033	412.081	23.3557
-38.1029	411.808	23.3655
-38.1019	408.616	23.3752
-38.1008	407.699	23.38501
-38.1	406.604	23.3948
-38.0988	405.7948	23.4045
-38.0982	409.066	23.4143
-38.098	408.3916	23.4241
-38.0981	412.398	23.4338
-38.095	411.29	23.4436
-38.0957	406.802	23.4534
-38.0938	404.842	23.4631
-38.0933	406.398	23.4729
-38.0938	410.817	23.4827
-38.0923	411.598	23.4924
-38.0914	409.02	23.5022
-38.0901	409.471	23.512
-38.09013	405.696	23.5217
-38.08884	404.709	23.5315
-38.088	406.947	23.54126
-38.087	411.4429	23.551
-38.0866	413.411	23.5608
-38.0859	410.9957	23.5706
-38.0842	404.766	23.5803
-38.0826	407.383	23.5901
-38.0834	408.232	23.5999
-38.0813	408.678	23.6096
-38.0819	413.757	23.6194
-38.0808	410.096	23.62915
-38.0808	408.619	23.6389
-38.0783	406.048	23.6487
-38.0784	404.0455	23.6584
-38.077	410.961	23.6682
-38.077	413.205	23.678
-38.0755	412.353	23.6877
-38.0753	406.758	23.69751
-38.0744	402.735	23.7073
-38.0738	407.474	23.717
-38.0726	408.423	23.7268
-38.0722	413.416	23.7366
-38.0705	411.735	23.7463
-38.07066	408.794	23.7561
-38.0688	408.305	23.7659
-38.06789	402.422	23.7756
-38.0678	407.422	23.7854
-38.0668	411.948	23.7952
-38.0663	413.356	23.8049
-38.06493	411.437	23.8147
-38.0645	405.484	23.8245
-38.0632	404.6701	23.8342
-38.0621	408.331	23.844
-38.0619	410.4216	23.85376
-38.06142	411.424	23.8635
-38.0608	412.26	23.8733
-38.0586	408.28	23.8831
-38.0589	404.819	23.8928
-38.0567	404.685	23.9026
-38.0572	408.984	23.9124
-38.056	413.036	23.9221
-38.0552	411.288	23.9319
-38.054	407.189	23.94165
-38.054	406.079	23.9514
-38.0528	406.915	23.9612
-38.05209	408.546	23.9709
-38.0519	408.755	23.9807
-38.0515	411.34	23.9905
-38.0492	411.39	24.0002
-38.0487	407.009	24.01001
-38.0474	408.179	24.0198
-38.0467	405.74	24.0295
-38.0458	408.203	24.0393
-38.0449	413.933	24.0491
-38.0437	408.248	24.0588
-38.0434	410.89	24.0686
-38.0425	406.371	24.0784
-38.0434	405.268	24.0881
-38.0417	406.322	24.0979
-38.0409	406.915	24.1077
-38.0392	413.155	24.1174
-38.0394	410.026	24.1272
-38.0386	408.531	24.137
-38.038	404.874	24.1467
-38.0365	405.694	24.1565
-38.0354	410.458	24.16626
-38.0357	410.787	24.176
-38.0344	410.351	24.1858
-38.0326	409.993	24.1956
-38.0326	405.996	24.2053
-38.0307	404.118	24.2151
-38.0304	404.606	24.2249
-38.0303	409.951	24.2346
-38.0287	413.1124	24.2444
-38.0289	413.0701	24.25415
-38.0268	404.653	24.2639
-38.0273	403.782	24.2737
-38.0263	405.582	24.2834
-38.0253	411.82	24.2932
-38.0242	414.073	24.303
-38.024	410.66	24.3127
-38.0223	409.685	24.32251
-38.022	406.054	24.3323
-38.02137	401.891	24.342
-38.0199	409.612	24.3518
-38.0197	411.887	24.3616
-38.0184	414.5517	24.3713
-38.0183	408.6528	24.3811
-38.0177	404.2858	24.3909
-38.0171	405.168	24.4006
-38.0161	406.947	24.4104
-38.0151	412.143	24.4202
-38.0133	412.58	24.4299
-38.013	411.046	24.4397
-38.012	408.982	24.4495
-38.0114	402.206	24.4592
-38.0108	406.729	24.469
-38.0099	409.716	24.47876
-38.0091	412.509	24.4885
-38.008	413.133	24.4983
-38.01	404.189	24.5081
-38.0058	404.615	24.5178
-38.0064	405.49	24.5276
-38.0051	406.861	24.5374
-38.0036	410.966	24.5471
-38.00404	410.23	24.5569
-38.0031	410.684	24.56665
-38.0025	406.474	24.5764
-38.0009	405.932	24.5862
-37.9998	406.987	24.5959
-37.9986	412.352	24.6057
-37.9994	412.089	24.6155
-37.99826	407.378	24.6252
-37.9967	405.874	24.63501
-37.9953	406.602	24.6448
-37.9944	407.055	24.6545
-37.995	407.142	24.6643
-37.9935	409.633	24.6741
-37.9919	412.9248	24.6838
-37.99136	407.911	24.6936
-37.992	407.151	24.7034
-37.9898	403.234	24.7131
-37.9887	407.095	24.7229
-37.9886	410.312	24.7327
-37.9877	407.5217	24.7424
-37.9876	411.761	24.7522
-37.9873	407.8	24.762
-37.9855	405.754	24.7717
-37.9839	405.586	24.7815
-37.9834	404.709	24.79126
-37.9838	411.723	24.801
-37.982	412.604	24.8108
-37.9815	409.807	24.8206
-37.9809	404.565	24.8303
-37.9795	403.216	24.8401
-37.9797	408.261	24.8499
-37.9783	409.3949	24.8596
-37.9771	409.395	24.8694
-37.9758	410.1	24.87915
-37.9755	406.104	24.8889
-37.9754	406.4144	24.8987
-37.9755	403.344	24.9084
-37.9729	407.269	24.9182
-37.973	412.784	24.928
-37.9717	411.842	24.9377
-37.9697	406.966	24.94751
-37.9706	402.076	24.9573
-37.9689	404.667	24.967
-37.9689	408.113	24.9768
-37.9676	409.889	24.9866
-37.9687	410.931	24.9963
-37.96645	411.051	25.0061
-37.9668	405.235	25.0159
-37.9635	401.589	25.0256
-37.9642	406.842	25.0354
-37.9629	408.877	25.0452
-37.9618	413.442	25.0549
-37.96067	409.539	25.0647
-37.96067	402.9635	25.0745
-37.9589	404.5488	25.0842
-37.9584	404.962	25.094
-37.9583	409.444	25.10376
-37.9568	409.295	25.1135
-37.9557	409.28	25.1233
-37.9564	407.6608	25.1331
-37.9547	401.576	25.1428
-37.9539	406.681	25.1526
-37.9526	407.3555	25.1624
-37.952	410.184	25.1721
-37.9509	411.652	25.1819
-37.9513	404.922	25.19165
-37.9499	405.277	25.2014
-37.94907	406.19	25.2112
-37.9488	405.107	25.2209
-37.9472	408.081	25.2307
-37.9473	407.253	25.2405
-37.9449	411.112	25.2502
-37.9456	406.3931	25.26001
-37.9443	403.763	25.2698
-37.9419	402.84	25.2795
-37.9422	407.727	25.2893
-37.9404	411.539	25.2991
-37.9398	408.536	25.3088
-37.9397	407.491	25.3186
-37.9384	407.253	25.3284
-37.9385	406.071	25.3381
-37.9382	403.503	25.3479
-37.9361	407.681	25.3577
-37.9355	408.804	25.3674
-37.9349	409.804	25.3772
-37.93512	408.923	25.387
-37.9337	401.4151	25.3967
[...]
-37.8198	403.763	26.7639
-37.8191	400.824	26.7737
-37.8186	403.552	26.7834
-37.8171	407.4285	26.7932
-37.8169	409.457	26.803
-37.8145	406.523	26.8127
-37.8152	406.348	26.82251
-37.8145	402.027	26.8323
-37.8132	400.673	26.842
-37.81152	407.774	26.8518
-37.8113	408.945	26.8616
-37.8102	410.553	26.8713
-37.8093	405.9715	26.8811
-37.8085	398.552	26.8909
-37.809	402.823	26.9006
-37.8073	405.465	26.9104
-37.8058	408.907	26.9202
-37.8052	408.198	26.9299
-37.8039	408.173	26.9397
-37.8041	406.589	26.9495
-37.8031	398.786	26.9592
-37.8025	404.1778	26.969
-37.8016	407.426	26.97876
-37.8015	408.916	26.9885
-37.8003	409.88	26.9983
-37.7993	403.203	27.0081
-37.7986	400.676	27.0178
-37.7972	403.988	27.0276
-37.7961	404.403	27.0374
-37.7954	407.981	27.0471
-37.7957	405.884	27.0569
-37.7943	408.866	27.06665
-37.793	403.113	27.0764
-37.7942	401.773	27.0862
-37.7919	403.668	27.0959
-37.791	408.211	27.1057
-37.79081	408.051	27.1155
-37.7896	405.893	27.1252
-37.788	404.862	27.13501
-37.7881	402.793	27.1448
-37.7858	403.67	27.1545
-37.7859	404.487	27.1643
-37.7859	406.804	27.1741
-37.784	408.186	27.1838
-37.7833	405.942	27.1936
-37.783	403.019	27.2034
-37.7819	398.895	27.2131
-37.77985	404.472	27.2229
-37.7808	409.041	27.2327
-37.7799	406.65	27.2424
-37.7792	409.156	27.2522
-37.779	405.033	27.262
-37.7769	402.475	27.2717
-37.7765	402.462	27.2815
-37.7757	402.465	27.29126
-37.7755	408.493	27.301
-37.7741	411.302	27.3108
-37.7723	407.429	27.3206
-37.7724	403.011	27.3303
-37.7718	397.9343	27.3401
-37.7704	406.295	27.3499
-37.76963	405.518	27.3596
-37.7682	409.6	27.3694
-37.7677	410.105	27.37915
-37.7665	403.623	27.3889
-37.76685	401.263	27.3987
-37.7655	399.682	27.4084
-37.7652	404.438	27.4182
-37.7641	412.44	27.428
-37.76276	410.476	27.4377
-37.7627	404.646	27.44751
-37.7618	399.037	27.4573
-37.7613	400.895	27.467
-37.76	406.157	27.4768
-37.7589	408.843	27.4866
-37.7588	406.989	27.4963
-37.757	407.144	27.5061
-37.7571	403.254	27.5159
-37.7566	399.349	27.5256
-37.7561	403.841	27.5354
-37.754	407.094	27.5452
-37.75322	412.018	27.5549
-37.75243	407.414	27.5647
-37.7527	400.168	27.5745
-37.7512	400.8078	27.5842
-37.7508	402.0401	27.594
-37.7495	405.974	27.60376
-37.7484	408.04	27.6135
-37.7475	407.292	27.6233
-37.7465	404.74	27.6331
-37.7466	399.974	27.6428
-37.7462	401.7829	27.6526
-37.7453	405.061	27.6624
-37.74519	407.443	27.6721
-37.7431	409.502	27.6819
-37.74218	402.021	27.69165
-37.7412	403.372	27.7014
-37.74057	402.2243	27.7112
-37.74	403.353	27.7209
-37.7391	405.953	27.7307
-37.7377	404.632	27.7405
-37.7381	407.82	27.7502
-37.7372	403.124	27.76001
-37.7358	402.21	27.7698
-37.7348	401.062	27.7795
-37.7343	405.466	27.7893
-37.7336	407.1788	27.7991
-37.7323	405.751	27.8088
-37.7327	405.619	27.8186
-37.7291	404.035	27.8284
-37.73024	403.093	27.8381
-37.7285	401.8	27.8479
-37.7294	404.273	27.8577
-37.7275	408.1142	27.8674
-37.7259	407.074	27.8772
-37.7273	404.8775	27.887
-37.7248	398.71	27.8967
-37.7241	401.2	27.9065
-37.7238	406.847	27.91626
-37.7228	404.326	27.926
-37.721	407.976	27.9358
-37.7213	402.704	27.9456
-37.721	402.697	27.9553
-37.7189	400.449	27.9651
-37.7193	399.076	27.9749
-37.7182	407.068	27.9846
-37.7168	409.134	27.9944
-37.716	405.388	28.00415
-37.7158	401.606	28.0139
-37.7147	397.963	28.0237
-37.7136	402.666	28.0334
-37.7129	405.101	28.0432
-37.7117	408.6055	28.053
-37.7116	406.33	28.0627
-37.7104	403.657	28.07251
-37.7095	402.3085	28.0823
-37.7081	397.296	28.092
-37.7077	402.373	28.1018
-37.7077	408.9545	28.1116
-37.7076	408.669	28.1213
-37.7056	404.288	28.1311
-37.7054	400.087	28.1409
-37.7036	399.986	28.1506
-37.7036	405.91	28.1604
-37.7022	406.44	28.1702
-37.7022	406.846	28.1799
-37.7009	407.404	28.1897
-37.7	402.435	28.1995
-37.6999	399.047	28.2092
-37.6988	402.138	28.219
-37.6972	404.628	28.22876
-37.697	410.017	28.2385
-37.6964	406.777	28.2483
-37.6948	400.35	28.2581
-37.6937	399.184	28.2678
-37.6937	400.4079	28.2776
-37.69315	404.508	28.2874
-37.6916	404.666	28.2971
-37.69128	404.627	28.3069
-37.6891	405.875	28.31665
-37.68972	399.384	28.3264
-37.6877	402.197	28.3362
-37.6886	400.553	28.3459
-37.6875	404.8299	28.3557
-37.6853	408.56	28.3655
-37.6855	402.728	28.3752
-37.6843	402.156	28.38501
-37.6842	401.2908	28.3948
-37.6833	400.958	28.4045
-37.6822	404.041	28.4143
-37.6814	403.561	28.4241
-37.6804	406.886	28.4338
-37.6789	404.672	28.4436
-37.6795	400.285	28.4534
-37.6782	398.993	28.4631
-37.6768	400.477	28.4729
-37.6763	406.183	28.4827
-37.6749	404.609	28.4924
-37.6759	402.7402	28.5022
-37.6735	404.536	28.512
-37.6738	399.154	28.5217
-37.67178	400.837	28.5315
-37.6725	400.633	28.54126
-37.6715	405.631	28.551
-37.6702	407.298	28.5608
-37.6687	405.716	28.5706
-37.6674	397.68	28.5803
-37.66782	400.311	28.5901
-37.6666	401.975	28.5999
-37.6659	405.7464	28.6096
-37.6649	407.521	28.6194
-37.664	404.676	28.62915
-37.6635	402.914	28.6389
-37.6626	400.3707	28.6487
-37.6624	398.088	28.6584
-37.6602	405.135	28.6682
-37.6601	406.659	28.678
-37.6589	407.217	28.6877
-37.6579	403.577	28.69751
-37.6575	395.697	28.7073
-37.65699	401.426	28.717
-37.65588	402.896	28.7268
-37.6543	408.64	28.7366
-37.6543	405.893	28.7463
-37.6542	403.8255	28.7561
-37.6533	402.411	28.7659
-37.6517	396.616	28.7756
-37.6508	403.178	28.7854
-37.6499	407.9075	28.7952
-37.6502	408.671	28.8049
-37.6485	406.505	28.8147
-37.6483	399.996	28.8245
-37.64674	398.851	28.8342
-37.64637	402.614	28.844
-37.6461	403.453	28.85376
-37.645	406.453	28.8635
-37.6444	405.489	28.8733
-37.6424	404.486	28.8831
-37.64106	399.8114	28.8928
-37.6417	399.808	28.9026
-37.64045	402.345	28.9124
-37.6394	406.643	28.9221
-37.638	405.617	28.9319
-37.638	401.315	28.94165
-37.6368	400.607	28.9514
-37.636	400.761	28.9612
-37.6363	403.252	28.9709
-37.6339	403.127	28.9807
-37.634	404.964	28.9905
-37.6343	407.436	29.0002
-37.6323	402.146	29.01001
-37.6309	402.346	29.0198
-37.63121	398.418	29.0295
-37.63026	402.449	29.0393
-37.6284	408.116	29.0491
-37.6275	401.563	29.0588
-37.6271	406.69	29.0686
-37.6262	400.539	29.0784
-37.6264	401.227	29.0881
-37.6262	403.119	29.0979
-37.623	400.274	29.1077
-37.6231	407.201	29.1174
-37.6229	406.419	29.1272
-37.6215	401.274	29.137
-37.6218	399.6315	29.1467
-37.6203	397.69	29.1565
-37.61932	405.987	29.16626
-37.6185	404.729	29.176
-37.61755	405.475	29.1858
-37.617	403.9364	29.1956
-37.6166	400.074	29.2053
-37.6158	397.6691	29.2151
-37.6146	398.299	29.2249
-37.6133	404.158	29.2346
-37.612	407.485	29.2444
-37.6118	406.42	29.25415
-37.6109	398.759	29.2639
-37.611	397.473	29.2737
-37.6091	400.251	29.2834
-37.609	403.306	29.2932
-37.60743	406.221	29.303
-37.6077	404.539	29.3127
-37.60677	403.393	29.32251
-37.606	400.317	29.3323
-37.6045	396.415	29.342
-37.6041	401.616	29.3518
-37.6033	405.422	29.3616
-37.6032	409.402	29.3713
-37.60223	401.053	29.3811
-37.6017	396.861	29.3909
-37.5999	397.92	29.4006
-37.5982	401.577	29.4104
-37.5987	405.06	29.4202
-37.596	404.93	29.4299
-37.5968	402.131	29.4397
-37.5957	402.506	29.4495
-37.5948	396.607	29.4592
-37.59454	400.315	29.469
-37.59412	403.211	29.47876
-37.5928	406.097	29.4885
-37.5922	404.896	29.4983
-37.5908	399.0867	29.5081
-37.59	397.792	29.5178
-37.5898	399.835	29.5276
-37.5883	401.522	29.5374
-37.5872	403.127	29.5471
-37.5873	402.662	29.5569
-37.586	402.316	29.56665
-37.5838	398.808	29.5764
-37.5834	398.887	29.5862
-37.58316	399.635	29.5959
-37.5824	403.238	29.6057
-37.5819	405.911	29.6155
-37.5817	402.279	29.6252
-37.5802	400.832	29.63501
-37.5797	400.407	29.6448
-37.578	401.335	29.6545
-37.5771	400.803	29.6643
-37.5773	402.579	29.6741
-37.57618	405.715	29.6838
-37.5763	402.862	29.6936
-37.575	401.236	29.7034
-37.5737	396.176	29.7131
-37.5727	399.335	29.7229
-37.57132	404.668	29.7327
-37.5728	402.082	29.7424
-37.5711	404.494	29.7522
-37.5696	399.903	29.762
-37.5691	399.335	29.7717
-37.5691	398.658	29.7815
-37.566	397.483	29.79126
-37.5667	404.587	29.801
-37.5644	405.508	29.8108
-37.5647	402.515	29.8206
-37.5645	398.65	29.8303
-37.5633	395.192	29.8401
-37.5636	403.052	29.8499
-37.5613	402.517	29.8596
-37.5606	404.544	29.8694
-37.5592	405.992	29.87915
-37.5593	397.3197	29.8889
-37.5576	399.689	29.8987
-37.55748	397.043	29.9084
-37.5578	401.064	29.9182
-37.5553	406.399	29.928
-37.5544	404.498	29.9377
-37.5542	401.413	29.94751
-37.5536	394.978	29.9573
-37.55249	397.9	29.967
-37.55172	403.027	29.9768
-37.5519	405.389	29.9866
-37.5494	404.326	29.9963
-37.55	402.593	30.0061
-37.5485	399.277	30.0159
-37.5487	394.819	30.0256
-37.5468	400.881	30.0354
-37.5465	403.162	30.0452
-37.54496	407.52	30.0549
-37.5445	404.851	30.0647
-37.5426	397.828	30.0745
-37.544	398.358	30.0842
-37.5418	399.189	30.094
-37.5405	403.3927	30.10376
-37.5388	404.104	30.1135
-37.5391	402.671	30.1233
-37.5396	403.638	30.1331
-37.5386	396.2	30.1428
-37.5369	398.799	30.1526
-37.5368	401.267	30.1624
-37.5346	404.31	30.1721
-37.5354	406.254	30.1819
-37.53397	400.903	30.19165
-37.5329	398.68	30.2014
-37.5312	399.948	30.2112
-37.5306	400.78	30.2209
-37.53191	403.449	30.2307
-37.5304	402.071	30.2405
-37.5292	403.898	30.2502
-37.5282	400.351	30.26001
-37.52824	397.126	30.2698
-37.526	396.416	30.2795
-37.5266	401.086	30.2893
-37.5254	404.885	30.2991
-37.5246	402.004	30.3088
-37.5223	400.439	30.3186
-37.5219	400.516	30.3284
-37.522	398.77	30.3381
-37.5216	399.231	30.3479
-37.5207	401.562	30.3577
-37.5194	403.087	30.3674
-37.5184	404.007	30.3772
-37.517	400.375	30.387
-37.5172	395.697	30.3967
-37.5156	398.845	30.4065
-37.5164	402.021	30.41626
-37.5138	402.042	30.426
-37.5137	405.187	30.4358
-37.5119	399.564	30.4456
-37.5111	400.093	30.4553
-37.5111	398.713	30.4651
-37.5098	395.353	30.4749
-37.5088	403.736	30.4846
-37.5097	405.233	30.4944
-37.5073	403.827	30.50415
-37.5074	398.794	30.5139
-37.5062	393.166	30.5237
-37.5043	399.81	30.5334
-37.5051	401.589	30.5432
-37.5036	405.259	30.553
-37.5028	404.001	30.5627
-37.5018	398.618	30.57251
-37.5015	398.565	30.5823
-37.5005	394.185	30.592
-37.5	397.912	30.6018
-37.4997	404.972	30.6116
-37.4972	404.227	30.6213
-37.4974	402.8374	30.6311
-37.4957	396.703	30.6409
-37.4956	395.1	30.6506
-37.49575	400.94	30.6604
-37.4946	402.4631	30.6702
-37.4927	403.298	30.6799
-37.493	401.656	30.6897
-37.4921	398.569	30.6995
-37.4905	394.761	30.7092
-37.4895	396.868	30.719
-37.4885	401.217	30.72876
-37.4889	406.2879	30.7385
-37.4882	402.849	30.7483
-37.4864	398.137	30.7581
-37.4848	395.405	30.7678
-37.4854	397.209	30.7776
-37.48365	401.212	30.7874
-37.4835	401.384	30.7971
-37.483	402.253	30.8069
-37.4808	402.804	30.81665
-37.48	396.744	30.8264
-37.4796	397.244	30.8362
-37.4801	397.045	30.8459
-37.4783	401.093	30.8557
-37.4781	402.795	30.8655
-37.4764	398.415	30.8752
-37.4755	398.994	30.88501
-37.4751	397.485	30.8948
-37.4746	396.791	30.9045
-37.4732	399.927	30.9143
-37.4725	397.951	30.9241
-37.4722	402.844	30.9338
-37.4712	401.596	30.9436
-37.4704	397.126	30.9534
-37.4692	394.904	30.9631
-37.4692	396.928	30.9729
-37.4685	401.937	30.9827
-37.46656	401.117	30.9924
-37.4656	401.476	31.0022
-37.4659	399.718	31.012
-37.4651	397.657	31.0217
-37.46447	396.239	31.0315
-37.4625	397.438	31.04126
-37.463	401.846	31.051
-37.4609	402.928	31.0608
-37.4592	402.082	31.0706
-37.4602	396.33	31.0803
-37.4579	394.307	31.0901
-37.4581	399.159	31.0999
-37.4575	400.546	31.1096
-37.4569	403.453	31.1194
-37.4565	399.643	31.12915
-37.4555	399.033	31.1389
-37.4547	395.61	31.1487
-37.4535	393.7229	31.1584
-37.4524	400.375	31.1682
-37.4513	403.735	31.178
-37.4503	403.562	31.1877
-37.4498	398.698	31.19751
-37.4498	392.4476	31.2073
-37.448	397.353	31.217
-37.4472	397.389	31.2268
-37.4468	403.061	31.2366
-37.4455	401.214	31.2463
-37.4449	399.282	31.2561
-37.4442	397.1246	31.2659
-37.4435	391.812	31.2756
-37.4435	398.247	31.2854
-37.4425	401.424	31.2952
-37.4407	404.117	31.3049
-37.44022	400.687	31.3147
-37.4394	395.056	31.3245
-37.43877	392.424	31.3342
-37.4377	398.231	31.344
-37.4362	398.576	31.35376
-37.4358	401.077	31.3635
-37.43531	397.764	31.3733
-37.43388	398.982	31.3831
-37.4336	394.68	31.3928
-37.4327	393.893	31.4026
-37.4324	397.185	31.4124
-37.4321	400.845	31.4221
-37.4308	399.887	31.4319
-37.4289	395.24	31.44165
-37.4288	394.231	31.4514
-37.4282	394.687	31.4612
-37.4254	397.38	31.4709
-37.4272	396.675	31.4807
-37.4255	400.866	31.4905
-37.4241	399.925	31.5002
-37.4256	396.274	31.51001
-37.4231	395.188	31.5198
-37.42263	394.354	31.5295
-37.4215	397.303	31.5393
-37.4202	399.708	31.5491
-37.4194	396.413	31.5588
-37.4199	399.508	31.5686
-37.4185	396.382	31.5784
-37.41703	394.255	31.5881
-37.4159	395.658	31.5979
-37.415	394.003	31.6077
-37.4153	400.593	31.6174
-37.4147	399.481	31.6272
-37.4133	396.909	31.637
-37.413	393.737	31.6467
-37.4124	393.808	31.6565
-37.4104	399.422	31.66626
-37.41143	398.879	31.676
-37.4101	400.408	31.6858
-37.4086	398.42	31.6956
-37.4083	395.014	31.7053
-37.4064	394.535	31.7151
-37.4068	393.309	31.7249
-37.4055	396.993	31.7346
-37.4033	401.557	31.7444
-37.4035	399.209	31.75415
-37.4024	394.15	31.7639
-37.4032	392.376	31.7737
-37.4018	393.139	31.7834
-37.39983	397.704	31.7932
-37.3997	400.641	31.803
-37.3982	396.332	31.8127
-37.3981	395.1441	31.82251
-37.3964	393.252	31.8323
-37.397	391.255	31.842
-37.396	395.594	31.8518
-37.3948	399.272	31.8616
-37.3942	400.978	31.8713
-37.3925	394.748	31.8811
-37.3927	391.395	31.8909
-37.39106	392.175	31.9006
-37.3907	392.291	31.9104
-37.3886	398.602	31.9202
-37.389	397.184	31.9299
-37.3874	396.468	31.9397
-37.3882	395.5444	31.9495
-37.38665	388.142	31.9592
-37.3861	392.824	31.969
-37.3846	396.398	31.97876
-37.3844	398.601	31.9885
-37.3834	397.535	31.9983
-37.3822	210.8373	32.0081
-37.3791	-49.2162	32.0178
-37.379	-43.4057	32.0276
-37.37817	-53.1837	32.0374
-37.377	-35.2458	32.0471
-37.3785	-36.8141	32.0569
-37.37714	-40.9812	32.06665
-37.3755	-44.20282	32.0764
-37.3753	-46.4642	32.0862
-37.3752	-44.8387	32.0959
-37.3735	-40.1497	32.1057
-37.3728	-38.4082	32.1155
-37.373	-42.4451	32.1252
-37.3715	-43.8895	32.13501
-37.3705	-42.6436	32.1448
-37.3696	-43.8153	32.1545
-37.3691	-42.8072	32.1643
-37.3682	-40.8592	32.1741
-37.36797	-40.0574	32.1838
-37.3674	-41.9164	32.1936
-37.36578	-43.0826	32.2034
-37.36459	-48.9033	32.2131
-37.3648	-43.2503	32.2229
-37.3642	-40.1639	32.2327
-37.3634	-41.9646	32.2424
-37.362	-38.20953	32.2522
-37.36129	-44.4023	32.262
-37.36	-43.8024	32.2717
-37.3585	-45.80994	32.2815
-37.3573	-45.5074	32.29126
-37.3591	-41.0132	32.301
-37.3564	-39.535	32.3108
-37.3566	-40.7273	32.3206
-37.35593	-46.0051	32.3303
-37.3548	-48.479	32.3401
-37.3543	-43.5751	32.3499
-37.3535	-40.3198	32.3596
-37.3518	-38.2447	32.3694
-37.35022	-40.8658	32.37915
-37.3511	-44.2998	32.3889
-37.3497	-45.8804	32.3987
-37.3496	-46.2533	32.4084
-37.3462	-42.489	32.4182
-37.3478	-36.9813	32.428
-37.3461	-37.7157	32.4377
-37.345	-43.7024	32.44751
-37.3445	-46.9115	32.4573
-37.3431	-44.3387	32.467
-37.3423	-41.0249	32.4768
-37.3426	-40.1047	32.4866
-37.34137	-38.79723	32.4963
-37.3397	-40.8471	32.5061
-37.34013	-44.1321	32.5159
-37.3394	-47.8164	32.5256
-37.3383	-43.6775	32.5354
-37.338	-40.0767	32.5452
-37.3369	-37.2287	32.5549
-37.3366	-41.6802	32.5647
-37.3347	-48.639	32.5745
-37.3336	-45.8562	32.5842
-37.33247	-44.6916	32.594
-37.3323	-40.9888	32.60376
-37.332	-41.5985	32.6135
-37.3313	-40.4914	32.6233
-37.3285	-41.67281	32.6331
-37.3279	-48.32095	32.6428
-37.328	-44.762	32.6526
-37.3279	-44.0968	32.6624
-37.3273	-40.3014	32.6721
-37.3252	-37.6966	32.6819
-37.3265	-45.2383	32.69165
-37.3243	-43.3895	32.7014
-37.32341	-43.07526	32.7112
-37.3237	-43.8192	32.7209
-37.3227	-40.8561	32.7307
-37.3212	-41.88121	32.7405
-37.3209	-38.4305	32.7502
-37.3199	-43.8614	32.76001
-37.3197	-46.385	32.7698
-37.3167	-44.5872	32.7795
-37.3168	-43.4066	32.7893
-37.3168	-40.4168	32.7991
-37.3167	-40.1464	32.8088
-37.3156	-41.9199	32.8186
-37.3135	-43.5402	32.8284
-37.3131	-43.968	32.8381
-37.3117	-43.0529	32.8479
-37.3119	-42.8541	32.8577
-37.3101	-39.9064	32.8674
-37.31	-37.7948	32.8772
-37.3083	-42.771	32.887
-37.3098	-48.0734	32.8967
-37.3081	-45.1611	32.9065
-37.3076	-40.7609	32.91626
-37.3059	-40.522	32.926
-37.3051	-38.3715	32.9358
-37.3039	-44.48299	32.9456
-37.3032	-43.2782	32.9553
-37.302	-45.2926	32.9651
-37.3013	-46.2976	32.9749
-37.3013	-41.3718	32.9846
-37.29977	-38.6569	32.9944
-37.29961	-39.2395	33.00415
-37.29826	-45.2565	33.0139
-37.2969	-48.0953	33.0237
-37.2975	-43.6867	33.0334
-37.2951	-42.7777	33.0432
-37.295	-38.18457	33.053
-37.2943	-40.2008	33.0627
-37.2941	-45.1717	33.07251
-37.291	-45.4756	33.0823
-37.2931	-49.01	33.092
-37.2915	-42.7759	33.1018
-37.28957	-37.4169	33.1116
-37.2894	-38.3721	33.1213
-37.28828	-42.95385	33.1311
-37.2884	-48.9237	33.1409
-37.2872	-46.1833	33.1506
-37.2868	-43.4227	33.1604
-37.2859	-41.61171	33.1702
-37.2833	-40.1999	33.1799
-37.2837	-42.6282	33.1897
-37.2841	-42.9445	33.1995
-37.2822	-47.5757	33.2092
-37.2806	-44.0728	33.219
-37.2788	-41.4617	33.22876
-37.2807	-38.0885	33.2385
-37.2794	-41.2442	33.2483
-37.2779	-45.9381	33.2581
-37.2763	-47.45369	33.2678
-37.2771	-46.3947	33.2776
-37.2759	-41.3915	33.2874
-37.275	-43.3266	33.2971
-37.274	-41.48	33.3069
-37.2741	-40.6261	33.31665
-37.2726	-46.9732	33.3264
-37.271	-44.7007	33.3362
-37.2717	-46.7192	33.3459
-37.2702	-41.2226	33.3557
-37.2698	-37.6207	33.3655
-37.2682	-44.6297	33.3752
-37.26725	-43.3446	33.38501
-37.2665	-44.8818	33.3948
-37.26601	-45.4606	33.4045
-37.2649	-43.9851	33.4143
-37.2648	-42.2628	33.4241
-37.263	-38.93	33.4338
-37.2626	-41.10825	33.4436
-37.2627	-45.2813	33.4534
-37.2613	-45.5475	33.4631
-37.26091	-45.8884	33.4729
-37.2598	-39.6691	33.4827
-37.2577	-40.9602	33.4924
-37.2579	-39.7869	33.5022
-37.2559	-43.0111	33.512
-37.2578	-44.5269	33.5217
-37.2554	-45.6574	33.5315
-37.2553	-44.6247	33.54126
-37.2538	-41.635	33.551
-37.2526	-37.012	33.5608
-37.2531	-40.8872	33.5706
-37.2511	-46.7451	33.5803
-37.2502	-47.6644	33.5901
-37.2494	-44.0165	33.5999
-37.2492	-41.9963	33.6096
-37.2486	-39.8599	33.6194
-37.2477	-42.1372	33.62915
-37.24725	-43.11869	33.6389
-37.2453	-46.1437	33.6487
-37.244	-46.78463	33.6584
-37.2437	-41.7735	33.6682
-37.24324	-37.4575	33.678
-37.2431	-38.659	33.6877
-37.2412	-43.6216	33.69751
-37.2413	-48.9038	33.7073
-37.2399	-46.4017	33.717
-37.2385	-43.8733	33.7268
-37.2376	-38.1417	33.7366
-37.2369	-40.8064	33.7463
-37.2375	-40.9365	33.7561
-37.2353	-43.65102	33.7659
-37.2352	-49.5575	33.7756
-37.2346	-41.3127	33.7854
-37.2346	-40.7528	33.7952
-37.2314	-37.6268	33.8049
-37.2329	-41.32299	33.8147
-37.23101	-45.85326	33.8245
-37.2316	-46.6432	33.8342
-37.2295	-42.67881	33.844
-37.2281	-43.0817	33.85376
-37.22681	-39.7656	33.8635
-37.2278	-40.5412	33.8733
-37.2253	-42.1065	33.8831
-37.2256	-45.5347	33.8928
-37.2252	-45.3044	33.9026
-37.2242	-43.7324	33.9124
-37.2227	-37.85	33.9221
-37.2216	-39.3112	33.9319
-37.2216	-45.24144	33.94165
-37.22	-45.411	33.9514
-37.2203	-46.4943	33.9612
-37.2193	-43.7358	33.9709
-37.2181	-42.00341	33.9807
-37.2162	-41.3239	33.9905
-37.2168	-39.3272	34.0002
-37.2152	-42.8472	34.01001
-37.2147	-43.729	34.0198
-37.21344	-47.7962	34.0295
-37.2128	-42.2546	34.0393
-37.2115	-38.4397	34.0491
-37.212	-41.2771	34.0588
-37.2101	-39.9023	34.0686
-37.2099	-44.0041	34.0784
-37.2095	-42.601	34.0881
-37.2085	-44.5042	34.0979
-37.2075	-43.6825	34.1077
-37.2054	-37.1364	34.1174
-37.2053	-41.3478	34.1272
-37.2044	-42.5863	34.137
-37.2045	-45.903	34.1467
-37.2034	-46.9441	34.1565
-37.2026	-40.6844	34.16626
-37.2019	-41.1673	34.176
-37.2009	-39.547	34.1858
-37.1994	-41.92794	34.1956
-37.1981	-43.6529	34.2053
-37.1992	-44.9058	34.2151
-37.1986	-47.0393	34.2249
-37.19593	-40.5842	34.2346
-37.19664	-37.1807	34.2444
-37.1957	-41.697	34.25415
-37.1943	-45.636	34.2639
-37.1944	-47.4827	34.2737
-37.1918	-44.68755	34.2834
-37.192	-41.8198	34.2932
-37.1914	-38.5793	34.303
-37.1894	-40.2137	34.3127
-37.1903	-42.5682	34.32251
-37.1875	-46.346	34.3323
-37.1879	-48.4022	34.342
-37.1878	-42.5535	34.3518
-37.1856	-39.18531	34.3616
-37.1848	-35.6589	34.3713
-37.1855	-43.3151	34.3811
-37.1827	-46.8661	34.3909
-37.18327	-44.352	34.4006
-37.1821	-44.0082	34.4104
-37.1814	-38.6298	34.4202
-37.1815	-41.0659	34.4299
-37.1806	-39.7795	34.4397
-37.1796	-42.7625	34.4495
-37.1778	-49.058	34.4592
-37.1777	-43.021	34.469