File: data/processed_data_files/tensile/0.254_hd_dimension_typeiv_090_r(9).dat
MTS793|BTW|ENU|1|2|.|/|:|1|0|0|A

Data Header:			0.254_hd_dimension_typeiv_090_r0			Time:	20.0178	s	4/14/2019 12:38:49 AM
Data Acquisition:	Timed
Station Name:	ft40.cfg
Test File Name:	monotonic_0.2540_typeiv_hd_090_dimension.tst
Displacement	Force	Running Time
mm	N	s
-40.0414	-181.313	0.0227051
-40.0401	-177.283	0.0422363
-40.0399	-182.859	0.0617676
-40.041	-180.318	0.0812988
-40.0374	-178.265	0.10083
-40.0355	-172.55	0.120361
-40.0345	-176.367	0.139893
-40.0337	-177.3866	0.159424
-40.0308	-172.988	0.178955
-40.029	-170.452	0.198486
-40.0281	-175.037	0.218018
-40.0258	-169.862	0.237549
-40.0253	-168.384	0.25708
-40.0241	-173.235	0.276611
-40.0226	-169.381	0.296143
-40.0199	-165.595	0.315674
-40.018	-167.661	0.335205
-40.0162	-166.026	0.354736
-40.016	-160.15	0.374268
-40.0134	-167.981	0.393799
-40.013	-166.589	0.41333
-40.009	-156.127	0.432861
-40.0077	-159.253	0.452393
-40.0078	-161.315	0.471924
-40.0055	-154.698	0.491455
-40.0035	-161.257	0.510986
-40.002	-157.859	0.530518
-39.9996	-153.74	0.550049
-39.9998	-153.332	0.56958
-39.997	-155.999	0.589111
-39.9952	-149.436	0.608643
-39.9945	-152.565	0.628174
-39.99213	-151.75	0.647705
-39.9907	-150.169	0.667236
-39.9882	-143.615	0.686768
-39.9879	-147.795	0.706299
-39.9855	-146.251	0.72583
-39.9841	-146.482	0.745361
-39.9823	-144.039	0.764893
-39.9797	-146.9716	0.784424
-39.9801	-138.558	0.803955
-39.9768	-140.78	0.823486
-39.9765	-143.817	0.843018
-39.9747	-140.495	0.862549
-39.9724	-135.591	0.88208
-39.9722	-139.526	0.901611
-39.9696	-135.408	0.921143
-39.96767	-133.388	0.940674
-39.9664	-137.338	0.960205
-39.9641	-135.945	0.979736
-39.9629	-128.86	0.999268
-39.962	-132.384	1.0188
-39.9591	-130.348	1.03833
-39.9591	-124.093	1.05786
-39.9552	-130.697	1.07739
-39.9551	-130.693	1.09692
-39.9535	-124.478	1.11646
-39.9516	-123.121	1.13599
-39.9506	-125.88	1.15552
-39.9486	-119.495	1.17505
-39.9459	-123.658	1.19458
-39.944	-122.717	1.21411
-39.9429	-119.385	1.23364
-39.9422	-116.043	1.25317
-39.9395	-119.575	1.27271
-39.9377	-116.0681	1.29224
-39.9375	-115.487	1.31177
-39.9341	-115.197	1.3313
-39.9338	-117.24	1.35083
-39.9323	-108.9	1.37036
-39.93055	-111.55	1.38989
-39.9291	-112.1714	1.40942
-39.9271	-111.945	1.42896
-39.9254	-107.76	1.44849
-39.924	-111.751	1.46802
-39.9216	-104.152	1.48755
-39.9213	-103.865	1.50708
-39.9196	-109.231	1.52661
-39.9175	-106.536	1.54614
-39.9159	-99.8775	1.56567
-39.9141	-102.683	1.58521
-39.9131	-101.285	1.60474
-39.9115	-97.789	1.62427
-39.9091	-103.975	1.6438
-39.9077	-100.73	1.66333
-39.9064	-94.5844	1.68286
-39.9058	-98.2751	1.70239
-39.90295	-97.5623	1.72192
-39.9011	-91.0483	1.74146
-39.8991	-95.1143	1.76099
-39.8982	-95.5126	1.78052
-39.8965	-91.0681	1.80005
-39.8956	-87.3035	1.81958
-39.8928	-91.685	1.83911
-39.8917	-86.6727	1.85864
-39.8899	-88.9007	1.87817
-39.888	-87.1601	1.89771
-39.887	-85.5644	1.91724
-39.884	-80.0211	1.93677
-39.88343	-85.8667	1.9563
-39.8816	-83.2814	1.97583
-39.8806	-81.3063	1.99536
-39.8772	-80.7096	2.01489
-39.87719	-83.6911	2.03442
-39.875	-74.5363	2.05396
-39.8731	-76.3762	2.07349
-39.8724	-77.9987	2.09302
-39.871	-77.5909	2.11255
-39.8686	-71.8245	2.13208
-39.8671	-78.1671	2.15161
-39.8658	-71.4208	2.17114
-39.8647	-66.9163	2.19067
-39.8627	-75.1685	2.21021
-39.8608	-74.4709	2.22974
-39.8587	-65.5153	2.24927
-39.8577	-67.8838	2.2688
-39.85672	-68.8958	2.28833
-39.8547	-62.5049	2.30786
-39.8518	-68.3623	2.32739
-39.851	-68.4964	2.34692
-39.8498	-60.0033	2.36646
-39.8478	-61.85651	2.38599
-39.8463	-66.1861	2.40552
-39.8445	-56.274	2.42505
-39.8421	-61.18166	2.44458
-39.84013	-61.4942	2.46411
-39.84	-57.6613	2.48364
-39.83839	-53.2875	2.50317
-39.8359	-57.7341	2.52271
-39.8352	-54.721	2.54224
-39.8321	-54.9203	2.56177
-39.8316	-53.0837	2.5813
-39.8303	-53.5085	2.60083
-39.8281	-45.9933	2.62036
-39.8266	-50.992	2.63989
-39.8245	-50.1054	2.65942
-39.8233	-48.4973	2.67896
-39.8226	-44.0947	2.69849
-39.8186	-47.224	2.71802
-39.8186	-41.156	2.73755
-39.81649	-41.5848	2.75708
-39.815	-45.4783	2.77661
-39.8126	-43.0104	2.79614
-39.8118	-37.2195	2.81567
-39.8115	-42.3776	2.83521
-39.8087	-38.7222	2.85474
-39.8064	-33.312	2.87427
-39.8055	-40.9311	2.8938
-39.804	-40.7	2.91333
-39.8028	-32.1665	2.93286
-39.80077	-33.2254	2.95239
-39.79908	-35.0944	2.97192
-39.7975	-28.8537	2.99146
-39.796	-33.4586	3.01099
-39.7939	-33.1902	3.03052
-39.7925	-27.347	3.05005
-39.7912	-27.7086	3.06958
-39.7894	-31.357	3.08911
-39.7883	-24.6688	3.10864
-39.7866	-24.81118	3.12817
-39.784	-25.8078	3.14771
-39.7832	-26.1805	3.16724
-39.7811	-18.1475	3.18677
-39.7787	-22.8679	3.2063
-39.7779	-20.73284	3.22583
-39.7761	-19.3685	3.24536
-39.7734	-18.8392	3.26489
-39.7725	-20.1124	3.28442
-39.7706	-12.3153	3.30396
-39.7691	-15.1744	3.32349
-39.7686	-19.721	3.34302
-39.7656	-14.9971	3.36255
-39.7641	-8.9712	3.38208
-39.7641	-16.004	3.40161
-39.7612	-10.6043	3.42114
-39.7594	-7.12494	3.44067
-39.7577	-12.1022	3.46021
-39.7575	-11.6073	3.47974
-39.7544	-3.73773	3.49927
-39.7528	-9.14373	3.5188
-39.7516	-6.810421	3.53833
-39.7502	1.29114	3.55786
-39.7477	-6.40288	3.57739
-39.7473	-7.15438	3.59692
-39.7449	2.16212	3.61646
-39.7434	0.538781	3.63599
-39.7405	-2.16163	3.65552
-39.7396	4.94844	3.67505
-39.7381	0.740159	3.69458
-39.7367	-1.34935	3.71411
-39.736	5.35922	3.73364
-39.7332	8.75123	3.75317
-39.7329	2.74314	3.77271
-39.7312	9.41993	3.79224
-39.7297	8.62027	3.81177
-39.72646	8.374	3.8313
-39.72551	7.13763	3.85083
-39.72327	13.4932	3.87036
-39.7226	12.2546	3.88989
-39.7207	11.5839	3.90942
-39.7204	13.1454	3.92896
-39.7167	14.7394	3.94849
-39.7153	11.0682	3.96802
-39.7148	21.48399	3.98755
-39.7133	19.9453	4.00708
-39.7112	14.7781	4.02661
-39.7086	16.4931	4.04614
-39.7074	25.3518	4.06567
-39.7058	18.9763	4.08521
-39.70512	20.4471	4.10474
-39.7028	26.179	4.12427
-39.701	22.3111	4.1438
-39.6993	21.0665	4.16333
-39.6989	31.358	4.18286
-39.6978	26.8238	4.20239
-39.6936	24.9648	4.22192
-39.6933	33.3765	4.24146
-39.691	30.0525	4.26099
-39.69059	25.46913	4.28052
-39.6874	33.0323	4.30005
-39.6878	35.7405	4.31958
-39.6854	32.2871	4.33911
-39.6831	38.5828	4.35864
-39.68185	34.7755	4.37817
-39.6796	34.8199	4.39771
-39.6782	36.9081	4.41724
-39.6774	42.2507	4.43677
-39.6757	38.0789	4.4563
-39.6736	40.6444	4.47583
-39.672	42.0659	4.49536
-39.67049	45.1926	4.51489
-39.6689	41.16761	4.53442
-39.667	49.6506	4.55396
-39.6647	46.40625	4.57349
-39.6641	47.4979	4.59302
-39.6622	48.8995	4.61255
-39.6614	50.6299	4.63208
-39.65778	45.5926	4.65161
-39.658	52.6109	4.67114
-39.6555	55.8015	4.69067
-39.6543	49.1335	4.71021
-39.6524	49.4055	4.72974
-39.6504	58.599	4.74927
-39.6493	54.9048	4.7688
-39.6476	56.0378	4.78833
-39.6457	60.1952	4.80786
-39.6442	56.0382	4.82739
-39.6423	55.3383	4.84692
-39.6407	65.0998	4.86646
-39.63829	61.873	4.88599
-39.63892	57.5824	4.90552
-39.6362	66.9352	4.92505
-39.6347	63.5403	4.94458
-39.6336	60.96769	4.96411
-39.6321	65.2947	4.98364
-39.629	70.307	5.00317
-39.62841	65.7518	5.02271
-39.6265	72.3378	5.04224
-39.6254	69.9819	5.06177
-39.6231	68.3372	5.0813
-39.62133	70.1759	5.10083
-39.6188	76.4552	5.12036
-39.6177	75.2127	5.13989
-39.617	72.4343	5.15942
-39.6154	74.9939	5.17896
-39.613	78.0764	5.19849
-39.6124	74.181	5.21802
-39.6109	80.9241	5.23755
-39.6085	80.7111	5.25708
-39.6075	76.7063	5.27661
-39.6053	80.0409	5.29614
-39.6036	85.978	5.31567
-39.6017	77.9532	5.33521
-39.6013	83.4112	5.35474
-39.5997	88.8922	5.37427
-39.5965	83.0596	5.3938
-39.5945	80.4988	5.41333
-39.594	92.2884	5.43286
-39.5943	89.548	5.45239
-39.5914	87.6734	5.47192
-39.5888	94.1457	5.49146
-39.5875	89.4329	5.51099
-39.5869	87.3022	5.53052
-39.5835	96.7514	5.55005
-39.5828	95.7097	5.56958
-39.5804	91.2522	5.58911
-39.5797	98.3573	5.60864
-39.57745	96.7471	5.62817
-39.5756	96.3209	5.64771
-39.5741	96.1243	5.66724
-39.5729	103.026	5.68677
-39.571	98.7042	5.7063
-39.5708	103.336	5.72583
-39.5678	103.6	5.74536
-39.5672	103.842	5.76489
-39.5641	100.39	5.78442
-39.56411	110.285	5.80396
-39.5605	108.01	5.82349
-39.5593	105.037	5.84302
-39.5592	105.766	5.86255
-39.5557	111.737	5.88208
-39.555	107.551	5.90161
-39.5539	114.046	5.92114
-39.5507	114.184	5.94067
-39.5498	109.867	5.96021
-39.54797	109.664	5.97974
-39.5471	119.771	5.99927
-39.5449	112.793	6.0188
-39.54327	115.618	6.03833
-39.5414	122.132	6.05786
-39.5395	117.796	6.07739
-39.53986	115.41	6.09692
-39.5371	124.142	6.11646
-39.5349	121.102	6.13599
-39.53352	120.982	6.15552
-39.53183	126.611	6.17505
-39.5301	123.794	6.19458
-39.5297	120.276	6.21411
-39.5269	129.669	6.23364
-39.525	131.332	6.25317
-39.524	126.927	6.27271
-39.5215	129.161	6.29224
-39.5206	128.866	6.31177
-39.5186	129.931	6.3313
-39.5176	130.566	6.35083
-39.5165	136.877	6.37036
-39.5141	132.643	6.38989
-39.5118	133.572	6.40942
-39.51	136.634	6.42896
-39.5098	137.549	6.44849
-39.508	133.799	6.46802
-39.5056	141.521	6.48755
-39.5049	142.604	6.50708
-39.5032	137.6665	6.52661
-39.5001	137.776	6.54614
-39.4997	145.502	6.56567
-39.4984	140.853	6.58521
-39.4954	145.619	6.60474
-39.4945	148.164	6.62427
-39.4927	142.283	6.6438
-39.491	143.76	6.66333
-39.4902	151.644	6.68286
-39.4885	146.994	6.70239
-39.4867	145.112	6.72192
-39.485	153.804	6.74146
-39.4829	150.326	6.76099
-39.4821	145.98	6.78052
-39.4803	155.093	6.80005
-39.4789	153.727	6.81958
-39.4774	150.549	6.83911
-39.475	159.498	6.85864
-39.4727	155.762	6.87817
-39.4716	152.433	6.89771
-39.4708	156.856	6.91724
-39.4692	164.6033	6.93677
-39.4663	159.069	6.9563
-39.4652	159.537	6.97583
-39.4638	162.533	6.99536
-39.4613	162.29	7.01489
-39.4602	160.139	7.03442
-39.4596	168.161	7.05396
-39.4587	164.135	7.07349
-39.4558	164.133	7.09302
-39.4551	166.718	7.11255
-39.4526	172.242	7.13208
-39.4512	165.275	7.15161
-39.4496	171.33	7.17114
-39.4471	174.651	7.19067
-39.4457	170.1162	7.21021
-39.4438	168.535	7.22974
-39.4436	177.477	7.24927
-39.4416	171.039	7.2688
-39.4391	175.752	7.28833
-39.4373	180.469	7.30786
-39.4371	174.966	7.32739
-39.4345	173.2178	7.34692
-39.4335	184.39	7.36646
-39.4315	181.045	7.38599
-39.4296	177.983	7.40552
-39.42849	186.023	7.42505
-39.4271	182.22	7.44458
-39.4243	179.296	7.46411
-39.4228	186.346	7.48364
-39.42178	187.1257	7.50317
-39.4199	183.496	7.52271
-39.4171	189.978	7.54224
-39.417	189.055	7.56177
-39.4143	187.668	7.5813
-39.4128	187.226	7.60083
-39.411	195.65	7.62036
-39.4104	192.586	7.63989
-39.4091	192.536	7.65942
-39.4067	193.231	7.67896
-39.4048	197.376	7.69849
-39.40366	193.102	7.71802
-39.4021	199.48	7.73755
-39.4008	200.069	7.75708
-39.3994	197.279	7.77661
-39.3959	196.738	7.79614
-39.3953	204.889	7.81567
-39.3924	197.911	7.83521
-39.3927	201.791	7.85474
-39.3906	207.749	7.87427
-39.3898	203.253	7.8938
-39.3881	199.345	7.91333
-39.3859	210.34	7.93286
-39.3849	205.281	7.95239
-39.3822	205.359	7.97192
-39.3804	212.8799	7.99146
-39.3808	208.245	8.01099
-39.3789	203.423	8.03052
-39.37505	214.51	8.05005
-39.3733	213.96	8.06958
-39.3729	209.282	8.08911
-39.37022	215.157	8.10864
-39.3698	217.211	8.12817
-39.36758	211.764	8.14771
-39.3666	217.261	8.16724
-39.3639	221.818	8.18677
-39.3626	215.215	8.2063
-39.3615	219.455	8.22583
-39.3599	220.235	8.24536
-39.3581	219.715	8.26489
-39.3562	218.062	8.28442
-39.3545	226.645	8.30396
-39.3533	226.4496	8.32349
-39.3512	222.054	8.34302
-39.3507	222.783	8.36255
-39.3482	228.123	8.38208
-39.3458	222.222	8.40161
-39.3447	231.695	8.42114
-39.3433	233.838	8.44067
-39.3415	227.038	8.46021
-39.3391	228.36	8.47974
-39.3384	237.706	8.49927
-39.3368	229.481	8.5188
-39.335	230.861	8.53833
-39.3336	237.385	8.55786
-39.3318	234.497	8.57739
-39.3313	231.259	8.59692
-39.3286	240.277	8.61646
-39.328	237.499	8.63599
-39.3263	235.929	8.65552
-39.3235	243.259	8.67505
-39.3223	241.0466	8.69458
-39.3207	236.235	8.71411
-39.3195	243.703	8.73364
-39.3175	246.088	8.75317
-39.3154	240.659	8.77271
-39.3142	244.781	8.79224
-39.3123	246.35	8.81177
-39.3106	243.61	8.8313
-39.3086	244.647	8.85083
-39.307	252.392	8.87036
-39.3058	247.9006	8.88989
-39.3048	248.292	8.90942
-39.3034	252.525	8.92896
-39.3018	253.083	8.94849
-39.2999	246.59	8.96802
-39.29784	255.706	8.98755
-39.2962	256.625	9.00708
-39.2944	254.142	9.02661
-39.2933	254.277	9.04614
-39.2911	260.563	9.06567
-39.2905	253.353	9.08521
-39.2892	261.822	9.10474
-39.2868	263.714	9.12427
-39.285	258.313	9.1438
-39.28244	256.238	9.16333
-39.2817	268.944	9.18286
-39.2798	262.543	9.20239
-39.279	261.6225	9.22192
-39.2762	268.16	9.24146
-39.275	266.768	9.26099
-39.274	261.503	9.28052
-39.2714	271.452	9.30005
-39.2699	268.8	9.31958
-39.269	266.284	9.33911
-39.2672	273.748	9.35864
-39.2658	273.834	9.37817
-39.2628	265.24	9.39771
-39.2627	272.815	9.41724
-39.2608	276.328	9.43677
-39.2588	273.213	9.4563
-39.2561	275.875	9.47583
-39.2549	276.113	9.49536
-39.2543	275.826	9.51489
-39.2514	276.261	9.53442
-39.2518	282.771	9.55396
-39.2496	278.447	9.57349
-39.2471	277.439	9.59302
-39.2458	282.57	9.61255
-39.2436	285.695	9.63208
-39.2425	278.806	9.65161
-39.2423	284.7052	9.67114
-39.2377	287.268	9.69067
-39.23772	284.707	9.71021
-39.2359	283.223	9.72974
-39.2343	290.911	9.74927
-39.2324	283.31	9.7688
-39.2322	288.671	9.78833
-39.2304	294.532	9.80786
-39.228	289.529	9.82739
-39.2261	283.892	9.84692
-39.2247	296.368	9.86646
-39.2235	293.104	9.88599
-39.2209	290.305	9.90552
-39.2191	297.399	9.92505
-39.2185	296.286	9.94458
-39.2169	291.5777	9.96411
-39.2146	299.398	9.98364
-39.2128	300.255	10.0032
-39.21143	293.287	10.0227
-39.2091	300.883	10.0422
-39.2076	301.55	10.0618
-39.2073	297.002	10.0813
-39.2059	300.203	10.10083
-39.203	307.507	10.1204
-39.202	303.501	10.1399
-39.1998	303.759	10.1594
-39.1976	305.664	10.179
-39.1969	306.129	10.1985
-39.1945	304.491	10.218
-39.1929	311.564	10.2375
-39.1922	310.4512	10.25708
-39.1902	307.277	10.2766
-39.18903	309.19	10.2961
-39.1886	316.192	10.3157
-39.1858	308.277	10.3352
-39.18351	311.983	10.3547
-39.1818	316.801	10.3743
-39.1803	315.7352	10.3938
-39.1796	310.755	10.41333
-39.1771	319.771	10.4329
-39.1769	313.928	10.4524
-39.1747	316.791	10.4719
-39.1736	323.84	10.4915
-39.1705	320.015	10.511
-39.169	314.574	10.5305
-39.16777	324.528	10.55
-39.1661	324.058	10.56958
-39.1641	320.538	10.5891
-39.1629	325.023	10.6086
-39.1602	324.604	10.6282
-39.1604	319.652	10.6477
-39.1576	327.744	10.6672
-39.1571	329.886	10.6868
-39.15456	323.769	10.7063
-39.1533	328.394	10.72583
-39.1519	330.749	10.7454
-39.1499	328.178	10.7649
-39.1485	327.795	10.7844
-39.14679	335.188	10.804
-39.1447	333.6973	10.8235
-39.1431	331.588	10.843
-39.1425	332.842	10.8625
-39.1393	335.262	10.88208
-39.1387	330.651	10.9016
-39.1368	339.309	10.9211
-39.1352	339.967	10.9407
-39.1341	335.759	10.9602
-39.13166	336.002	10.9797
-39.1303	344.55	10.9993
-39.1284	338.36	11.0188
-39.1272	341.253	11.03833
-39.1252	344.935	11.0579
-39.1225	342.809	11.0774
-39.1231	337.696	11.0969
-39.1197	348.521	11.1165
-39.1191	343.0094	11.136
-39.1166	343.144	11.1555
-39.1161	350.281	11.175
-39.1136	347.957	11.19458
-39.1126	341.839	11.2141
-39.1107	350.158	11.2336
-39.1093	350.933	11.2532
-39.10759	348.832	11.2727
-39.1061	352.2543	11.2922
-39.1046	352.044	11.3118
-39.10265	347.325	11.3313
-39.0995	353.052	11.35083
-39.0987	358.557	11.3704
-39.0969	352.096	11.3899
-39.0961	353.45	11.4094
-39.0932	359.61	11.429
-39.0916	358.556	11.4485
-39.0916	353.391	11.468
-39.089	360.944	11.4875
-39.088	360.756	11.50708
-39.0867	359.535	11.5266
-39.0855	361.112	11.5461
-39.0822	364.557	11.5657
-39.0818	361.205	11.5852
-39.0796	363.839	11.6047
-39.0786	368.966	11.6243
-39.0761	363.555	11.6438
-39.0745	360.728	11.66333
-39.074	370.4	11.6829
-39.072	363.651	11.7024
-39.0695	366.9548	11.7219
-39.0688	371.122	11.7415
-39.0664	369.903	11.761
-39.0652	364.246	11.7805
-39.0638	376.34	11.8
-39.0617	371.922	11.81958
-39.061	367.63	11.8391
-39.0577	375.3	11.8586
-39.0581	375.644	11.8782
-39.0543	369.164	11.8977
-39.05386	373.773	11.9172
-39.0514	378.2	11.9368
-39.0511	373.849	11.9563
-39.0483	377.868	11.97583
-39.0468	378.11	11.9954
-39.0446	375.821	12.0149
-39.0435	377.578	12.0344
-39.0419	383.684	12.054
-39.04089	380.118	12.0735
-39.0389	380.267	12.093
-39.037	382.311	12.1125
-39.0366	384.734	12.13208
-39.035	379.757	12.1516
-39.0331	384.852	12.1711
-39.0312	386.098	12.1907
-39.0292	384.43	12.2102
-39.0271	383.597	12.2297
-39.0259	390.956	12.2493
-39.0239	384.752	12.2688
-39.0234	388.5192	12.28833
-39.0219	394.485	12.3079
-39.0201	390.969	12.3274
-39.01741	385.2251	12.3469
-39.0157	394.902	12.3665
-39.0146	391.409	12.386
-39.0123	389.292	12.4055
-39.01228	395.928	12.425
-39.0089	395.745	12.44458
-39.0088	389.535	12.4641
-39.00642	397.239	12.4836
-39.0045	396.863	12.5032
-39.0018	391.553	12.5227
-39.0012	397.077	12.5422
-39.001	401.498	12.5618
-38.9983	393.785	12.5813
-38.997	396.593	12.60083
-38.995	403.508	12.6204
-38.9939	399.214	12.6399
-38.9917	400.743	12.6594
-38.9906	402.479	12.679
-38.9893	400.571	12.6985
-38.9872	398.244	12.718
-38.9847	407.967	12.7375
-38.9838	405.227	12.75708
-38.983	401.18	12.7766
-38.9804	403.585	12.7961
-38.979	409.418	12.8157
-38.9768	401.642	12.8352
-38.9768	407.725	12.8547
-38.9734	411.476	12.8743
-38.9727	407.379	12.8938
-38.9702	405.022	12.91333
-38.9692	414.78	12.9329
-38.9672	404.174	12.9524
-38.9656	408.372	12.9719
-38.9632	416.304	12.9915
-38.9626	413.204	13.011
-38.961	406.709	13.0305
-38.959	415.418	13.05
-38.9568	414.092	13.06958
-38.95528	411.658	13.0891
-38.9546	415.373	13.1086
-38.953	417.97	13.1282
-38.951	410.279	13.1477
-38.9493	417.409	13.1672
-38.9476	420.533	13.1868
-38.9462	414.017	13.2063
-38.9446	416.156	13.22583
-38.9434	420.788	13.2454
-38.9416	416.67	13.2649
-38.9386	417.683	13.2844
-38.9394	423.008	13.304
-38.9371	419.408	13.3235
-38.9342	419.8681	13.343
-38.933	423.156	13.3625
-38.9314	423.092	13.38208
-38.9299	418.058	13.4016
-38.92712	425.9126	13.4211
-38.9268	427.609	13.4407
-38.9259	420.6124	13.4602
-38.9222	420.746	13.4797
-38.9227	428.9848	13.4993
-38.9203	422.873	13.5188
-38.919	425.936	13.53833
-38.91729	430.094	13.5579
-38.91552	424.93	13.5774
-38.9139	422.642	13.5969
-38.9128	432.344	13.6165
-38.9105	426.575	13.636
-38.9097	425.535	13.6555
-38.9073	431.599	13.675
-38.906	431.245	13.69458
-38.9042	423.207	13.7141
-38.9024	431.776	13.7336
-38.9001	433.302	13.7532
-38.8991	428.836	13.7727
-38.898	432.628	13.7922
-38.8966	432.621	13.8118
-38.8942	427.291	13.8313
-38.8912	431.6535	13.85083
-38.8913	438.317	13.8704
-38.8894	431.1348	13.8899
-38.8884	432.126	13.9094
-38.8862	437.006	13.929
-38.885	434.28	13.9485
-38.8828	430.691	13.968
-38.8808	436.659	13.9875
-38.8805	437.576	14.00708
-38.87886	436.364	14.0266
-38.8772	435.46	14.0461
-38.8748	440.038	14.0657
-38.8734	434.526	14.0852
-38.8717	439.27	14.1047
-38.87	443.151	14.1243
-38.8677	437.9263	14.1438
-38.8674	434.252	14.16333
-38.8644	445.161	14.1829
-38.86301	438.645	14.2024
-38.8603	439.843	14.2219
-38.8591	443.06	14.2415
-38.8583	443.021	14.261
-38.858	435.135	14.2805
-38.8565	446.403	14.3
-38.8535	441.973	14.31958
-38.8517	438.379	14.3391
-38.8501	444.128	14.3586
-38.8486	445.142	14.3782
-38.8467	438.157	14.3977
-38.8457	442.751	14.4172
-38.8437	445.791	14.4368
-38.8431	441.615	14.4563
-38.8409	443.879	14.47583
-38.8381	445.83	14.4954
-38.83762	440.937	14.5149
-38.8358	443.325	14.5344
-38.8336	449.9	14.554
-38.8319	446.718	14.5735
-38.8313	442.972	14.593
-38.8284	446.235	14.6125
-38.8282	448.55	14.63208
-38.8252	442.36	14.6516
-38.8251	447.317	14.6711
-38.8223	449.364	14.6907
-38.8213	446.146	14.7102
-38.8206	445.347	14.7297
-38.8175	453.265	14.7493
-38.8162	444.345	14.7688
-38.8136	445.762	14.78833
-38.8125	452.6	14.8079
-38.811	448.701	14.8274
-38.8098	442.335	14.8469
-38.8075	452.611	14.8665
-38.8062	448.843	14.886
-38.8038	446.724	14.9055
-38.8017	451.112	14.925
-38.8009	449.9	14.94458
-38.7999	442.4292	14.9641
-38.7977	452.2822	14.9836
-38.7968	453.071	15.0032
-38.7952	446.314	15.0227
-38.794	449.76	15.0422
-38.79031	453.224	15.0618
-38.7909	445.749	15.0813
-38.78833	448.438	15.10083
-38.7873	452.226	15.1204
-38.7855	449.511	15.1399
-38.7838	448.805	15.1594
-38.7822	452.704	15.179
-38.7804	447.8447	15.1985
-38.7787	446.224	15.218
-38.7775	454.7868	15.2375
-38.7745	454.695	15.25708
-38.7735	448.6015	15.2766
-38.7722	448.701	15.2961
-38.7707	455.532	15.3157
-38.77	448.951	15.3352
-38.7671	453.308	15.3547
-38.766	454.94	15.3743
-38.7638	448.3941	15.3938
-38.7618	446.316	15.41333
-38.7608	456.455	15.4329
-38.7577	450.7067	15.4524
-38.7578	450.582	15.4719
-38.7563	456.36	15.4915
-38.7542	453.398	15.511
-38.7526	445.759	15.5305
-38.7507	454.762	15.55
-38.7498	452.476	15.56958
-38.7479	449.294	15.5891
-38.7458	453.995	15.6086
-38.7455	451.87	15.6282
-38.7427	445.894	15.6477
-38.7413	453.47	15.6672
-38.7399	455.36	15.6868
-38.7387	449.45	15.7063
-38.736	451.099	15.72583
-38.7353	455.237	15.7454
-38.7327	449.7406	15.7649
-38.73127	450.382	15.7844
-38.7294	455.624	15.804
-38.7278	449.758	15.8235
-38.7271	452.005	15.843
-38.7245	453.436	15.8625
-38.7228	452.229	15.88208
-38.7219	445.347	15.9016
-38.7206	454.509	15.9211
-38.7183	454.398	15.9407
-38.7164	450.238	15.9602
-38.7149	446.811	15.9797
-38.7143	455.0817	15.9993
-38.7123	449.35	16.0188
-38.711	450.1622	16.03833
-38.7098	456.271	16.0579
-38.7088	451.041	16.0774
-38.7052	446.019	16.0969
-38.7036	457.223	16.1165
-38.7014	450.79	16.136
-38.6997	448.956	16.1555
-38.699	453.786	16.175
-38.69714	453.622	16.19458
-38.6955	444.6496	16.2141
-38.69363	453.138	16.2336
-38.69305	453.424	16.2532
-38.6911	448.405	16.2727
-38.6897	452.941	16.2922
-38.6872	453.182	16.3118
-38.6854	443.578	16.3313
-38.6846	450.808	16.35083
-38.6825	454.276	16.3704
-38.6813	449.793	16.3899
-38.6802	446.9292	16.4094
-38.67765	451.232	16.429
-38.6756	448.883	16.4485
-38.6746	447.054	16.468
-38.6733	452.64	16.4875
-38.6717	450.9809	16.50708
-38.6699	448.14	16.5266
-38.6667	448.639	16.5461
-38.6677	451.627	16.5657
-38.6648	444.943	16.5852
-38.6623	448.516	16.6047
-38.6618	453.806	16.6243
-38.66	448.724	16.6438
-38.6587	443.377	16.66333
-38.6573	452.001	16.6829
-38.6546	446.999	16.7024
-38.6522	446.978	16.7219
-38.6521	451.48	16.7415
-38.6496	448.189	16.761
-38.6481	441.857	16.7805
-38.6467	451.944	16.8
-38.6444	449.529	16.81958
-38.64444	443.235	16.8391
-38.6412	447.41	16.8586
-38.641	450.042	16.8782
-38.6387	442.412	16.8977
-38.6371	448.502	16.9172
-38.6359	448.935	16.9368
-38.634	444.146	16.9563
-38.6317	446.221	16.97583
-38.6313	447.252	16.9954
-38.6281	442.28	17.0149
-38.627	443.351	17.0344
-38.6257	450.754	17.054
-38.6235	446.731	17.0735
-38.6225	443.505	17.093
-38.61948	444.41	17.1125
-38.6189	446.585	17.13208
-38.61771	442.975	17.1516
-38.6158	446.27	17.1711
-38.615	447.81	17.1907
-38.6121	443.845	17.2102
-38.6112	440.1167	17.2297
-38.6085	449.424	17.2493
-38.6076	441.892	17.2688
-38.6068	443.5365	17.28833
-38.6051	448.469	17.3079
-38.6023	443.164	17.3274
-38.6011	437.539	17.3469
-38.5994	448.445	17.3665
-38.598	442.448	17.386
-38.59621	442.372	17.4055
-38.5941	447.141	17.425
-38.5938	445.132	17.44458
-38.5916	434.979	17.4641
-38.5894	446.977	17.4836
-38.5875	445.397	17.5032
-38.5868	441.762	17.5227
-38.5854	441.411	17.5422
-38.583	445.029	17.5618
-38.582	438.381	17.5813
-38.5802	440.75	17.60083
-38.5782	443.853	17.6204
-38.576	440.1	17.6399
-38.5751	439.913	17.6594
-38.5725	444.584	17.679
-38.5723	439.754	17.6985
-38.5713	437.5386	17.718
-38.5691	445.307	17.7375
-38.567	442.461	17.75708
-38.5649	438.854	17.7766
-38.5646	438.981	17.7961
-38.5625	441.6886	17.8157
-38.5611	437.114	17.8352
-38.5576	442.587	17.8547
-38.5569	443.039	17.8743
-38.55545	439.282	17.8938
-38.554	435.433	17.91333
-38.553	444.752	17.9329
-38.5506	438.099	17.9524
-38.5498	438.7883	17.9719
-38.5489	442.958	17.9915
-38.547	441.466	18.011
-38.5437	432.708	18.0305
-38.5417	442.216	18.05
-38.5406	440.663	18.06958
-38.5384	436.028	18.0891
-38.5378	442.175	18.1086
-38.5369	442.2616	18.1282
-38.53487	431.828	18.1477
-38.5336	440.97	18.1672
-38.5315	442.707	18.1868
-38.53	437.248	18.2063
-38.5275	436.952	18.22583
-38.5263	441.372	18.2454
-38.52515	435.776	18.2649
-38.52335	436.326	18.2844
-38.5202	441.2204	18.304
-38.5192	436.903	18.3235
-38.5186	436.754	18.343
-38.5167	438.759	18.3625
-38.51453	437.967	18.38208
-38.5136	434.559	18.4016
-38.5112	441.0209	18.4211
-38.5112	441.37	18.4407
-38.50985	436.185	18.4602
-38.5061	433.686	18.4797
-38.5046	441.983	18.4993
-38.5035	435.373	18.5188
-38.5018	437.107	18.53833
-38.50013	440.506	18.5579
-38.4983	437.559	18.5774
-38.49757	431.0813	18.5969
-38.4954	443.059	18.6165
-38.4932	437.4939	18.636
-38.4917	434.2475	18.6555
-38.49	438.787	18.675
-38.48877	439.335	18.69458
-38.48732	429.795	18.7141
-38.4845	437.487	18.7336
-38.4841	438.024	18.7532
-38.4835	434.664	18.7727
-38.4815	436.668	18.7922
-38.4801	438.833	18.8118
-38.4769	430.756	18.8313
-38.47649	435.482	18.85083
-38.4741	440.608	18.8704
-38.472	435.466	18.8899
-38.4709	433.9115	18.9094
-38.4695	436.777	18.929
-38.4685	433.435	18.9485
-38.4662	433.939	18.968
-38.4649	438.167	18.9875
-38.4632	435.882	19.00708
-38.4619	433.918	19.0266
-38.4601	434.886	19.0461
-38.458	438.793	19.0657
-38.4559	432.099	19.0852
-38.45496	435.504	19.1047
-38.4526	438.783	19.1243
-38.4521	436.588	19.1438
-38.4503	430.214	19.16333
-38.4489	439.826	19.1829
-38.4472	432.132	19.2024
-38.4459	434.9155	19.2219
-38.4439	438.005	19.2415
-38.44112	435.838	19.261
-38.4395	425.842	19.2805
-38.4381	438.816	19.3
-38.4368	434.675	19.31958
-38.4343	430.4176	19.3391
-38.4322	435.033	19.3586
-38.4322	439.382	19.3782
-38.4309	429.25	19.3977
-38.4295	435.968	19.4172
-38.4272	437.165	19.4368
-38.4257	431.117	19.4563
-38.4246	434.203	19.47583
-38.4237	437.118	19.4954
-38.4204	430.526	19.5149
-38.4186	431.421	19.5344
-38.4183	439.437	19.554
-38.416	433.684	19.5735
-38.4138	431.232	19.593
-38.4116	434.1828	19.6125
-38.4113	434.444	19.63208
-38.4093	430.744	19.6516
-38.40731	436.828	19.6711
-38.4064	434.014	19.6907
-38.4036	431.81	19.7102
-38.40263	431.421	19.7297
-38.4007	437.939	19.7493
-38.3986	429.225	19.7688
-38.398	431.694	19.78833
-38.3962	437.049	19.8079
-38.3944	433.406	19.8274
-38.393	427.748	19.8469
-38.3925	437.171	19.8665
-38.38969	433.083	19.886
-38.3879	432.446	19.9055
-38.3867	435.8588	19.925
-38.3855	434.656	19.94458
-38.38406	425.74	19.9641
-38.3816	436.065	19.9836
-38.3799	435.379	20.0032
-38.3789	429.8197	20.0129

Data Header:			0.254_hd_dimension_typeiv_090_r0			Time:	33.3391	s	4/14/2019 12:39:02 AM
Data Acquisition:	Timed
Station Name:	ft40.cfg
Test File Name:	monotonic_0.2540_typeiv_hd_090_dimension.tst
Displacement	Force	Running Time
mm	N	s
-38.378	429.894	20.0227
-38.3774	430.224	20.0325
-38.3772	433.464	20.0422
-38.3757	435.452	20.052
-38.3751	434.818	20.0618
-38.3748	434.1713	20.0715
-38.373	428.938	20.0813
-38.373	429.9	20.0911
-38.372	433.481	20.10083
-38.3714	434.991	20.1106
-38.3706	435.345	20.1204
-38.3692	433.57	20.1301
-38.3683	432.353	20.1399
-38.3682	431.827	20.1497
-38.3671	430.315	20.1594
-38.3659	432.6564	20.1692
-38.3651	435.051	20.179
-38.3647	437.018	20.1887
-38.3627	431.44	20.1985
-38.3622	431.764	20.2083
-38.3613	429.607	20.218
-38.3617	434.7	20.2278
-38.3606	434.087	20.2375
-38.3594	432.45	20.2473
-38.3578	433.645	20.25708
-38.3587	432.047	20.2668
-38.3571	430.375	20.2766
-38.3573	430.094	20.2864
-38.3555	431.237	20.2961
-38.3551	436.915	20.3059
-38.35342	434.974	20.3157
-38.3525	432.641	20.3254
-38.3521	429.252	20.3352
-38.3513	428.964	20.345
-38.351	435.4234	20.3547
-38.3502	432.618	20.3645
-38.3496	435.5126	20.3743
-38.34724	436.005	20.384
-38.3481	431.044	20.3938
-38.3459	429.893	20.4036
-38.3459	426.967	20.41333
-38.3444	434.352	20.4231
-38.3439	437.091	20.4329
-38.343	435.269	20.4426
-38.3422	430.554	20.4524
-38.3421	429.199	20.4622
-38.3414	430.436	20.4719
-38.3387	431.447	20.4817
-38.3393	435.716	20.4915
-38.3381	436.43	20.5012
-38.3374	432.984	20.511
-38.338	428.111	20.5208
-38.3368	426.7981	20.5305
-38.3356	430.601	20.5403
-38.3343	436.124	20.55
-38.3337	437.283	20.5598
-38.3327	432.7952	20.56958
-38.3329	427.488	20.5793
-38.331	430.328	20.5891
-38.3307	426.133	20.5989
-38.3292	434.813	20.6086
-38.329	435.845	20.6184
-38.3273	433.564	20.6282
-38.3279	432.945	20.6379
-38.3253	424.573	20.6477
-38.3257	428.6868	20.6575
-38.3247	432.008	20.6672
-38.3247	435.609	20.677
-38.32304	435.768	20.6868
-38.3224	429.993	20.6965
-38.32169	430.604	20.7063
-38.321	429.1337	20.7161
-38.3198	429.824	20.72583
-38.3184	433.022	20.7356
-38.319	434.613	20.7454
-38.3171	435.629	20.7551
-38.3176	427.495	20.7649
-38.3159	427.2283	20.7747
-38.3149	430.854	20.7844
-38.314	434.265	20.7942
-38.3128	433.616	20.804
-38.3113	430.487	20.8137
-38.3107	431.488	20.8235
-38.3109	430.472	20.8333
-38.3105	430.067	20.843
-38.3092	429.284	20.8528
-38.3082	433.271	20.8625
-38.307	436.959	20.8723
-38.307	431.969	20.88208
-38.306	430.565	20.8918
-38.3046	427.048	20.9016
-38.3048	431.878	20.9114
-38.3038	432.6366	20.9211
-38.30262	431.425	20.9309
-38.3016	435.03	20.9407
-38.3011	432.327	20.9504
-38.3005	429.656	20.9602
-38.2994	427.295	20.97
-38.2992	427.7402	20.9797
-38.2983	435.624	20.9895
-38.2971	434.77	20.9993
-38.2955	433.489	21.009
-38.2937	429.369	21.0188
-38.2946	428.531	21.0286
-38.2945	431.908	21.03833
-38.2929	428.774	21.0481
-38.2921	436.077	21.0579
-38.292	436.623	21.0676
-38.2903	430.706	21.0774
-38.2906	427.993	21.0872
-38.2891	426.35	21.0969
-38.2871	432.187	21.1067
-38.2868	436.412	21.1165
-38.2868	435.398	21.1262
-38.2853	432.245	21.136
-38.28429	428.049	21.1458
-38.2847	428.886	21.1555
-38.2829	429.386	21.1653
-38.2824	435.0116	21.175
-38.2819	435.5325	21.1848
-38.2812	435.04	21.19458
-38.2792	429.4743	21.2043
-38.2795	425.989	21.2141
-38.2789	428.131	21.2239
-38.2777	435.687	21.2336
-38.2767	436.512	21.2434
-38.2755	432.253	21.2532
-38.2751	428.777	21.2629
-38.2734	429.036	21.2727
-38.2732	427.035	21.2825
-38.272	432.282	21.2922
-38.2715	434.322	21.302
-38.2713	435.458	21.3118
-38.26976	434.913	21.3215
-38.2685	425.2583	21.3313
-38.2679	428.543	21.3411
-38.26757	430.2052	21.35083
-38.266	434.0697	21.3606
-38.2658	434.937	21.3704
-38.2648	428.108	21.3801
-38.2648	430.006	21.3899
-38.2631	427.926	21.3997
-38.2624	428.514	21.4094
-38.2613	431.313	21.4192
-38.2607	432.282	21.429
-38.2603	436.574	21.4387
-38.2591	429.71	21.4485
-38.2592	428.645	21.4583
-38.258	428.921	21.468
-38.2576	431.87	21.4778
-38.2565	432.74	21.4875
-38.2568	432.111	21.4973
-38.2558	431.419	21.50708
-38.2541	431.339	21.5168
-38.2533	428.035	21.5266
-38.2513	427.832	21.5364
-38.2521	431.285	21.5461
-38.2514	434.512	21.5559
-38.2501	431.973	21.5657
-38.2498	430.25	21.5754
-38.2473	426.878	21.5852
-38.2475	431.04	21.595
-38.2464	431.3157	21.6047
-38.2453	430.656	21.6145
-38.2459	433.578	21.6243
-38.2436	431.7717	21.634
-38.2426	430.218	21.6438
-38.24308	426.517	21.6536
-38.2412	423.836	21.66333
-38.2407	432.881	21.6731
-38.2407	434.119	21.6829
-38.2396	435.442	21.6926
-38.2384	428.781	21.7024
-38.2374	425.233	21.7122
-38.2366	428.238	21.7219
-38.2355	427.75	21.7317
-38.2351	435.621	21.7415
-38.2347	434.89	21.7512
-38.2328	431.126	21.761
-38.2319	427.724	21.7708
-38.2327	423.466	21.7805
-38.23188	428.941	21.7903
-38.2307	436.534	21.8
-38.2302	434.004	21.8098
-38.2271	431.726	21.81958
-38.2281	425.504	21.8293
-38.2268	428.452	21.8391
-38.227	426.813	21.8489
-38.2253	430.694	21.8586
-38.2242	434.261	21.8684
-38.2227	433.644	21.8782
-38.2232	430.2	21.8879
-38.2214	424.67	21.8977
-38.22168	427.1196	21.9075
-38.2202	431.017	21.9172
-38.2197	435.967	21.927
-38.2189	432.6405	21.9368
-38.2177	430.451	21.9465
-38.2174	428.341	21.9563
-38.2165	426.725	21.9661
-38.2159	429.378	21.97583
-38.2153	430.501	21.9856
-38.215	434.0491	21.9954
-38.2125	433.917	22.0051
-38.2127	424.855	22.0149
-38.2122	427.684	22.0247
-38.2109	426.5968	22.0344
-38.21043	431.999	22.0442
-38.2092	433.832	22.054
-38.2067	428.629	22.0637
-38.2084	430.486	22.0735
-38.2058	429.457	22.0833
-38.2059	428.6373	22.093
-38.2045	428.173	22.1028
-38.2041	431.49	22.1125
-38.2036	434.965	22.1223
-38.2023	429.0231	22.13208
-38.202	430.1937	22.1418
-38.1996	425.291	22.1516
-38.20084	428.233	22.1614
-38.1999	431.473	22.1711
-38.1993	430.128	22.1809
-38.1973	432.18	22.1907
-38.1969	431.866	22.2004
-38.1963	428.828	22.2102
-38.1954	427.162	22.22
-38.1953	428.131	22.2297
-38.1943	434.388	22.2395
-38.193	434.221	22.2493
-38.1925	431.369	22.259
-38.1906	426.337	22.2688
-38.1905	428.112	22.2786
-38.1897	427.2468	22.28833
-38.1877	429.481	22.2981
-38.1883	432.245	22.3079
-38.1878	432.843	22.3176
-38.1866	431.106	22.3274
-38.1867	425.5907	22.3372
-38.1834	424.109	22.3469
-38.18362	430.9476	22.3567
-38.1835	433.333	22.3665
-38.1812	433.015	22.3762
-38.1816	427.331	22.386
-38.18005	426.063	22.3958
-38.1797	427.719	22.4055
-38.179	425.516	22.4153
-38.1785	432.7587	22.425
-38.1772	433.2525	22.4348
-38.17691	432.593	22.44458
-38.1758	430.466	22.4543
-38.1753	421.797	22.4641
-38.1731	428.5466	22.4739
-38.1743	432.433	22.4836
-38.17168	433.901	22.4934
-38.1719	432.345	22.5032
-38.1715	427.359	22.5129
-38.1706	428.997	22.5227
-38.1695	426.986	22.5325
-38.1681	430.069	22.5422
-38.1677	432.346	22.552
-38.167	433.1	22.5618
-38.1659	430.576	22.5715
-38.1651	426.321	22.5813
-38.1633	425.304	22.5911
-38.16251	429.0864	22.60083
-38.1628	433.553	22.6106
-38.1608	431.597	22.6204
-38.16	431.157	22.6301
-38.15995	428.463	22.6399
-38.1594	427.118	22.6497
-38.1594	428.231	22.6594
-38.1576	429.326	22.6692
-38.1571	433.282	22.679
-38.1565	432.43	22.6887
-38.1554	427.454	22.6985
-38.1559	427.931	22.7083
-38.1542	426.825	22.718
-38.1528	430.491	22.7278
-38.1521	432.635	22.7375
-38.1506	430.139	22.7473
-38.1507	431.478	22.75708
-38.1491	428.064	22.7668
-38.1491	426.978	22.7766
-38.1483	426.786	22.7864
-38.1458	428.612	22.7961
-38.14682	434.553	22.8059
-38.145	430.088	22.8157
-38.1452	430.565	22.8254
-38.1446	427.531	22.8352
-38.1435	425.272	22.845
-38.1431	430.819	22.8547
-38.1409	429.4162	22.8645
-38.1403	432.271	22.8743
-38.1402	431.059	22.884
-38.1401	427.286	22.8938
-38.1385	424.76	22.9036
-38.1374	425.568	22.91333
-38.1375	431.991	22.9231
-38.1352	434.581	22.9329
-38.1357	432.71	22.9426
-38.1337	428.224	22.9524
-38.1339	426.321	22.9622
-38.1325	428	22.9719
-38.1318	426.844	22.9817
-38.1306	432.976	22.9915
-38.131	433.374	23.0012
-38.1299	432.433	23.011
-38.1289	425.656	23.0208
-38.1273	424.203	23.0305
-38.127	427.265	23.0403
-38.126	433.376	23.05
-38.1249	434.879	23.0598
-38.1242	428.215	23.06958
-38.1246	427.232	23.0793
-38.1223	424.404	23.0891
-38.12162	423.942	23.0989
-38.1223	431.487	23.1086
-38.1199	430.878	23.1184
-38.11964	432.94	23.1282
-38.11874	429.618	23.1379
-38.1175	422.332	23.1477
-38.1164	428.93	23.1575
-38.1156	429.753	23.1672
-38.11581	434.063	23.177
-38.1139	432.313	23.1868
-38.1137	426.847	23.1965
-38.1129	428.624	23.2063
-38.1127	424.892	23.2161
-38.1118	427.537	23.22583
-38.1102	430.3382	23.2356
-38.11	431.687	23.2454
-38.1094	433.54	23.2551
-38.1088	425.957	23.2649
-38.1077	424.786	23.2747
-38.1056	427.93	23.2844
-38.1064	430.627	23.2942
-38.1045	431.566	23.304
-38.1042	430.044	23.3137
-38.103	429.132	23.3235
-38.1028	429.644	23.3333
-38.1007	425.986	23.343
-38.1005	426.75	23.3528
-38.1001	430.898	23.3625
-38.0985	433.057	23.3723
-38.0987	429.27	23.38208
-38.0971	429.505	23.3918
-38.0977	425.5282	23.4016
-38.0954	428.767	23.4114
-38.0955	429.778	23.4211
-38.0953	429.1012	23.4309
-38.0939	431.872	23.4407
-38.0935	430.499	23.4504
-38.0919	428.187	23.4602
-38.0916	425.748	23.47
-38.0907	425.716	23.4797
-38.08873	433.504	23.4895
-38.0875	431.067	23.4993
-38.0881	431.186	23.509
-38.0871	426.525	23.5188
-38.0869	426.173	23.5286
-38.08596	429.153	23.53833
-38.0848	427.2005	23.5481
-38.08387	434.466	23.5579
-38.0826	432.212	23.5676
-38.082	428.3869	23.5774
-38.0808	425.911	23.5872
-38.0793	421.631	23.5969
-38.0806	430.333	23.6067
-38.0786	431.915	23.6165
-38.0788	430.828	23.6262
-38.0768	429.058	23.636
-38.0766	424.201	23.6458
-38.07592	425.411	23.6555
-38.076	425.395	23.6653
-38.0739	430.679	23.675
-38.0732	433.343	23.6848
-38.0725	431.0936	23.69458
-38.0709	426.846	23.7043
-38.0708	422.347	23.7141
-38.0691	425.2182	23.7239
-38.069	431.959	23.7336
-38.0683	432.799	23.7434
-38.0681	430.5618	23.7532
-38.0669	426.997	23.7629
-38.06562	426.022	23.7727
-38.0652	423.353	23.7825
-38.0641	429.948	23.7922
-38.0637	430.976	23.802
-38.0628	432.4108	23.8118
-38.0605	429.803	23.8215
-38.0605	423.1207	23.8313
-38.0605	425.254	23.8411
-38.0605	427.706	23.85083
-38.0586	432.97	23.8606
-38.0587	431.8306	23.8704
-38.05727	427.697	23.8801
-38.0561	428.226	23.8899
-38.0553	424.519	23.8997
-38.054	428.022	23.9094
-38.0534	429.307	23.9192
-38.0538	430.855	23.929
-38.05201	434.595	23.9387
-38.05027	425.965	23.9485
-38.0493	425.095	23.9583
-38.049	427.308	23.968
-38.0496	428.404	23.9778
-38.0477	431.089	23.9875
-38.04792	430.064	23.9973
-38.04562	429.415	24.00708
-38.0448	429.176	24.0168
-38.0444	426.092	24.0266
-38.0431	426.815	24.0364
-38.04314	428.058	24.0461
-38.0427	432.089	24.0559
-38.0412	430.611	24.0657
-38.0403	429.079	24.0754
-38.0396	424.076	24.0852
-38.0385	426.592	24.095
-38.0385	427.685	24.1047
-38.0374	428.6825	24.1145
-38.037	431.438	24.1243
-38.0367	429.474	24.134
-38.0352	427.784	24.1438
-38.03513	423.46	24.1536
-38.0337	423.433	24.16333
-38.0327	429.749	24.1731
-38.0318	430.923	24.1829
-38.0314	432.733	24.1926
-38.0303	426.92	24.2024
-38.0283	424.9	24.2122
-38.0276	428.358	24.2219
-38.0271	425.678	24.2317
-38.02697	432.508	24.2415
-38.0253	433.366	24.2512
-38.0254	429.357	24.261
-38.0235	426.277	24.2708
-38.0246	421.971	24.2805
-38.0225	427.182	24.2903
-38.0208	433.127	24.3
-38.021	431.799	24.3098
-38.0195	429.866	24.31958
-38.019	425.098	24.3293
-38.0185	426.395	24.3391
-38.0184	425.176	24.3489
-38.0182	429.313	24.3586
-38.0174	432.317	24.3684
-38.0158	431.99	24.3782
-38.01432	427.335	24.3879
-38.0152	421.556	24.3977
-38.0128	423.801	24.4075
-38.0118	431.262	24.4172
-38.0115	431.787	24.427
-38.0106	431.456	24.4368
-38.0101	428.184	24.4465
-38.0096	426.419	24.4563
-38.0082	424.62	24.4661
-38.0068	428.674	24.47583
-38.0072	429.383	24.4856
-38.0047	431.65	24.4954
-38.0048	430.98	24.5051
-38.0027	424.886	24.5149
-38.00338	425.476	24.5247
-38.002	425.909	24.5344
-38.0012	431.144	24.5442
-38.0005	431.326	24.554
-37.9998	427.486	24.5637
-37.9986	428.427	24.5735
-37.99868	426.082	24.5833
-37.9968	426.756	24.593
-37.9972	426.557	24.6028
-37.9959	428.8674	24.6125
-37.99548	433.414	24.6223
-37.994	425.954	24.63208
-37.9928	426.823	24.6418
-37.9925	426.244	24.6516
-37.99226	426.406	24.6614
-37.9907	430.914	24.6711
-37.9896	428.9	24.6809
-37.9891	429.793	24.6907
-37.9888	429.712	24.7004
-37.9877	424.941	24.7102
-37.9869	424.509	24.72
-37.9851	424.665	24.7297
-37.9846	431.338	24.7395
-37.9847	430.51	24.7493
-37.984	429.386	24.759
-37.9821	425.514	24.7688
-37.9809	424.647	24.7786
-37.9809	426.439	24.78833
-37.9808	427.578	24.7981
-37.9794	429.015	24.8079
-37.9785	430.73	24.8176
-37.9785	429.9805	24.8274
-37.97628	423.4	24.8372
-37.9768	423.375	24.8469
-37.9746	428.026	24.8567
-37.975	431.642	24.8665
-37.9744	432.126	24.8762
-37.9735	427.618	24.886
-37.9722	424.616	24.8958
-37.972	425.771	24.9055
-37.9716	421.899	24.9153
-37.9699	432.03	24.925
-37.9689	432.0791	24.9348
-37.9673	430.198	24.94458
-37.9662	425.952	24.9543
-37.967	420.335	24.9641
-37.9656	426.5965	24.9739
-37.9641	430.631	24.9836
-37.9648	431.616	24.9934
-37.9635	430.43	25.0032
-37.9622	424.846	25.0129
-37.9609	424.636	25.0227
-37.9619	422.3063	25.0325
-37.9605	428.066	25.0422
-37.9594	431.156	25.052
-37.9581	431.856	25.0618
-37.9574	428.554	25.0715
-37.957	422.731	25.0813
-37.9565	422.493	25.0911
-37.9558	427.263	25.10083
-37.955	429.023	25.1106
-37.954	429.679	25.1204
-37.9527	427.523	25.1301
-37.9523	425.998	25.1399
-37.9507	424.143	25.1497
-37.9503	424.683	25.1594
-37.9506	426.588	25.1692
-37.94854	429.91	25.179
-37.948	431.757	25.1887
-37.9478	425.487	25.1985
-37.9457	425.366	25.2083
-37.9454	424.441	25.218
-37.9446	428.64	25.2278
-37.9442	429.063	25.2375
-37.9427	428.442	25.2473
-37.9422	428.1601	25.25708
-37.9413	426.215	25.2668
-37.9398	425.65	25.2766
-37.9394	424.325	25.2864
-37.9389	427.577	25.2961
-37.938	432.556	25.3059
-37.9381	426.789	25.3157
-37.9364	428.923	25.3254
-37.9365	425.183	25.3352
-37.93615	424.9516	25.345
-37.9346	427.851	25.3547
-37.9328	425.904	25.3645
-37.9328	430.406	25.3743
-37.9319	431.221	25.384
-37.93045	424.676	25.3938
-37.9291	424.2399	25.4036
[...]
-37.9139	422.732	25.5989
-37.913	428.728	25.6086
-37.9119	430.422	25.6184
-37.9123	431.447	25.6282
-37.9108	427.832	25.6379
-37.9083	421.002	25.6477
-37.9086	424.1394	25.6575
-37.9076	426.793	25.6672
-37.9076	431.201	25.677
-37.9056	430.6799	25.6868
-37.9053	425.276	25.6965
-37.9043	427.462	25.7063
-37.9046	421.7	25.7161
-37.9025	425.263	25.72583
-37.9022	428.889	25.7356
-37.90168	430.106	25.7454
-37.9011	430.416	25.7551
-37.9003	422.159	25.7649
-37.8989	423.131	25.7747
-37.8983	426.7536	25.7844
-37.89682	427.904	25.7942
-37.8969	429.459	25.804
-37.8954	428.392	25.8137
-37.8953	426.409	25.8235
-37.8947	425.802	25.8333
-37.8929	422.965	25.843
-37.8925	424.224	25.8528
-37.8928	429.442	25.8625
-37.8899	429.968	25.8723
-37.8896	426.462	25.88208
-37.8886	424.347	25.8918
-37.8881	423.914	25.9016
-37.8891	427.175	25.9114
-37.8861	425.344	25.9211
-37.8846	426.833	25.9309
-37.8845	428.967	25.9407
-37.8836	426.5936	25.9504
-37.883	425.3436	25.9602
-37.8833	421.938	25.97
-37.88269	425.802	25.9797
-37.8801	431.242	25.9895
-37.8807	427.931	25.9993
-37.8799	428.217	26.009
-37.8782	425.0097	26.0188
-37.8788	424.601	26.0286
-37.8771	426.802	26.03833
-37.8766	423.5119	26.0481
-37.8756	430.459	26.0579
-37.8746	428.918	26.0676
-37.87373	426.148	26.0774
-37.8735	424.637	26.0872
-37.8723	420.952	26.0969
-37.8726	428.2	26.1067
-37.8703	430.714	26.1165
-37.87	429.985	26.1262
-37.868	426.035	26.136
-37.8682	422.894	26.1458
-37.86779	423.134	26.1555
-37.8663	422.592	26.1653
-37.8658	428.327	26.175
-37.8641	431.2327	26.1848
-37.8644	430.1868	26.19458
-37.8635	423.201	26.2043
-37.8635	421.139	26.2141
-37.8621	421.513	26.2239
-37.8606	431.484	26.2336
-37.8585	431.031	26.2434
-37.85915	428.374	26.2532
-37.8573	424.99	26.2629
-37.8573	424.031	26.2727
-37.8571	421.499	26.2825
-37.8553	426.7374	26.2922
-37.8552	427.418	26.302
-37.855	431.87	26.3118
-37.8535	427.388	26.3215
-37.8529	421.207	26.3313
-37.8512	422.8	26.3411
-37.851	426.096	26.35083
-37.8494	430.7485	26.3606
-37.8491	429.0593	26.3704
-37.8481	424.682	26.3801
-37.8474	428.152	26.3899
-37.8474	421.5657	26.3997
-37.8466	422.421	26.4094
-37.8446	428.32	26.4192
-37.8446	427.0325	26.429
-37.8444	430.704	26.4387
-37.8426	422.962	26.4485
-37.8414	423.453	26.4583
-37.8414	423.5585	26.468
-37.8411	424.817	26.4778
-37.8396	429.916	26.4875
-37.8392	425.697	26.4973
-37.8375	427.241	26.50708
-37.8379	426.798	26.5168
-37.83691	422.267	26.5266
-37.83609	421.92	26.5364
-37.835	427.087	26.5461
-37.834	429.799	26.5559
-37.8336	426.295	26.5657
-37.83271	426.34	26.5754
-37.8318	423.462	26.5852
-37.8301	425.568	26.595
-37.8295	425.3125	26.6047
-37.8287	425.5043	26.6145
-37.82996	428.6019	26.6243
-37.8276	428.6434	26.634
-37.8264	426.191	26.6438
-37.82608	422.543	26.6536
-37.8246	421.14	26.66333
-37.8237	428.2424	26.6731
-37.823	427.9534	26.6829
-37.8217	430.689	26.6926
-37.8216	424.241	26.7024
-37.8203	423.131	26.7122
-37.8191	424.531	26.7219
-37.82	423.367	26.7317
-37.81945	429.489	26.7415
-37.817	427.803	26.7512
-37.8163	427.592	26.761
-37.816	423.186	26.7708
-37.8159	418.274	26.7805
-37.8142	425.753	26.7903
-37.8132	427.851	26.8
-37.8126	429.195	26.8098
-37.8125	426.722	26.81958
-37.8126	421.563	26.8293
-37.8105	423.301	26.8391
-37.8096	421.836	26.8489
-37.8083	426.108	26.8586
-37.80732	430.403	26.8684
-37.8071	429.018	26.8782
-37.8059	426.541	26.8879
-37.8045	420.006	26.8977
-37.8041	422.591	26.9075
-37.8031	428.572	26.9172
-37.8031	428.962	26.927
-37.8014	428.573	26.9368
-37.8009	424.622	26.9465
-37.7997	423.589	26.9563
-37.8002	422.19	26.9661
-37.7993	425.963	26.97583
-37.7975	425.964	26.9856
-37.79792	429.033	26.9954
-37.7955	428.812	27.0051
-37.7959	420.096	27.0149
-37.79517	422.678	27.0247
-37.7941	423.246	27.0344
-37.7929	429.068	27.0442
-37.7931	427.251	27.054
-37.7924	426.64	27.0637
-37.7917	426.441	27.0735
-37.7902	421.479	27.0833
-37.7896	422.669	27.093
-37.7884	424.623	27.1028
-37.7874	427.228	27.1125
-37.7858	430.812	27.1223
-37.7863	425.225	27.13208
-37.7849	424.485	27.1418
-37.7841	424.318	27.1516
-37.7823	423.6319	27.1614
-37.7826	427.321	27.1711
-37.7819	424.3317	27.1809
-37.7811	428.699	27.1907
-37.7795	427.166	27.2004
-37.7793	421.833	27.2102
-37.7783	422.246	27.22
-37.7776	422.1532	27.2297
-37.7767	429.473	27.2395
-37.7763	427.624	27.2493
-37.7748	427.495	27.259
-37.7754	424.728	27.2688
-37.7726	420.923	27.2786
-37.7723	424.022	27.28833
-37.77206	423.929	27.2981
-37.7715	428.372	27.3079
-37.77	428.729	27.3176
-37.7693	426.817	27.3274
-37.7682	420.765	27.3372
-37.7678	420.1666	27.3469
-37.7677	425.58	27.3567
-37.766	428.128	27.3665
-37.7651	428.8974	27.3762
-37.7648	424.2251	27.386
-37.7643	422.381	27.3958
-37.7638	422.238	27.4055
-37.7619	422.242	27.4153
-37.7602	429.219	27.425
-37.7614	427.917	27.4348
-37.7593	428.866	27.44458
-37.7597	422.968	27.4543
-37.7574	417.785	27.4641
-37.7569	422.911	27.4739
-37.7564	425.8045	27.4836
-37.7554	429.765	27.4934
-37.7554	428.891	27.5032
-37.7531	422.822	27.5129
-37.7541	425.486	27.5227
-37.7531	418.378	27.5325
-37.7526	425.0719	27.5422
-37.7506	427.713	27.552
-37.7492	428.666	27.5618
-37.7495	427.81	27.5715
-37.74926	420.653	27.5813
-37.7478	420.293	27.5911
-37.7475	426.533	27.60083
-37.7457	426.356	27.6106
-37.744	427.226	27.6204
-37.745	425.46	27.6301
-37.7435	424.492	27.6399
-37.74305	422.291	27.6497
-37.7422	422.409	27.6594
-37.7416	423.168	27.6692
-37.74052	427.88	27.679
-37.7407	427.881	27.6887
-37.7382	423.016	27.6985
-37.7375	421.994	27.7083
-37.7376	421.749	27.718
-37.7355	424.616	27.7278
-37.7346	425.204	27.7375
-37.7343	425.386	27.7473
-37.7346	427.048	27.75708
-37.7338	424.723	27.7668
-37.7327	422.924	27.7766
-37.7318	421.886	27.7864
-37.7297	425.211	27.7961
-37.7286	430.12	27.8059
-37.7289	422.571	27.8157
-37.7279	425.15	27.8254
-37.7271	421.353	27.8352
-37.72554	423.649	27.845
-37.7259	424.774	27.8547
-37.72435	423.827	27.8645
-37.7238	427.49	27.8743
-37.72345	428.712	27.884
-37.72192	423.867	27.8938
-37.7213	420.857	27.9036
-37.7208	420.511	27.91333
-37.71936	426.634	27.9231
-37.7203	428.061	27.9329
-37.71801	427.091	27.9426
-37.7175	423.276	27.9524
-37.717	422.06	27.9622
-37.716	422.24	27.9719
-37.7155	422.0386	27.9817
-37.7141	427.477	27.9915
-37.7137	429.44	28.0012
-37.713	426.723	28.011
-37.7121	420.7	28.0208
-37.7101	418.607	28.0305
-37.70932	424.36	28.0403
-37.7104	428.415	28.05
-37.7083	428.678	28.0598
-37.708	424.565	28.06958
-37.7079	423.45	28.0793
-37.7055	421.843	28.0891
-37.7056	419.2876	28.0989
-37.7053	425.608	28.1086
-37.7047	427.449	28.1184
-37.7035	428.129	28.1282
-37.7025	424.237	28.1379
-37.7015	416.836	28.1477
-37.7011	420.78	28.1575
-37.6993	424.098	28.1672
-37.6998	427.538	28.177
-37.6981	427.142	28.1868
-37.6975	423.238	28.1965
-37.6976	424.727	28.2063
-37.6955	418.815	28.2161
-37.6946	424.634	28.22583
-37.6946	425.836	28.2356
-37.6928	426.951	28.2454
-37.69215	427.627	28.2551
-37.6899	418.54	28.2649
-37.6906	420.783	28.2747
-37.6896	423.258	28.2844
-37.68877	425.255	28.2942
-37.6884	425.583	28.304
-37.6859	423.91	28.3137
-37.68758	423.945	28.3235
-37.6851	421.235	28.3333
-37.6854	419.8562	28.343
-37.68396	420.838	28.3528
-37.6841	425.191	28.3625
-37.6825	426.341	28.3723
-37.6814	423.777	28.38208
-37.681	422.148	28.3918
-37.6799	420.934	28.4016
-37.6794	424.706	28.4114
-37.6787	424.112	28.4211
-37.6773	424.831	28.4309
-37.6768	425.627	28.4407
-37.6765	423.611	28.4504
-37.6757	421.915	28.4602
-37.6739	420.396	28.47
-37.6739	423.028	28.4797
-37.6723	427.602	28.4895
-37.6714	424.44	28.4993
-37.6715	425.518	28.509
-37.6708	421.613	28.5188
-37.669	421.596	28.5286
-37.668	423.548	28.53833
-37.6669	421.379	28.5481
-37.6665	427.199	28.5579
-37.6667	427.866	28.5676
-37.6657	424.833	28.5774
-37.6632	421.101	28.5872
-37.6641	417.026	28.5969
-37.6623	428.323	28.6067
-37.662	427.672	28.6165
-37.6603	428.4256	28.6262
-37.6603	425.253	28.636
-37.6589	420.902	28.6458
-37.6591	423.139	28.6555
-37.6593	420.505	28.6653
-37.65778	426.108	28.675
-37.6566	428.278	28.6848
-37.6563	426.398	28.69458
-37.6547	421.636	28.7043
-37.6538	418.84	28.7141
-37.6529	420.747	28.7239
-37.6523	427.1445	28.7336
-37.652	426.455	28.7434
-37.6521	425.403	28.7532
-37.6499	421.893	28.7629
-37.6488	421.457	28.7727
-37.6478	418.9592	28.7825
-37.6471	425.1171	28.7922
-37.647	424.983	28.802
-37.6457	428.113	28.8118
-37.6446	424.186	28.8215
-37.6435	418.502	28.8313
-37.6431	418.964	28.8411
-37.643	423.817	28.85083
-37.6423	427.575	28.8606
-37.6401	426.239	28.8704
-37.6407	422.79	28.8801
-37.6384	425.649	28.8899
-37.63784	418.418	28.8997
-37.6387	422.514	28.9094
-37.6376	424.329	28.9192
-37.6357	426.456	28.929
-37.6352	428.14	28.9387
-37.6363	419.6644	28.9485
-37.6337	420.456	28.9583
-37.63253	421.475	28.968
-37.6321	423.931	28.9778
-37.6311	424.795	28.9875
-37.6311	423.323	28.9973
-37.6305	425.196	29.00708
-37.6287	423.613	29.0168
-37.6273	420.277	29.0266
-37.6262	423.243	29.0364
-37.6263	423.926	29.0461
-37.6249	427.01	29.0559
-37.6257	424.864	29.0657
-37.6232	423.246	29.0754
-37.6231	420.432	29.0852
-37.6211	422.489	29.095
-37.6222	422.637	29.1047
-37.6204	423.77	29.1145
-37.6206	425.3028	29.1243
-37.6189	426.39	29.134
-37.6175	422.807	29.1438
-37.6178	417.708	29.1536
-37.6165	420.734	29.16333
-37.6167	425.234	29.1731
-37.6155	425.274	29.1829
-37.6125	426.865	29.1926
-37.61351	422.339	29.2024
-37.6135	421.041	29.2122
-37.6116	420.25	29.2219
-37.6111	420.668	29.2317
-37.6097	425.66	29.2415
-37.6094	426.822	29.2512
-37.6086	426.09	29.261
-37.6082	419.366	29.2708
-37.6077	416.577	29.2805
-37.6055	421.878	29.2903
-37.6046	424.951	29.3
-37.605	427.012	29.3098
-37.6029	426.021	29.31958
-37.6028	419.957	29.3293
-37.602	421.87	29.3391
-37.6015	418.047	29.3489
-37.5999	424.249	29.3586
-37.59837	427.303	29.3684
-37.5988	426.189	29.3782
-37.5986	423.459	29.3879
-37.5965	417.01	29.3977
-37.5961	420.032	29.4075
-37.59486	423.69	29.4172
-37.5947	425.622	29.427
-37.5945	425.707	29.4368
-37.5936	422.702	29.4465
-37.5919	420.799	29.4563
-37.59148	418.109	29.4661
-37.5916	421.778	29.47583
-37.5899	423.268	29.4856
-37.5894	428.092	29.4954
-37.5882	423.826	29.5051
-37.5889	418.574	29.5149
-37.58765	418.505	29.5247
-37.5869	420.902	29.5344
-37.5838	424.731	29.5442
-37.5841	424.894	29.554
-37.58353	423.438	29.5637
-37.5826	422.538	29.5735
-37.5819	419.8327	29.5833
-37.5812	419.418	29.593
-37.5799	420.697	29.6028
-37.5798	424.226	29.6125
-37.5789	428.694	29.6223
-37.5783	421.027	29.63208
-37.5771	421.253	29.6418
-37.57682	421.046	29.6516
-37.5746	421.249	29.6614
-37.57439	424.595	29.6711
-37.5738	421.358	29.6809
-37.573	424.905	29.6907
-37.57156	423.01	29.7004
-37.5702	417.464	29.7102
-37.5699	419.8335	29.72
-37.5697	419.395	29.7297
-37.5682	425.493	29.7395
-37.5672	422.904	29.7493
-37.56646	423.678	29.759
-37.5664	421.134	29.7688
-37.5654	420.0137	29.7786
-37.5641	419.929	29.78833
-37.5628	420.8775	29.7981
-37.563	423.503	29.8079
-37.5623	427.942	29.8176
-37.5619	422.483	29.8274
-37.5611	418.015	29.8372
-37.5593	416.791	29.8469
-37.5592	422.3121	29.8567
-37.5574	424.378	29.8665
-37.5567	427.859	29.8762
-37.55587	421.175	29.886
-37.5551	420.1712	29.8958
-37.5544	419.385	29.9055
-37.5537	418.708	29.9153
-37.5535	425.1799	29.925
-37.5519	425.9332	29.9348
-37.5517	425.152	29.94458
-37.5505	420.239	29.9543
-37.54879	415.854	29.9641
-37.5495	421.254	29.9739
-37.5488	423.112	29.9836
-37.547	426.306	29.9934
-37.5474	422.698	30.0032
-37.5458	419.437	30.0129
-37.5449	421.541	30.0227
-37.5449	415.697	30.0325
-37.5437	421.405	30.0422
-37.5423	424.931	30.052
-37.5426	424.616	30.0618
-37.54034	424.779	30.0715
-37.5397	413.697	30.0813
-37.5388	416.248	30.0911
-37.5389	419.934	30.10083
-37.53791	423.258	30.1106
-37.5369	425.098	30.1204
-37.5361	422.3125	30.1301
-37.5352	419.875	30.1399
-37.5356	418.548	30.1497
-37.5335	418.212	30.1594
-37.5323	422.021	30.1692
-37.5322	425.246	30.179
-37.531	424.786	30.1887
-37.5299	419.54	30.1985
-37.5303	417.6282	30.2083
-37.5296	417.891	30.218
-37.5287	422.26	30.2278
-37.5273	422.361	30.2375
-37.5259	421.569	30.2473
-37.5252	423.937	30.25708
-37.52507	418.564	30.2668
-37.525	420.574	30.2766
-37.5239	415.848	30.2864
-37.5223	422.536	30.2961
-37.5205	426.089	30.3059
-37.5202	418.515	30.3157
-37.5209	420.092	30.3254
-37.51836	418.106	30.3352
-37.5182	417.157	30.345
-37.51717	421.549	30.3547
-37.5157	419.021	30.3645
-37.51556	425.704	30.3743
-37.5146	422.601	30.384
-37.5138	419.414	30.3938
-37.5141	415.728	30.4036
-37.5134	416.226	30.41333
-37.5105	424.757	30.4231
-37.5117	422.13	30.4329
-37.5094	423.101	30.4426
-37.5102	420.625	30.4524
-37.5082	416.768	30.4622
-37.5084	418.833	30.4719
-37.5065	417.952	30.4817
-37.5062	422.772	30.4915
-37.50536	424.574	30.5012
-37.50383	423.313	30.511
-37.5036	416.07	30.5208
-37.5023	414.332	30.5305
-37.5023	417.928	30.5403
-37.5007	423.308	30.55
-37.5004	424.62	30.5598
-37.4999	420.665	30.56958
-37.4991	418.498	30.5793
-37.498	415.385	30.5891
-37.4976	414.632	30.5989
-37.4981	420.9624	30.6086
-37.497	423.918	30.6184
-37.495	424.229	30.6282
-37.49361	418.454	30.6379
-37.4921	412.845	30.6477
-37.4918	418.326	30.6575
-37.4908	418.688	30.6672
-37.4918	424.741	30.677
-37.4892	421.469	30.6868
-37.4895	418.9668	30.6965
-37.4875	419.677	30.7063
-37.4874	413.693	30.7161
-37.4863	419.163	30.72583
-37.4854	422.651	30.7356
-37.4844	423.28	30.7454
-37.4837	424.212	30.7551
-37.4826	413.573	30.7649
-37.48185	415.733	30.7747
-37.4809	418.282	30.7844
-37.4805	421.015	30.7942
-37.4803	421.25	30.804
-37.4785	420.515	30.8137
-37.47821	419.811	30.8235
-37.4774	417.085	30.8333
-37.4778	415.233	30.843
-37.4759	417.8627	30.8528
-37.475	421.651	30.8625
-37.4741	422.136	30.8723
-37.473	417.997	30.88208
-37.472	415.561	30.8918
-37.4713	416.299	30.9016
-37.4707	417.954	30.9114
-37.4704	419.856	30.9211
-37.4694	421.444	30.9309
-37.46899	419.171	30.9407
-37.4674	420.301	30.9504
-37.4666	415.673	30.9602
-37.4654	413.755	30.97
-37.4661	417.074	30.9797
-37.4646	422.717	30.9895
-37.4647	419.806	30.9993
-37.4633	419.859	31.009
-37.4621	413.999	31.0188
-37.4617	416.108	31.0286
-37.4608	417.221	31.03833
-37.4587	415.802	31.0481
-37.4589	419.767	31.0579
-37.45715	421.148	31.0676
-37.4573	416.702	31.0774
-37.4564	413.393	31.0872
-37.4553	410.556	31.0969
-37.4548	418.968	31.1067
-37.45475	418.643	31.1165
-37.45311	420.338	31.1262
-37.4531	416.558	31.136
-37.4514	413.078	31.1458
-37.4513	414.547	31.1555
-37.45039	411.579	31.1653
-37.4495	417.617	31.175
-37.44836	421.384	31.1848
-37.4473	418.343	31.19458
-37.4469	414.75	31.2043
-37.446	409.456	31.2141
-37.4463	412.998	31.2239
-37.4437	416.9144	31.2336
-37.4426	418.697	31.2434
-37.4421	417.022	31.2532
-37.442	413.931	31.2629
-37.4409	410.189	31.2727
-37.4401	406.417	31.2825
-37.4385	413.818	31.2922
-37.4386	414.682	31.302
-37.4366	416.09	31.3118
-37.437	410.598	31.3215
-37.4366	406.0177	31.3313
-37.4354	404.909	31.3411
-37.434	404.603	31.35083
-37.4342	405.104	31.3606
-37.43185	315.157	31.3704
-37.429	-42.6326	31.3801
-37.4291	-35.867	31.3899
-37.4286	-64.1418	31.3997
-37.4273	-40.1106	31.4094
-37.4272	-38.7844	31.4192
-37.4266	-35.9595	31.429
-37.42683	-38.8685	31.4387
-37.4246	-45.3577	31.4485
-37.4251	-45.8833	31.4583
-37.4244	-43.5896	31.468
-37.42276	-42.53194	31.4778
-37.4233	-38.98003	31.4875
-37.4216	-40.9148	31.4973
-37.4205	-39.8972	31.50708
-37.421	-43.0804	31.5168
-37.419	-46.0287	31.5266
-37.4182	-42.8753	31.5364
-37.41835	-41.1013	31.5461
-37.41737	-37.3046	31.5559
-37.4162	-40.5104	31.5657
-37.4143	-43.8578	31.5754
-37.4152	-44.6339	31.5852
-37.4134	-45.2282	31.595
-37.4124	-43.23402	31.6047
-37.4127	-42.3254	31.6145
-37.41048	-41.0896	31.6243
-37.4099	-40.1187	31.634
-37.4094	-44.3707	31.6438
-37.4086	-47.032	31.6536
-37.4085	-44.6472	31.66333
-37.408	-40.5472	31.6731
-37.40596	-41.35873	31.6829
-37.4061	-38.8739	31.6926
-37.4041	-45.3524	31.7024
-37.404	-43.4968	31.7122
-37.4034	-45.1071	31.7219
-37.4028	-45.6325	31.7317
-37.4006	-39.4861	31.7415
-37.4016	-37.6284	31.7512
-37.3993	-40.1201	31.761
-37.399	-46.1465	31.7708
-37.3977	-48.995	31.7805
-37.3975	-42.5854	31.7903
-37.3973	-40.6467	31.8
-37.3964	-38.5049	31.8098
-37.3948	-40.32473	31.81958
-37.3949	-45.6835	31.8293
-37.3918	-45.7806	31.8391
-37.39323	-47.8821	31.8489
-37.3919	-41.9438	31.8586
-37.3918	-37.6936	31.8684
-37.3898	-38.7044	31.8782
-37.3893	-42.1972	31.8879
-37.3896	-47.4279	31.8977
-37.3876	-45.8931	31.9075
-37.3867	-40.5739	31.9172
-37.3869	-40.5564	31.927
-37.3847	-37.8754	31.9368
-37.3845	-43.4589	31.9465
-37.3831	-43.7436	31.9563
-37.3823	-47.6395	31.9661
-37.3814	-44.045	31.97583
-37.3799	-39.9606	31.9856
-37.3811	-36.9103	31.9954
-37.3803	-40.2904	32.0051
-37.3796	-46.3586	32.0149
-37.3779	-47.0754	32.0247
-37.3756	-45.1079	32.0344
-37.3761	-42.2795	32.0442
-37.3752	-40.9284	32.054
-37.37495	-39.72773	32.0637
-37.3741	-40.799	32.0735
-37.3724	-46.54517	32.0833
-37.3724	-44.2692	32.093
-37.3708	-44.1172	32.1028
-37.3711	-39.3474	32.1125
-37.3692	-36.2084	32.1223
-37.3684	-45.182	32.13208
-37.3685	-42.2121	32.1418
-37.3679	-45.4578	32.1516
-37.3669	-42.4798	32.1614
-37.3666	-40.7321	32.1711
-37.36578	-43.4341	32.1809
-37.36356	-39.42672	32.1907
-37.3631	-42.3908	32.2004
-37.3631	-45.577	32.2102
-37.36132	-47.1052	32.22
-37.361	-45.0141	32.2297
-37.3611	-40.4078	32.2395
-37.3581	-41.24464	32.2493
-37.3585	-42.216	32.259
-37.3573	-44.51955	32.2688
-37.357	-45.2133	32.2786
-37.3554	-43.396	32.28833
-37.3546	-44.8889	32.2981
-37.354	-40.6492	32.3079
-37.353	-38.6958	32.3176
-37.3534	-42.515	32.3274
-37.3514	-46.7505	32.3372
-37.352	-48.03	32.3469
-37.3501	-43.1522	32.3567
-37.3495	-41.69952	32.3665
-37.3485	-38.4801	32.3762
-37.3485	-43.2539	32.386
-37.3471	-44.798	32.3958
-37.3454	-46.5901	32.4055
-37.34536	-46.664	32.4153
-37.3445	-40.6783	32.425
-37.3443	-38.1733	32.4348
-37.3438	-38.2476	32.44458
-37.3424	-44.6523	32.4543
-37.3419	-50.0853	32.4641
-37.3415	-44.4834	32.4739
-37.3396	-42.62392	32.4836
-37.33884	-38.4434	32.4934
-37.3379	-40.9783	32.5032
-37.3369	-43.9613	32.5129
-37.3363	-45.1099	32.5227
-37.33683	-50.5675	32.5325
-37.33448	-43.1055	32.5422
-37.3332	-39.6978	32.552
-37.3332	-40.291	32.5618
-37.3316	-41.8173	32.5715
-37.3308	-49.4261	32.5813
-37.3312	-45.255	32.5911
-37.3305	-43.9137	32.60083
-37.3295	-41.3611	32.6106
-37.3283	-39.13649	32.6204
-37.3269	-42.5274	32.6301
-37.3265	-42.9443	32.6399
-37.3255	-46.05439	32.6497
-37.3249	-45.8687	32.6594
-37.3242	-42.408	32.6692
-37.3235	-40.09779	32.679
-37.3238	-40.839	32.6887
-37.3217	-44.9578	32.6985
-37.321	-46.1915	32.7083
-37.3202	-44.9045	32.718
-37.32	-43.1518	32.7278
-37.3172	-41.9018	32.7375
-37.3168	-43.1473	32.7473
-37.3172	-42.4047	32.75708
-37.316	-44.7253	32.7668
-37.315	-45.916	32.7766
-37.3146	-46.255	32.7864
-37.31353	-41.6622	32.7961
-37.3117	-38.0591	32.8059
-37.3131	-44.4421	32.8157
-37.3115	-41.8386	32.8254
-37.3106	-45.97802	32.8352
-37.3095	-44.7068	32.845
-37.3086	-43.4673	32.8547
-37.3073	-43.6597	32.8645
-37.3065	-39.8715	32.8743
-37.3062	-40.7592	32.884
-37.3054	-44.67247	32.8938
-37.305	-48.20866	32.9036
-37.30447	-47.8242	32.91333
-37.30328	-40.0045	32.9231
-37.3023	-42.0188	32.9329
-37.3006	-40.1907	32.9426
-37.30127	-44.4631	32.9524
-37.3004	-45.9562	32.9622
-37.2994	-44.7218	32.9719
-37.2989	-47.0499	32.9817
-37.2972	-41.4215	32.9915
-37.297	-38.2801	33.0012
-37.295	-41.2382	33.011
-37.2948	-46.4133	33.0208
-37.2956	-48.2171	33.0305
-37.2934	-44.1173	33.0403
-37.2915	-40.1624	33.05
-37.2915	-39.2065	33.0598
-37.29076	-41.5476	33.06958
-37.291	-44.5199	33.0793
-37.2888	-46.3574	33.0891
-37.2898	-47.3756	33.0989
-37.2871	-42.19	33.1086
-37.2868	-38.6939	33.1184
-37.2847	-39.9994	33.1282
-37.2858	-44.3836	33.1379
-37.2837	-48.3183	33.1477
-37.2833	-45.5779	33.1575
-37.2829	-42.4029	33.1672
-37.2817	-40.3093	33.177
-37.281	-40.162	33.1868
-37.28	-43.0052	33.1965
-37.2799	-43.7922	33.2063
-37.27837	-48.8687	33.2161
-37.2774	-45.6579	33.22583
-37.2774	-40.2968	33.2356
-37.2756	-39.7767	33.2454
-37.2758	-38.1743	33.2551
-37.2743	-47.60807	33.2649
-37.2729	-45.7203	33.2747
-37.2721	-42.972	33.2844
-37.2725	-42.07962	33.2942
-37.2718	-39.24511	33.304
-37.2713	-42.4869	33.3137
-37.2691	-41.0947	33.3235
-37.2698	-45.7775	33.3333