File: data/processed_data_files/tensile/0.254_solid_dimension_typei_090_r(6).dat
MTS793|BTW|ENU|1|2|.|/|:|1|0|0|A

Data Header:			0.254_solid_dimension_typei_090_r0			Time:	20.0178	s	4/15/2019 2:31:25 PM
Data Acquisition:	Timed
Station Name:	ft40.cfg
Test File Name:	monotonic_0.2540_typei_solid_090_dimension.tst
Displacement	Force	Running Time
mm	N	s
9.97263	-161.825	0.0222168
9.97124	-161.277	0.041748
9.97127	-168.0107	0.0612793
9.97261	-162.531	0.0808105
9.97416	-159.648	0.1003418
9.97714	-163.107	0.119873
9.97835	-164.988	0.1394043
9.97918	-151.677	0.158936
9.98097	-156.561	0.1784668
9.98309	-160.145	0.197998
9.9836	-155.592	0.2175293
9.98484	-149.421	0.237061
9.98709	-157.258	0.2565918
9.98891	-149.657	0.276123
9.990407	-144.526	0.2956543
9.99155	-151.671	0.315186
9.99415	-150.597	0.3347168
9.995265	-140.972	0.354248
9.99715	-151.761	0.3737793
9.99768	-147.821	0.393311
10.0006	-137.54	0.4128418
10.0015	-141.568	0.432373
10.0035	-148.776	0.4519043
10.0052	-135.313	0.471436
10.0073	-140.032	0.4909668
10.0077	-142.477	0.510498
10.0099	-133.287	0.5300293
10.0114	-133.393	0.549561
10.0139	-142.831	0.5690918
10.0154	-130.355	0.588623
10.0162	-127.872	0.6081543
10.0173	-136.1786	0.627686
10.0193	-130.501	0.6472168
10.02191	-124.773	0.666748
10.0232	-131.887	0.6862793
10.02504	-128.804	0.705811
10.0255	-119.437	0.7253418
10.028	-127.165	0.744873
10.0296	-125.341	0.7644043
10.0316	-120.081	0.783936
10.03322	-120.1599	0.8034668
10.0347	-127.558	0.822998
10.0346	-115.559	0.8425293
10.03787	-114.765	0.862061
10.0395	-120.687	0.8815918
10.0408	-118.408	0.901123
10.0433	-109.692	0.9206543
10.0443	-117.608	0.940186
10.0451	-110.986	0.9597168
10.048	-106.116	0.979248
10.04882	-111.918	0.9987793
10.0505	-115.021	1.01831
10.0522	-100.3975	1.03784
10.0537	-107.799	1.057373
10.05558	-109.845	1.0769
10.0584	-100.046	1.09644
10.0592	-100.664	1.11597
10.0604	-110.5557	1.135498
10.0624	-95.8316	1.15503
10.0636	-97.5146	1.17456
10.0661	-103.134	1.19409
10.0671	-94.4267	1.213623
10.069	-89.6713	1.23315
10.0711	-103.196	1.25269
10.0721	-93.9243	1.27222
10.073	-87.5227	1.291748
10.0753	-94.9476	1.31128
10.07654	-92.3982	1.33081
10.0782	-85.602	1.35034
10.0812	-91.7487	1.369873
10.0826	-90.6929	1.3894
10.0827	-81.64753	1.40894
10.0858	-85.73	1.42847
10.0856	-86.92205	1.447998
10.0885	-80.858	1.46753
10.08991	-77.6181	1.48706
10.0916	-87.2067	1.50659
10.0921	-80.106	1.526123
10.0951	-72.9955	1.54565
10.096	-78.93679	1.56519
10.0988	-78.2125	1.58472
10.1015	-69.5971	1.604248
10.1017	-78.0676	1.62378
10.1021	-73.5493	1.64331
10.1047	-64.7261	1.66284
10.106	-69.2006	1.682373
10.1086	-76.1405	1.7019
10.1101	-62.28	1.72144
10.11123	-63.3107	1.74097
10.1118	-70.65535	1.760498
10.115	-59.4279	1.78003
10.116	-59.3514	1.79956
10.1174	-68.476	1.81909
10.1195	-58.0311	1.838623
10.12009	-55.3663	1.85815
10.1226	-61.7365	1.87769
10.1244	-56.451	1.89722
10.1256	-47.8625	1.916748
10.1274	-60.5673	1.93628
10.12951	-54.9668	1.95581
10.1311	-46.6359	1.97534
10.1322	-49.5317	1.994873
10.133	-51.1951	2.0144
10.1356	-43.18927	2.03394
10.1364	-48.033	2.05347
10.138	-50.3998	2.072998
10.14	-41.4269	2.09253
10.1417	-41.2557	2.11206
10.1429	-46.9494	2.13159
10.1458	-40.5026	2.151123
10.1471	-35.9457	2.17065
10.1495	-42.5823	2.19019
10.1498	-36.8275	2.20972
10.1517	-31.8182	2.229248
10.1536	-36.3549	2.24878
10.1548	-37.5228	2.26831
10.1569	-26.9556	2.28784
10.158	-33.31	2.307373
10.1604	-33.9932	2.3269
10.1613	-25.6276	2.34644
10.1635	-25.76668	2.36597
10.1651	-35.2134	2.385498
10.1651	-21.26	2.40503
10.1677	-23.592	2.42456
10.1696	-26.5717	2.44409
10.1702	-21.4258	2.463623
10.1728	-16.1202	2.48315
10.1743	-26.89257	2.50269
10.177	-16.9646	2.52222
10.1767	-12.0266	2.541748
10.1799	-18.9286	2.56128
10.1811	-17.8527	2.58081
10.1828	-7.86342	2.60034
10.1841	-16.019	2.619873
10.1852	-14.1671	2.6394
10.1879	-7.56797	2.65894
10.18842	-10.0178	2.67847
10.1906	-12.6543	2.697998
10.1919	-2.67006	2.71753
10.1941	-6.68876	2.73706
10.1958	-8.40138	2.75659
10.1968	-3.108789	2.776123
10.1983	0.510869	2.79565
10.2007	-5.15626	2.81519
10.2021	-2.91861	2.83472
10.2035	5.860002	2.854248
10.205	-1.21619	2.87378
10.2076	1.43047	2.89331
10.2088	8.66108	2.91284
10.2102	5.23938	2.932373
10.2118	0.631536	2.9519
10.2133	14.7583	2.97144
10.2148	9.83542	2.99097
10.2169	5.525135	3.010498
10.2176	12.6685	3.03003
10.2199	17.6805	3.04956
10.2213	7.6351	3.06909
10.22321	17.7131	3.088623
10.2256	19.3953	3.10815
10.2254	13.0044	3.12769
10.227	18.9696	3.14722
10.2301	28.8826	3.166748
10.2316	16.3892	3.18628
10.2336	21.3295	3.20581
10.234	28.0369	3.22534
10.2376	24.0041	3.244873
10.2366	22.6717	3.2644
10.2388	33.5398	3.28394
10.2417	27.27309	3.30347
10.2428	27.6154	3.322998
10.2445	34.1641	3.34253
10.2463	35.9256	3.36206
10.2479	29.0629	3.38159
10.24929	37.92168	3.401123
10.2506	37.6565	3.42065
10.2523	34.0806	3.44019
10.2544	34.719	3.45972
10.2571	44.35881	3.479248
10.2571	39.0293	3.49878
10.25844	40.3984	3.51831
10.2611	46.6386	3.53784
10.2625	42.2699	3.557373
10.2635	40.1973	3.5769
10.2657	50.91436	3.59644
10.2682	48.6445	3.61597
10.269	41.3307	3.635498
10.27	52.5673	3.65503
10.2726	55.52002	3.67456
10.2738	47.949	3.69409
10.2746	54.5897	3.713623
10.2769	61.5951	3.73315
10.2794	50.0719	3.75269
10.2794	55.9581	3.77222
10.2812	63.1596	3.791748
10.2843	54.9374	3.81128
10.2854	58.2908	3.83081
10.2871	69.6245	3.85034
10.2877	61.3838	3.869873
10.2908	60.5837	3.8894
10.29215	67.1879	3.90894
10.29319	69.6267	3.92847
10.2946	64.2091	3.947998
10.296	73.9751	3.96753
10.2977	70.5731	3.98706
10.29967	67.8668	4.00659
10.3011	74.6242	4.026123
10.3025	79.2176	4.04565
10.30451	71.0008	4.06519
10.3061	76.047	4.08472
10.3073	79.9046	4.104248
10.3106	77.6871	4.12378
10.3111	75.7415	4.14331
10.313	87.1022	4.16284
10.3139	81.5004	4.182373
10.3162	79.9496	4.2019
10.31767	87.2588	4.22144
10.3207	86.4438	4.24097
10.3204	81.7175	4.260498
10.32227	91.998	4.28003
10.3241	93.39122	4.29956
10.3255	84.86	4.31909
10.3284	92.3852	4.338623
10.3283	98.7915	4.35815
10.3305	90.1925	4.37769
10.332	94.61689	4.39722
10.3338	104.807	4.416748
10.3359	92.0708	4.43628
10.3372	95.8595	4.45581
10.3388	107.06	4.47534
10.3402	101.632	4.494873
10.34195	97.7465	4.5144
10.3444	110.564	4.53394
10.3444	105.1926	4.55347
10.3469	102.596	4.572998
10.3489	109.52	4.59253
10.3504	112.209	4.61206
10.3516	105.019	4.63159
10.3535	114.823	4.651123
10.355	113.623	4.67065
10.3564	110.658	4.69019
10.3586	113.127	4.70972
10.3595	123.148	4.729248
10.3607	114.557	4.74878
10.3636	116.11	4.76831
10.3654	121.876	4.78784
10.3667	121.228	4.807373
10.3676	117.411	4.8269
10.36905	128.652	4.84644
10.3715	124.73	4.86597
10.3736	121.314	4.885498
10.3751	127.958	4.90503
10.3762	132.855	4.92456
10.3778	123.023	4.94409
10.3786	130.3439	4.963623
10.38133	137.426	4.98315
10.3835	128.029	5.00269
10.3836	131.501	5.02222
10.3863	139.863	5.041748
10.3879	133.596	5.06128
10.3892	134.898	5.08081
10.3912	146.0652	5.10034
10.3918	137.8925	5.119873
10.39382	135.309	5.1394
10.3962	148.601	5.15894
10.3974	146.115	5.17847
10.4	139.452	5.197998
10.4003	149.271	5.21753
10.4017	147.958	5.23706
10.4035	145.102	5.25659
10.4049	150.635	5.276123
10.4076	156.139	5.29565
10.4088	146.603	5.31519
10.41026	156.9507	5.33472
10.4109	157.882	5.354248
10.4142	153.72	5.37378
10.4154	152.711	5.39331
10.4175	164.336	5.41284
10.4188	160.2317	5.432373
10.4217	157.34	5.4519
10.4221	161.749	5.47144
10.424	164.838	5.49097
10.4256	158.8223	5.510498
10.4261	168.319	5.53003
10.4272	169.382	5.54956
10.4296	161.173	5.56909
10.4315	165.969	5.588623
10.4338	176.9409	5.60815
10.4343	165.033	5.62769
10.4362	170.48	5.64722
10.4383	178.786	5.666748
10.4393	172.156	5.68628
10.4408	170.92	5.70581
10.4425	183.143	5.72534
10.4449	175.342	5.744873
10.4457	173.454	5.7644
10.4476	187.184	5.78394
10.4497	181.107	5.80347
10.4508	175.114	5.822998
10.453	185.879	5.84253
10.4541	188.433	5.86206
10.4563	180.891	5.88159
10.4575	191.039	5.901123
10.4584	190.105	5.92065
10.4613	185.321	5.94019
10.4614	189.5312	5.95972
10.4638	198.188	5.979248
10.4651	188.547	5.99878
10.4685	192.161	6.01831
10.4684	198.37	6.03784
10.4704	198.279	6.057373
10.4725	191.319	6.0769
10.4746	203.622	6.09644
10.476	202.189	6.11597
10.4778	198.133	6.135498
10.4781	202.494	6.15503
10.4798	207.826	6.17456
10.4826	198.265	6.19409
10.4828	207.916	6.213623
10.4843	212.569	6.23315
10.4867	204.028	6.25269
10.48924	203.651	6.27222
10.4898	218.157	6.291748
10.49198	208.45	6.31128
10.493	211.202	6.33081
10.4945	220.601	6.35034
10.4968	213.8085	6.369873
10.49817	210.494	6.3894
10.499	223.7907	6.40894
10.5008	219.0721	6.42847
10.5031	212.975	6.447998
10.5058	225.243	6.46753
10.5067	225.5076	6.48706
10.508	215.74	6.50659
10.5093	225.853	6.526123
10.5111	231.04	6.54565
10.513	222.3531	6.56519
10.5147	228.539	6.58472
10.5158	233.0981	6.604248
10.5182	226.3866	6.62378
10.5192	228.4792	6.64331
10.5204	239.4	6.66284
10.5223	232.773	6.682373
10.5239	231.303	6.7019
10.5261	238.525	6.72144
10.5273	240.747	6.74097
10.5292	233.976	6.760498
10.5314	244.332	6.78003
10.5312	244.774	6.79956
10.5338	238.239	6.81909
10.5359	241.936	6.838623
10.5369	252.597	6.85815
10.539	239.397	6.87769
10.5411	246.977	6.89722
10.542	255.544	6.916748
10.5433	247.84	6.93628
10.5455	245.217	6.95581
10.5474	259.839	6.97534
10.5476	250.978	6.994873
10.5503	251.733	7.0144
10.5512	261.73	7.03394
10.55343	258.906	7.05347
10.5548	250.05	7.072998
10.5562	265.901	7.09253
10.5586	263.63	7.11206
10.561	255.569	7.13159
10.5617	263.805	7.151123
10.5625	267.6	7.17065
10.5647	258.268	7.19019
10.5672	267.007	7.20972
10.5682	271.373	7.229248
10.5691	264.781	7.24878
10.571	268.401	7.26831
10.5734	275.827	7.28784
10.5743	270.574	7.307373
10.5757	266.675	7.3269
10.5781	280.84	7.34644
10.5788	276.613	7.36597
10.5808	272.272	7.385498
10.58304	279.211	7.40503
10.5844	282.59	7.42456
10.5864	273.76	7.44409
10.5866	284.604	7.463623
10.5894	288.0036	7.48315
10.591	279.953	7.50269
10.5932	281.7352	7.52222
10.5938	294.314	7.541748
10.59584	282.166	7.56128
10.5972	285.549	7.58081
10.5984	295.961	7.60034
10.6008	291.929	7.619873
10.6034	285.088	7.6394
10.604	300.574	7.65894
10.6051	292.767	7.67847
10.6072	291.939	7.697998
10.6088	304.248	7.71753
10.6106	302.664	7.73706
10.6124	289.215	7.75659
10.61392	302.176	7.776123
10.6155	306.574	7.79565
10.6167	296.853	7.81519
10.6186	303.887	7.83472
10.6204	309.16	7.854248
10.6219	301.322	7.87378
10.6235	305.235	7.89331
10.62529	313.518	7.91284
10.6266	307.051	7.932373
10.6279	306.443	7.9519
10.6298	315.638	7.97144
10.6317	313.961	7.99097
10.6328	308.192	8.010498
10.6347	319.029	8.03003
10.6375	320.46	8.04956
10.6388	315.352	8.06909
10.6402	319.096	8.088623
10.6408	325.019	8.10815
10.6431	315.267	8.12769
10.6439	322.129	8.14722
10.6461	328.948	8.166748
10.6483	323.693	8.18628
10.6504	319.256	8.20581
10.652	334.261	8.22534
10.6524	325.543	8.244873
10.6547	327.007	8.2644
10.65555	335.04	8.28394
10.6574	334.15	8.30347
10.6593	325.097	8.322998
10.6616	338.704	8.34253
10.6628	337.539	8.36206
10.6644	330.014	8.38159
10.6651	339.184	8.401123
10.66744	345.876	8.42065
10.6682	331.618	8.44019
10.67113	340.212	8.45972
10.6725	347.566	8.479248
10.6737	340.552	8.49878
10.6751	342.528	8.51831
10.67791	350.772	8.53784
10.6783	342.698	8.557373
10.6792	344.26	8.5769
10.6808	354.508	8.59644
10.6835	352.153	8.61597
10.68566	345.702	8.635498
10.686	352.969	8.65503
10.6891	356.587	8.67456
10.6895	350.217	8.69409
10.6907	356.5401	8.713623
10.6944	361.08	8.73315
10.69466	354.3942	8.75269
10.6966	359.195	8.77222
10.6978	367.602	8.791748
10.6999	357.417	8.81128
10.7008	359.742	8.83081
10.7035	370.141	8.85034
10.705	366.964	8.869873
10.7059	357.834	8.8894
10.70869	373.554	8.90894
10.7087	368.61	8.92847
10.71167	363.57	8.947998
10.7121	372.836	8.96753
10.7154	375.409	8.98706
10.7166	364.1405	9.00659
10.71776	378.8714	9.026123
10.7196	381.5274	9.04565
10.7216	370.724	9.06519
10.72257	375.474	9.08472
10.7242	386.458	9.104248
10.7255	372.256	9.12378
10.7274	377.941	9.14331
10.7286	386.476	9.16284
10.7307	382.586	9.182373
10.73346	379.056	9.2019
10.734	392.3147	9.22144
10.7356	385.129	9.24097
10.7371	382.705	9.260498
10.73904	392.1001	9.28003
10.741	393.849	9.29956
10.7424	386.235	9.31909
10.7433	392.347	9.338623
10.7446	395.472	9.35815
10.7473	390.335	9.37769
10.7493	395.449	9.39722
10.7507	402.915	9.416748
10.7516	394.395	9.43628
10.7541	395.592	9.45581
10.7545	406.547	9.47534
10.7568	401.386	9.494873
10.7577	395.366	9.5144
10.7589	408.866	9.53394
10.7615	408.754	9.55347
10.7628	397.7565	9.572998
10.76521	411.99	9.59253
10.7669	411.436	9.61206
10.7677	405.384	9.63159
10.7699	412.499	9.651123
10.7714	419.996	9.67065
10.7726	403.21	9.69019
10.775	412.322	9.70972
10.777	421.664	9.729248
10.7783	414.601	9.74878
10.7797	413.696	9.76831
10.7809	426.09	9.78784
10.78279	415.484	9.807373
10.7847	417.429	9.8269
10.7856	426.189	9.84644
10.78823	424.22	9.86597
10.7903	417.357	9.885498
10.7917	428.966	9.90503
10.7931	427.921	9.92456
10.7941	421.11	9.94409
10.7965	427.507	9.963623
10.7974	436.233	9.98315
10.7991	426.0788	10.0027
10.8007	432.158	10.0222
10.8015	437.41	10.0417
10.8043	430.6882	10.0613
10.8056	431.041	10.0808
10.8076	442.765	10.1003
10.8089	437.919	10.1199
10.8112	432.267	10.1394
10.81306	443.9628	10.1589
10.815	443.534	10.1785
10.8144	435.988	10.198
10.8171	446.121	10.2175
10.819	450.771	10.2371
10.8206	438.432	10.2566
10.8217	449.609	10.2761
10.8245	452.966	10.2957
10.8259	442.498	10.3152
10.8262	448.894	10.3347
10.8279	459.792	10.3542
10.8306	446.0141	10.3738
10.8318	449.765	10.3933
10.8339	460.508	10.4128
10.836	456.62	10.4324
10.8372	452.861	10.4519
10.8385	466.108	10.4714
10.8387	457.639	10.491
10.8415	455.8703	10.5105
10.8427	464.482	10.53
10.8446	467.058	10.5496
10.847	455.753	10.5691
10.84897	466.827	10.5886
10.8501	470.257	10.6082
10.8508	462.972	10.6277
10.85254	466.35	10.6472
10.854	476.78	10.6667
10.85667	467.7695	10.6863
10.8577	468.9155	10.7058
10.8588	476.987	10.7253
10.8616	473.195	10.7449
10.862	469.177	10.7644
10.86393	483.062	10.7839
10.8661	481.2738	10.8035
10.8678	471.297	10.823
10.869	482.366	10.8425
10.8712	485.964	10.8621
10.8721	475.56	10.8816
10.874	483.919	10.9011
10.8752	490.649	10.9207
10.8775	475.265	10.9402
10.8791	486.251	10.9597
10.881	494.784	10.9792
10.8827	485.629	10.9988
10.884	483.923	11.0183
10.8856	499.582	11.0378
10.8872	488.874	11.0574
10.889	488.685	11.0769
10.8905	499.628	11.0964
10.8908	497.773	11.116
10.8924	491.336	11.1355
10.8951	502.9053	11.155
10.8965	498.782	11.1746
10.8987	494.003	11.1941
10.9013	500.66	11.2136
10.9023	510.104	11.2332
10.904	497.127	11.2527
10.9051	502.053	11.2722
10.90763	508.301	11.2917
10.9079	505.442	11.3113
10.9091	502.36	11.3308
10.9121	514.9054	11.3503
10.9131	508.776	11.3699
10.9147	506.128	11.3894
10.9168	515.1073	11.4089
10.9175	515.9519	11.4285
10.9194	504.641	11.448
10.9207	517.883	11.4675
10.9228	521.583	11.4871
10.92382	510.481	11.5066
10.9265	517.666	11.5261
10.9284	525.47	11.5457
10.9296	515.754	11.5652
10.9313	519.3924	11.5847
10.9331	531.1153	11.6042
10.9347	517.598	11.6238
10.9363	520.8	11.6433
10.9375	532.6734	11.6628
10.9392	526.289	11.6824
10.9407	522.087	11.7019
10.9417	536.155	11.7214
10.9441	528.705	11.741
10.94553	526.637	11.7605
10.9464	534.925	11.78
10.9486	537.507	11.7996
10.9504	526.891	11.8191
10.9529	539.715	11.8386
10.9533	540.15	11.8582
10.9546	532.4281	11.8777
10.9571	535.711	11.8972
10.9591	547.478	11.9167
10.9597	539.007	11.9363
10.96189	540.9469	11.9558
10.9641	546.7121	11.9753
10.9652	543.983	11.9949
10.9675	541.073	12.0144
10.9677	553.132	12.0339
10.97	549.495	12.0535
10.9724	542.018	12.073
10.9738	550.23	12.0925
10.9742	556.865	12.1121
10.9767	543.142	12.1316
10.978	553.977	12.1511
10.9801	561.219	12.1707
10.9807	549.3	12.1902
10.9835	553.689	12.2097
10.985	564.215	12.2292
10.9867	552.949	12.2488
10.988	555.089	12.2683
10.9899	569.6012	12.2878
10.9915	559.729	12.3074
10.9929	555.113	12.3269
10.994	569.639	12.3464
10.9965	567.421	12.366
10.9975	558.605	12.3855
10.9991	571.686	12.405
10.9997	567.852	12.4246
11.0032	562.981	12.4441
11.00542	571.135	12.4636
11.0068	577.12	12.4832
11.0077	566.357	12.5027
11.0097	573.105	12.5222
11.0114	577.458	12.5417
11.0131	573.522	12.5613
11.0146	569.3017	12.5808
11.01643	584.496	12.6003
11.0176	579.613	12.6199
11.0179	574.575	12.6394
11.0208	583.875	12.6589
11.022	584.715	12.6785
11.0236	575.023	12.698
11.0247	588.566	12.7175
11.0265	590.656	12.7371
11.0278	579.3194	12.7566
11.0307	585.626	12.7761
11.0318	595.347	12.7957
11.0334	583.036	12.8152
11.0355	589.233	12.8347
11.03653	599.111	12.8542
11.0383	588.469	12.8738
11.0397	588.321	12.8933
11.0413	602.6734	12.9128
11.0425	592.2005	12.9324
11.0449	590.866	12.9519
11.0458	605.304	12.9714
11.0486	601.679	12.991
11.0496	592.165	13.0105
11.05213	605.35	13.03
11.0532	606.2196	13.0496
11.0543	596.268	13.0691
11.0554	607.688	13.0886
11.0583	608.698	13.1082
11.0606	601.164	13.1277
11.0614	606.779	13.1472
11.06408	616.183	13.1667
11.0632	604.15	13.1863
11.0661	607.842	13.2058
11.0683	616.663	13.2253
11.06978	613.271	13.2449
11.0714	606.283	13.2644
11.07208	620.328	13.2839
11.0746	618.177	13.3035
11.0763	612.8938	13.323
11.0767	619.688	13.3425
11.0796	623.474	13.3621
11.08094	611.504	13.3816
11.0821	622.3075	13.4011
11.083	629.142	13.4207
11.0863	618.31	13.4402
11.0868	619.406	13.4597
11.0899	633.061	13.4792
11.0905	621.834	13.4988
11.092	623.9989	13.5183
11.0938	636.411	13.5378
11.0951	629.208	13.5574
11.0975	623.512	13.5769
11.0986	638.276	13.5964
11.1001	633.5412	13.616
11.102	625.0484	13.6355
11.1028	639.714	13.655
11.1045	638.736	13.6746
11.1076	629.17	13.6941
11.1088	637.1778	13.7136
11.1111	645.323	13.7332
11.1119	633.881	13.7527
11.1136	641.659	13.7722
11.1144	646.459	13.7917
11.1173	639.6142	13.8113
11.11883	639.606	13.8308
11.1206	653.517	13.8503
11.12183	645.139	13.8699
11.1226	643.137	13.8894
11.1252	650.102	13.9089
11.12596	653.58	13.9285
11.1271	643.993	13.948
11.1292	655.299	13.9675
11.1309	655.4256	13.9871
11.1323	647.767	14.0066
11.1344	652.309	14.0261
11.1358	663.891	14.0457
11.1377	650.429	14.0652
11.1398	655.341	14.0847
11.1394	667.359	14.1042
11.1421	656.75	14.1238
11.1445	654.88	14.1433
11.1453	668.893	14.1628
11.1477	659.935	14.1824
11.1494	659.311	14.2019
11.1496	670.967	14.2214
11.1526	666.483	14.241
11.1544	656.588	14.2605
11.1559	671.112	14.28
11.1574	673.06	14.2996
11.1593	661.456	14.3191
11.15969	673.308	14.3386
11.1622	678.096	14.3582
11.1642	666.945	14.3777
11.1651	671.72	14.3972
11.1663	681.219	14.4167
11.1688	670.246	14.4363
11.1702	675.752	14.4558
11.1716	684.891	14.4753
11.1742	677.454	14.4949
11.17471	673.405	14.5144
11.1774	688.325	14.5339
11.1783	684.444	14.5535
11.1804	679.552	14.573
11.1826	684.494	14.5925
11.1831	689.965	14.6121
11.18476	679.7	14.6316
11.18611	691.697	14.6511
11.1884	694.379	14.6707
11.1897	684.75	14.6902
11.1916	686.669	14.7097
11.1935	700.765	14.7292
11.1944	689.178	14.7488
11.1966	690.3595	14.7683
11.1972	700.849	14.7878
11.1989	696.092	14.8074
11.2017	689.648	14.8269
11.2022	705.191	14.8464
11.2048	698.196	14.866
11.206	694.799	14.8855
11.2074	708.122	14.905
11.2092	706.086	14.9246
11.211	693.951	14.9441
11.2124	706.507	14.9636
11.2137	710.645	14.9832
11.2153	699.205	15.0027
11.2178	704.835	15.0222
11.22	713.351	15.0417
11.2202	703.76	15.0613
11.2229	706.288	15.0808
11.2229	717.226	15.1003
11.2258	708.939	15.1199
11.2267	708.403	15.1394
11.22916	718.4126	15.1589
11.2314	716.985	15.1785
11.2323	708.8006	15.198
11.2335	721.188	15.2175
11.2346	721.444	15.2371
11.23762	716.287	15.2566
11.2382	719.497	15.2761
11.2401	728.612	15.2957
11.2424	714.034	15.3152
11.2436	722.158	15.3347
11.2459	732.837	15.3542
11.247	722.762	15.3738
11.2488	720.053	15.3933
11.25025	736.457	15.4128
11.2514	726.515	15.4324
11.2541	724.126	15.4519
11.2546	734.889	15.4714
11.2567	733.016	15.491
11.25818	724.066	15.5105
11.2586	738.135	15.53
11.2615	737.815	15.5496
11.2627	727.328	15.5691
11.2649	739.028	15.5886
11.2662	744.078	15.6082
11.2669	731.2049	15.6277
11.2699	738.907	15.6472
11.2705	747.022	15.6667
11.2731	736.94	15.6863
11.27445	738.983	15.7058
11.2756	747.5567	15.7253
11.2788	741.633	15.7449
11.2786	738.374	15.7644
11.28073	752.432	15.7839
11.2827	748.46	15.8035
11.28494	742.633	15.823
11.2853	750.774	15.8425
11.2881	754.938	15.8621
11.2883	744.6861	15.8816
11.291	752.793	15.9011
11.292	758.221	15.9207
11.2935	750.038	15.9402
11.2958	751.514	15.9597
11.2977	764.592	15.9792
11.29826	751.849	15.9988
11.3005	754.477	16.0183
11.30213	766.72	16.0378
11.3036	759.9256	16.0574
11.3044	751.3	16.0769
11.3068	768.659	16.0964
11.3073	764.739	16.116
11.3108	758.647	16.1355
11.3106	768.464	16.155
11.3141	770.475	16.1746
11.3153	758.186	16.1941
11.3167	771.138	16.2136
11.318	774.237	16.2332
11.31953	762.8587	16.2527
11.3216	770.3468	16.2722
11.32378	778.783	16.2917
11.3245	766.692	16.3113
11.3262	771.005	16.3308
11.3281	778.636	16.3503
11.3307	773.701	16.3699
11.3322	773.437	16.3894
11.3326	782.36	16.4089
11.3351	777.246	16.4285
11.3357	772.485	16.448
11.3377	784.497	16.4675
11.3394	784.198	16.4871
11.3411	776.71	16.5066
11.3427	780.677	16.5261
11.3443	790.497	16.5457
11.3458	778.304	16.5652
11.3477	786.425	16.5847
11.3487	792.585	16.6042
11.3506	785.111	16.6238
11.35233	781.797	16.6433
11.353	799.415	16.6628
11.3558	788.835	16.6824
11.357	786.0224	16.7019
11.3583	798.7204	16.7214
11.3618	796.855	16.741
11.36335	783.767	16.7605
11.3643	799.385	16.78
11.3658	799.696	16.7996
11.3677	791.724	16.8191
11.3691	801.524	16.8386
11.3702	804.323	16.8582
11.37303	789.951	16.8777
11.3734	802.406	16.8972
11.3755	808.3808	16.9167
11.3772	798.535	16.9363
11.3787	800.485	16.9558
11.3798	811.892	16.9753
11.3818	802.426	16.9949
11.3833	801.513	17.0144
11.3845	812.666	17.0339
11.3876	809.631	17.0535
11.3884	803.016	17.073
11.3896	813.731	17.0925
11.3915	812.801	17.1121
11.3936	805.292	17.1316
11.3943	813.926	17.1511
11.3961	819.342	17.1707
11.39801	811.834	17.1902
11.3998	813.08	17.2097
11.4012	823.942	17.2292
11.4027	813.291	17.2488
11.4044	814.858	17.2683
11.4059	826.762	17.2878
11.4073	819.924	17.3074
11.4094	813.62	17.3269
11.4108	828.729	17.3464
11.41313	822.965	17.366
11.41404	817.786	17.3855
11.4155	828.937	17.405
11.4176	832.584	17.4246
11.4193	818.643	17.4441
11.42057	828.789	17.4636
11.4226	832.026	17.4832
11.4243	824.2041	17.5027
11.4254	830.0321	17.5222
11.4271	839	17.5417
11.4282	825.06	17.5613
11.4309	830.416	17.5808
11.4322	839.536	17.6003
11.4332	834.54	17.6199
11.43495	831.045	17.6394
11.4356	841.7196	17.6589
11.4394	836.603	17.6785
11.4395	833.695	17.698
11.4424	843.316	17.7175
11.4429	842.689	17.7371
11.4445	836.059	17.7566
11.44758	842.143	17.7761
11.448	848.388	17.7957
11.4502	837.309	17.8152
11.4515	841.7	17.8347
11.4544	851.072	17.8542
11.4556	845.31	17.8738
11.4573	842.408	17.8933
11.458	853.889	17.9128
11.4599	846.2099	17.9324
11.4612	845.137	17.9519
11.4635	856.637	17.9714
11.4652	855.261	17.991
11.4664	841.129	18.0105
11.4675	857.2431	18.03
11.4692	857.946	18.0496
11.4723	848.965	18.0691
11.4731	856.553	18.0886
11.4736	863.088	18.1082
11.4762	849.412	18.1277
11.4786	859.667	18.1472
11.4793	864.688	18.1667
11.4819	857.31	18.1863
11.483	858.318	18.2058
11.4838	870.682	18.2253
11.4857	858.483	18.2449
11.4871	860.009	18.2644
11.4885	869.12	18.2839
11.4898	868.007	18.3035
11.4922	860.922	18.323
11.4934	869.876	18.3425
11.4956	868.326	18.3621
11.49747	863.112	18.3816
11.4993	871.0257	18.4011
11.5009	875.352	18.4207
11.5015	865.854	18.4402
11.5041	870.052	18.4597
11.5053	878.705	18.4792
11.50692	870.657	18.4988
11.5091	870.369	18.5183
11.5108	879.728	18.5378
11.5126	876.295	18.5574
11.5135	870.259	18.5769
11.5146	882.89	18.5964
11.5169	880.323	18.616
11.5183	873.357	18.6355
11.5214	883.878	18.655
11.5222	885.875	18.6746
11.52256	871.462	18.6941
11.5242	885.139	18.7136
11.5263	887.226	18.7332
11.5284	880.22	18.7527
11.5302	882.99	18.7722
11.532	891.619	18.7917
11.5335	879.397	18.8113
11.5347	885.768	18.8308
11.5368	893.314	18.8503
11.5381	887.726	18.8699
11.54	883.494	18.8894
11.5409	895.718	18.9089
11.5433	889.963	18.9285
11.544	887.534	18.948
11.5459	895.648	18.9675
11.5479	897.181	18.9871
11.5497	889.347	19.0066
11.5508	898.396	19.0261
11.5535	899.291	19.0457
11.5539	890.82	19.0652
11.5555	895.8	19.0847
11.5574	904.301	19.1042
11.55919	897.201	19.1238
11.5608	895.663	19.1433
11.5629	904.846	19.1628
11.5641	900.63	19.1824
11.5654	896.948	19.2019
11.56787	907.146	19.2214
11.56889	906.799	19.241
11.5698	896.599	19.2605
11.5718	909.006	19.28
11.5736	909.314	19.2996
11.5757	901.014	19.3191
11.5768	908.706	19.3386
11.5787	915.502	19.3582
11.5806	901.147	19.3777
11.5819	911.403	19.3972
11.58242	915.552	19.4167
11.5839	907.866	19.4363
11.5867	910.606	19.4558
11.5886	920.243	19.4753
11.59029	908.453	19.4949
11.59198	909.771	19.5144
11.5936	921.034	19.5339
11.5945	917.517	19.5535
11.5957	910.316	19.573
11.59843	921.258	19.5925
11.5991	918.814	19.6121
11.6011	914.759	19.6316
11.6025	918.78	19.6511
11.6045	924.496	19.6707
11.6064	914.778	19.6902
11.60809	922.76	19.7097
11.6091	926.182	19.7292
11.6124	920.128	19.7488
11.6131	918.09	19.7683
11.6151	930.29	19.7878
11.6162	923.925	19.8074
11.61712	918.021	19.8269
11.6188	930.407	19.8464
11.6215	927.571	19.866
11.6231	921.235	19.8855
11.6234	932.0022	19.905
11.6261	931.404	19.9246
11.6271	919.865	19.9441
11.6305	930.772	19.9636
11.6307	935.848	19.9832
11.6317	925.66	20.0027
11.63372	924.731	20.0125

Data Header:			0.254_solid_dimension_typei_090_r0			Time:	40.0176	s	4/15/2019 2:31:45 PM
Data Acquisition:	Timed
Station Name:	ft40.cfg
Test File Name:	monotonic_0.2540_typei_solid_090_dimension.tst
Displacement	Force	Running Time
mm	N	s
11.6333	929.846	20.0222
11.6362	941.335	20.0417
11.6375	927.893	20.0613
11.6384	932.3576	20.0808
11.6401	940.709	20.1003
11.6414	933.958	20.1199
11.6443	933.851	20.1394
11.6444	945.062	20.1589
11.6457	934.968	20.1785
11.6486	933.424	20.198
11.6501	942.497	20.2175
11.6517	944.748	20.2371
11.6537	935.454	20.2566
11.6553	943.636	20.2761
11.6559	945.543	20.2957
11.65888	937.836	20.3152
11.6598	941.675	20.3347
11.6608	949.897	20.3542
11.6628	940.374	20.3738
11.6646	941.166	20.3933
11.666	949.707	20.4128
11.6677	945.639	20.4324
11.6702	940.779	20.4519
11.67135	949.774	20.4714
11.6737	949.207	20.491
11.6733	940.2796	20.5105
11.6759	948.3252	20.53
11.6785	950.394	20.5496
11.6797	943.06	20.5691
11.6811	951.7962	20.5886
11.6827	957.456	20.6082
11.6848	943.173	20.6277
11.6857	949.5069	20.6472
11.6879	958.791	20.6667
11.6887	950.03	20.6863
11.6903	949.881	20.7058
11.6926	960.262	20.7253
11.6942	950.564	20.7449
11.6958	952.4	20.7644
11.69704	959.749	20.7839
11.6981	958.504	20.8035
11.701	950.229	20.823
11.7024	962.245	20.8425
11.7052	959.603	20.8621
11.7057	953.616	20.8816
11.7072	958.29	20.9011
11.708	965.971	20.9207
11.7111	956.885	20.9402
11.7126	960.747	20.9597
11.7136	964.153	20.9792
11.7156	959.464	20.9988
11.7172	956.776	21.0183
11.7191	970.033	21.0378
11.7204	962.171	21.0574
11.7217	959.314	21.0769
11.7247	966.94	21.0964
11.72443	968.209	21.116
11.7267	958.873	21.1355
11.7286	966.968	21.155
11.7289	970.57	21.1746
11.7322	960.433	21.1941
11.7333	966.379	21.2136
11.7355	971.463	21.2332
11.73748	961.951	21.2527
11.738	965.601	21.2722
11.7396	975.758	21.2917
11.7411	963.478	21.3113
11.7427	965.44	21.3308
11.7454	976.256	21.3503
11.7466	970.577	21.3699
11.7477	966.122	21.3894
11.75	978.004	21.4089
11.7514	970.54	21.4285
11.7533	966.974	21.448
11.7548	975.646	21.4675
11.7557	978.404	21.4871
11.7562	967.7113	21.5066
11.7594	976.0885	21.5261
11.7603	978.332	21.5457
11.7619	972.1142	21.5652
11.76445	972.817	21.5847
11.7668	982.318	21.6042
11.7671	973.64	21.6238
11.7688	976.205	21.6433
11.7704	980.485	21.6628
11.7727	977.171	21.6824
11.7742	970.908	21.7019
11.7754	984.554	21.7214
11.7766	980.792	21.741
11.7794	972.9	21.7605
11.781	979.7915	21.78
11.782	984.67	21.7996
11.7831	973.809	21.8191
11.7863	984.5	21.8386
11.7872	987.487	21.8582
11.7886	975.823	21.8777
11.7896	980.834	21.8972
11.792	988.488	21.9167
11.793	980.558	21.9363
11.7962	978.613	21.9558
11.7966	991.55	21.9753
11.799	981.355	21.9949
11.8004	978.312	22.0144
11.8015	988.845	22.0339
11.8031	984.2525	22.0535
11.8051	979.748	22.073
11.8066	990.599	22.0925
11.807	985.528	22.1121
11.8095	981.158	22.1316
11.8114	987.782	22.1511
11.8122	993.295	22.1707
11.8145	981.518	22.1902
11.8168	987.337	22.2097
11.8179	991.092	22.2292
11.8199	986.667	22.2488
11.8203	984.5932	22.2683
11.823	995.8	22.2878
11.824	987.207	22.3074
11.8261	986.446	22.3269
11.82776	992.59	22.3464
11.8293	992.363	22.366
11.8302	983.333	22.3855
11.8329	994.0238	22.405
11.8345	995.28	22.4246
11.8361	985.81	22.4441
11.8371	989.2677	22.4636
11.83927	998.306	22.4832
11.8408	987.531	22.5027
11.8416	992.01	22.5222
11.843	999.078	22.5417
11.8446	986.116	22.5613
11.8477	988.927	22.5808
11.84891	999.187	22.6003
11.8505	992.061	22.6199
11.8512	986.856	22.6394
11.85417	1000.36	22.6589
11.8553	993.5213	22.6785
11.8569	988.183	22.698
11.8581	997.201	22.7175
11.8587	997.819	22.7371
11.8625	988.462	22.7566
11.8636	998.506	22.7761
11.8649	997.7226	22.7957
11.8665	989.992	22.8152
11.8684	994.347	22.8347
11.8696	1002.88	22.8542
11.8712	994.113	22.8738
11.873	995.225	22.8933
11.8742	999.2807	22.9128
11.8762	997.544	22.9324
11.87833	991.275	22.9519
11.8795	1004.17	22.9714
11.8817	999.005	22.991
11.8827	993.427	23.0105
11.8846	999.723	23.03
11.8865	1004.82	23.0496
11.888	990.641	23.0691
11.8899	999.9928	23.0886
11.8915	1006.14	23.1082
11.893	995.556	23.1277
11.894	996.027	23.1472
11.8964	1006.83	23.1667
11.898	995.282	23.1863
11.8999	997.248	23.2058
11.9011	1008.274	23.2253
11.9021	998.385	23.2449
11.9042	991.795	23.2644
11.906	1006.035	23.2839
11.9074	1001.707	23.3035
11.9092	993.879	23.323
11.9107	1003.829	23.3425
11.9128	1003.93	23.3621
11.914	994.82	23.3816
11.9146	1002.3	23.4011
11.9175	1005.33	23.4207
11.9184	994.553	23.4402
11.921	1001.75	23.4597
11.9227	1005.91	23.4792
11.9232	999.304	23.4988
11.92607	997.115	23.5183
11.9276	1008.95	23.5378
11.9287	1001.72	23.5574
11.9304	1000.7	23.5769
11.9312	1002.94	23.5964
11.9328	1003.96	23.616
11.9351	996.39	23.6355
11.9372	1008.07	23.655
11.9382	1007.77	23.6746
11.9398	998.393	23.6941
11.9424	1001.697	23.7136
11.94295	1011.92	23.7332
11.945	996.8689	23.7527
11.9466	1001.79	23.7722
11.9482	1009.66	23.7917
11.9489	1000.49	23.8113
11.953	998.842	23.8308
11.9538	1009.58	23.8503
11.9541	1001.78	23.8699
11.95664	998.263	23.8894
11.9581	1008.884	23.9089
11.9594	1004.71	23.9285
11.961	996.01	23.948
11.9634	1007.09	23.9675
11.96497	1006.94	23.9871
11.964	997.671	24.0066
11.9674	1008.06	24.0261
11.9692	1007.2	24.0457
11.9707	999.154	24.0652
11.9735	1003.67	24.0847
11.9744	1011.11	24.1042
11.9753	998.912	24.1238
11.9773	1001.556	24.1433
11.9792	1009.13	24.1628
11.9802	1004.41	24.1824
11.9818	996.927	24.2019
11.985	1008.89	24.2214
11.9856	1005.14	24.241
11.9876	1000.94	24.2605
11.9884	1005.88	24.28
11.9901	1008.96	24.2996
11.99184	997.613	24.3191
11.9933	1006.14	24.3386
11.9962	1011.103	24.3582
11.9966	1001.11	24.3777
11.9978	999.768	24.3972
11.9989	1012.98	24.4167
12.0015	1000.82	24.4363
12.0041	1001.6	24.4558
12.0053	1010.18	24.4753
12.0076	1003.32	24.4949
12.0087	999.713	24.5144
12.01	1011.43	24.5339
12.0123	1004.66	24.5535
12.0125	998.051	24.573
12.0152	1008.86	24.5925
12.0165	1008.78	24.6121
12.0188	996.636	24.6316
12.0188	1005.89	24.6511
12.02212	1009.74	24.6707
12.0228	1000.42	24.6902
12.0248	1005.26	24.7097
12.0258	1008.078	24.7292
12.0286	999.727	24.7488
12.0293	1001.8	24.7683
12.0315	1012.28	24.7878
12.032	1002.73	24.8074
12.0343	1001.99	24.8269
12.0364	1007.19	24.8464
12.0376	1007.44	24.866
12.0394	999.7699	24.8855
12.0408	1008.33	24.905
12.0425	1008.49	24.9246
12.0436	1001.58	24.9441
12.045	1005.269	24.9636
12.0472	1010.9	24.9832
12.0491	998.099	25.0027
12.04986	1005.19	25.0222
12.0529	1012.54	25.0417
12.0542	1004.28	25.0613
12.0543	998.64	25.0808
12.0569	1011.23	25.1003
12.0591	1002.41	25.1199
12.0609	1000.87	25.1394
12.0624	1009.5	25.1589
12.0635	1005.78	25.1785
12.0658	995.307	25.198
12.068	1009.04	25.2175
12.0685	1008.56	25.2371
12.0705	997.3	25.2566
12.0713	1006.39	25.2761
12.0727	1010.456	25.2957
12.0759	998.3446	25.3152
12.0759	1003.27	25.3347
12.0792	1009.83	25.3542
12.081	1001.17	25.3738
12.0811	1003.83	25.3933
12.08212	1009.71	25.4128
12.0845	1001.98	25.4324
12.086	998.174	25.4519
12.0883	1009.38	25.4714
12.09	1006.1	25.491
12.0911	1000.02	25.5105
12.09348	1003.53	25.53
12.0948	1007.88	25.5496
12.0962	998.306	25.5691
12.0976	1006.74	25.5886
12.1005	1007.22	25.6082
12.1018	999.381	25.6277
12.1032	999.541	25.6472
12.1045	1011.03	25.6667
12.1062	998.401	25.6863
12.1074	1000.62	25.7058
12.1096	1009.51	25.7253
12.1112	1002.83	25.7449
12.1117	995.001	25.7644
12.1134	1007.98	25.7839
12.1156	1001.95	25.8035
12.1177	997.284	25.823
12.1187	1007.65	25.8425
12.1206	1005.345	25.8621
12.123	993.9422	25.8816
12.1241	1005.26	25.9011
12.1248	1006.14	25.9207
12.12665	997.576	25.9402
12.128	1000.35	25.9597
12.1304	1007.1	25.9792
12.1321	997.267	25.9988
12.1334	1000.14	26.0183
12.13567	1007.14	26.0378
12.136	998.417	26.0574
12.13885	996.8	26.0769
12.14	1006.7	26.0964
12.1418	1002.89	26.116
12.143	995.6908	26.1355
12.1455	1005.11	26.155
12.1466	1005.59	26.1746
12.1479	998.371	26.1941
12.1504	999.609	26.2136
12.1517	1006.46	26.2332
12.1537	997.042	26.2527
12.1551	1000.74	26.2722
12.1556	1008	26.2917
12.158	998.44	26.3113
12.1602	994.801	26.3308
12.1605	1008.18	26.3503
12.1624	999.031	26.3699
12.163	997.3	26.3894
12.166	1004.88	26.4089
12.1681	1001.78	26.4285
12.1709	991.899	26.448
12.1711	1004.94	26.4675
12.1724	1002.29	26.4871
12.1743	993.185	26.5066
12.1759	1002.62	26.5261
12.177	1006.46	26.5457
12.1791	992.269	26.5652
12.1812	998.232	26.5847
12.1817	1005.26	26.6042
12.1838	996.3338	26.6238
12.1858	997.5061	26.6433
12.18814	1005.09	26.6628
12.189	996.928	26.6824
12.1895	995.4	26.7019
12.19221	1004.15	26.7214
12.1932	997.582	26.741
12.19496	992.2713	26.7605
12.19744	1000.33	26.78
12.1992	1002.57	26.7996
12.2006	991.779	26.8191
12.2022	998.781	26.8386
12.2043	1003.5	26.8582
12.2043	996.3114	26.8777
12.2072	996.103	26.8972
12.2088	1005.29	26.9167
12.21	993.209	26.9363
12.2107	995.581	26.9558
12.2149	1005.17	26.9753
12.2146	997.711	26.9949
12.2173	988.968	27.0144
12.2189	1003.29	27.0339
12.2207	997.942	27.0535
12.2203	991.613	27.073
12.2241	1000.05	27.0925
12.2241	1002.44	27.1121
12.22578	988.308	27.1316
12.2277	1000.343	27.1511
12.2307	1000.77	27.1707
12.232	992.458	27.1902
12.2325	996.516	27.2097
12.2342	1003.1	27.2292
12.2369	991.101	27.2488
12.2379	993.062	27.2683
12.23899	1001.03	27.2878
12.2412	994.318	27.3074
12.2431	993.644	27.3269
12.2442	1000.96	27.3464
12.2456	995.13	27.366
12.2473	990.783	27.3855
12.2484	998.11	27.405
12.2502	997.944	27.4246
12.2518	990.367	27.4441
12.2542	996.574	27.4636
12.2565	1001.04	27.4832
12.2573	989.588	27.5027
12.2587	994.541	27.5222
12.2604	1000.26	27.5417
12.26211	993.3385	27.5613
12.2647	989.904	27.5808
12.2651	1001.92	27.6003
12.2675	992.008	27.6199
12.2687	989.335	27.6394
12.2688	1000.73	27.6589
12.2722	997.209	27.6785
12.27299	985.902	27.698
12.2751	998.954	27.7175
12.2772	995.292	27.7371
12.2781	989.795	27.7566
12.2806	994.954	27.7761
12.2817	998.858	27.7957
12.2839	986.576	27.8152
12.2854	994.253	27.8347
12.2872	999.0835	27.8542
12.2881	989.544	27.8738
12.29	990.32	27.8933
12.29112	1000.35	27.9128
12.2929	991.719	27.9324
12.2938	989.745	27.9519
12.2965	997.29	27.9714
12.2982	993.521	27.991
12.2995	989.297	28.0105
12.3018	997.593	28.03
12.3035	993.642	28.0496
12.3042	987.628	28.0691
12.3054	994.252	28.0886
12.3086	996.705	28.1082
12.30953	988.056	28.1277
12.311	989.361	28.1472
12.313	997.325	28.1667
12.3146	988.572	28.1863
12.31645	989.4682	28.2058
12.3164	996.82	28.2253
12.31862	993.183	28.2449
12.3202	985.65	28.2644
12.3222	998.73	28.2839
12.3246	992.8233	28.3035
12.32585	987.422	28.323
12.3278	995.916	28.3425
12.32934	997.872	28.3621
12.3297	984.453	28.3816
12.3322	995.2334	28.4011
12.3332	992.654	28.4207
12.3359	987.884	28.4402
12.3379	991.474	28.4597
12.3391	998.183	28.4792
12.3397	984.058	28.4988
12.3417	989.903	28.5183
12.3437	996.917	28.5378
12.3457	990.382	28.5574
12.3473	985.217	28.5769
12.3479	996.297	28.5964
12.3498	989.207	28.616
12.352	987.664	28.6355
12.353	991.955	28.655
12.3546	991.212	28.6746
12.3562	985.584	28.6941
12.3582	991.722	28.7136
12.3602	994.5705	28.7332
12.3613	985.31	28.7527
12.3634	987.672	28.7722
12.3638	994.906	28.7917
12.3658	988.867	28.8113
12.3687	985.444	28.8308
12.3707	995.765	28.8503
12.3719	989.138	28.8699
12.3735	987.056	28.8894
12.3737	993.658	28.9089
12.3757	992.633	28.9285
12.3787	979.896	28.948
12.379	993.247	28.9675
12.3809	992.67	28.9871
12.3815	982.968	29.0066
12.3849	990.733	29.0261
12.386	995.292	29.0457
12.3882	982.092	29.0652
12.3894	990.462	29.0847
12.3919	992.57	29.1042
12.3925	984.884	29.1238
12.3948	986.46	29.1433
12.3958	995.574	29.1628
12.3965	983.33	29.1824
12.3996	984.443	29.2019
12.4008	992.862	29.2214
12.4025	989.278	29.241
12.404	983.3775	29.2605
12.4048	991.902	29.28
12.40653	990.7135	29.2996
12.4078	983.66	29.3191
12.41004	989.074	29.3386
12.4115	991.317	29.3582
12.4135	982.354	29.3777
12.4153	986.762	29.3972
12.4178	993.555	29.4167
12.4185	984.398	29.4363
12.4195	983.939	29.4558
12.4216	993.415	29.4753
12.4231	989.458	29.4949
12.4243	982.344	29.5144
12.427	993.211	29.5339
12.4283	987.778	29.5535
12.42991	982	29.573
12.4312	989.97	29.5925
12.4322	991.924	29.6121
12.4345	976.914	29.6316
12.4361	989.512	29.6511
12.4379	992.406	29.6707
12.4397	982.763	29.6902
12.4409	986.113	29.7097
12.4433	993.752	29.7292
12.4451	980.81	29.7488
12.4469	986.375	29.7683
12.4476	991.437	29.7878
12.4499	986.035	29.8074
12.451	981.978	29.8269
12.4526	993.948	29.8464
12.45575	985.049	29.866
12.45711	982.707	29.8855
12.4567	986.713	29.905
12.4583	990.803	29.9246
12.4614	982.704	29.9441
12.4628	987.7356	29.9636
12.4637	989.401	29.9832
12.46578	982.87	30.0027
12.4675	985.1955	30.0222
12.4684	992.296	30.0417
12.4708	983.915	30.0613
12.47289	979.743	30.0808
12.4726	990.125	30.1003
12.4753	984.796	30.1199
12.4769	980.145	30.1394
12.4791	990.261	30.1589
12.4814	988.2326	30.1785
12.4819	978.2608	30.198
12.4832	988.725	30.2175
12.486	988.278	30.2371
12.4868	979.784	30.2566
12.4886	985.671	30.2761
12.49	992.898	30.2957
12.4922	977.417	30.3152
12.4933	984.106	30.3347
12.4951	990.571	30.3542
12.4979	984.235	30.3738
12.4981	982.557	30.3933
12.4992	991.8421	30.4128
12.5012	979.938	30.4324
12.503	984.364	30.4519
12.5049	989.125	30.4714
12.5069	987.367	30.491
12.5072	979.216	30.5105
12.5111	989.111	30.53
12.5108	986.025	30.5496
12.5131	981.09	30.5691
12.5153	985.51	30.5886
12.5156	989.712	30.6082
12.5179	980.12	30.6277
12.5199	985.493	30.6472
12.5204	988.327	30.6667
12.52287	980.953	30.6863
12.5248	981.977	30.7058
12.5255	990.121	30.7253
12.5271	984.619	30.7449
12.5288	979.216	30.7644
12.5305	988.241	30.7839
12.5322	986.181	30.8035
12.5346	979.391	30.823
12.53614	984.971	30.8425
12.5372	988.936	30.8621
12.5396	977.802	30.8816
12.5416	986.3537	30.9011
12.54244	987.8808	30.9207
12.5439	979.253	30.9402
12.5445	984.394	30.9597
12.5476	993.54	30.9792
12.5493	978.162	30.9988
12.55046	982.341	31.0183
12.55157	990.027	31.0378
12.5535	984.001	31.0574
12.5555	980.423	31.0769
12.5567	990.874	31.0964
12.559	981.274	31.116
12.5597	980.585	31.1355
12.5618	988.169	31.155
12.5629	988.283	31.1746
12.5656	976.919	31.1941
12.5665	985.716	31.2136
12.5682	984.981	31.2332
12.5704	980.897	31.2527
12.5719	981.627	31.2722
12.574	989.201	31.2917
12.5751	980.347	31.3113
12.576	981.669	31.3308
12.5784	986.018	31.3503
12.5798	982.843	31.3699
12.58096	978.381	31.3894
12.583	987.5224	31.4089
12.5844	985.823	31.4285
12.5863	975.54	31.448
12.5884	984.854	31.4675
12.589	986.564	31.4871
12.591	978.2915	31.5066
12.5925	984.14	31.5261
12.5941	989.869	31.5457
12.596	976.247	31.5652
12.5973	982.9212	31.5847
12.5992	988.492	31.6042
12.6016	979.734	31.6238
12.6022	979.282	31.6433
12.6036	991.784	31.6628
12.6062	979.893	31.6824
12.6068	980.318	31.7019
12.6092	985.383	31.7214
12.611	982.569	31.741
12.6119	978.862	31.7605
12.6132	988.7439	31.78
12.616	982.622	31.7996
12.6171	977.953	31.8191
12.6184	981.684	31.8386
12.6209	990.165	31.8582
12.6221	980.761	31.8777
12.623	981.247	31.8972
12.6247	985.482	31.9167
12.6266	981.724	31.9363
12.6289	978.467	31.9558
12.62917	987.541	31.9753
12.6316	981.946	31.9949
12.6331	978.742	32.0144
12.6358	985.162	32.0339
12.63762	983.401	32.0535
12.6381	977	32.073
12.6397	983.88	32.0925
12.641	986.136	32.1121
12.6425	977.342	32.1316
12.644	982.3006	32.1511
12.6453	987.709	32.1707
12.64862	977.36	32.1902
12.6498	981.952	32.2097
12.65177	989.963	32.2292
12.6529	976.842	32.2488
12.6553	978.397	32.2683
12.656	988.631	32.2878
12.6577	983.362	32.3074
12.6601	976.27	32.3269
12.66183	987.555	32.3464
12.6626	979.819	32.366
12.6653	978.463	32.3855
12.6664	984.285	32.405
12.6676	985.338	32.4246
12.6684	976.302	32.4441
12.67065	985.473	32.4636
12.6725	985.189	32.4832
12.6738	978.4964	32.5027
12.6764	980.338	32.5222
12.6765	987.791	32.5417
12.679	979.568	32.5613
12.6806	978.529	32.5808
12.6823	984.202	32.6003
12.68416	980.794	32.6199
12.6856	976.983	32.6394
12.6873	987.272	32.6589
12.689	982.776	32.6785
12.6902	977.171	32.698
12.692	983.507	32.7175
12.6937	986.481	32.7371
12.6954	974.88	32.7566
12.6972	981.448	32.7761
12.6985	987.531	32.7957
12.6997	977.327	32.8152
12.7017	980.412	32.8347
12.7037	986.697	32.8542
12.70472	977.2536	32.8738
12.7072	979.4184	32.8933
12.7077	990.218	32.9128
12.7101	978.349	32.9324
12.7108	976.376	32.9519
12.7132	986.058	32.9714
12.7153	983.771	32.991
12.7167	976.2074	33.0105
12.7179	986.9267	33.03
12.7196	981.7334	33.0496
12.7216	977.917	33.0691
12.7233	984.05	33.0886
12.724	987.021	33.1082
12.7263	976.298	33.1277
12.7282	984.148	33.1472
12.7287	984.186	33.1667
12.7311	978.802	33.1863
12.7325	976.262	33.2058
12.7349	986.669	33.2253
12.7358	980.844	33.2449
12.7369	978.283	33.2644
12.7379	982.169	33.2839
12.7412	983.291	33.3035
12.743	974.893	33.323
12.74403	984.923	33.3425
12.7458	986.5174	33.3621
12.7464	975.696	33.3816
12.7493	979.0116	33.4011
12.7507	986.781	33.4207
12.7527	975.832	33.4402
12.7535	979.909	33.4597
12.7558	988.148	33.4792
12.7565	975.971	33.4988
12.7583	978.027	33.5183
12.7597	986.543	33.5378
12.7621	978.9007	33.5574
12.7627	975.385	33.5769
12.7645	986.54	33.5964
12.7668	979.951	33.616
12.769	974.903	33.6355
12.77	982.412	33.655
12.7721	987.144	33.6746
12.7728	975.391	33.6941
12.7747	983.313	33.7136
12.776	984.1825	33.7332
12.7781	976.6886	33.7527
12.7786	979.328	33.7722
12.7811	987.0863	33.7917
12.7834	976.472	33.8113
12.7843	979.06	33.8308
12.7854	983.693	33.8503
12.78687	981.127	33.8699
12.78983	974.659	33.8894
12.7916	986.237	33.9089
12.792	981.741	33.9285
12.7948	977.988	33.948
12.7959	983.049	33.9675
12.7978	983.874	33.9871
12.7994	973.647	34.0066
12.7999	982.557	34.0261
12.802	987.54	34.0457
12.80385	976.125	34.0652
12.80619	976.582	34.0847
12.807	988.011	34.1042
12.80896	977.576	34.1238
12.8105	977.764	34.1433
12.8115	987.0545	34.1628
12.8143	977.4812	34.1824
12.81557	975.303	34.2019
12.817	987.024	34.2214
12.8187	981.894	34.241
12.8213	973.822	34.2605
12.8212	984.392	34.28
12.8244	982.594	34.2996
12.8251	974.802	34.3191
12.8268	980.181	34.3386
12.8277	985.352	34.3582
12.8306	976.436	34.3777
12.8326	981.184	34.3972
12.833	983.494	34.4167
12.83455	977.584	34.4363
12.8374	976.128	34.4558
12.839	987.902	34.4753
12.8396	980.411	34.4949
12.8413	977.275	34.5144
12.8439	981.77	34.5339
12.8438	982.084	34.5535
12.8462	973.596	34.573
12.8478	983.125	34.5925
12.849	982.649	34.6121
12.8512	974.564	34.6316
12.8528	978.9375	34.6511
12.8546	986.259	34.6707
12.8571	974.0083	34.6902
12.8579	978.154	34.7097
12.8596	986.303	34.7292
12.86048	978.298	34.7488
12.8631	975.011	34.7683
12.8633	984.929	34.7878
12.8666	977.6579	34.8074
12.868	975.806	34.8269
12.86906	984.951	34.8464
12.87	979.387	34.866
12.873	974.213	34.8855
12.8747	984.379	34.905
12.8752	984.734	34.9246
12.8787	972.997	34.9441
12.8791	981.5672	34.9636
12.8793	982.318	34.9832
12.8824	975.694	35.0027
12.8845	978.288	35.0222
12.885	986.064	35.0417
12.8871	975.62	35.0613
12.8893	978.466	35.0808
12.88984	983.753	35.1003
12.8924	977.98	35.1199
12.89361	971.769	35.1394
12.8965	985.446	35.1589
12.8964	981.69	35.1785
12.8988	975.9234	35.198
12.90024	979.155	35.2175
12.9016	982.826	35.2371
12.9033	973.006	35.2566
12.9046	982.546	35.2761
12.9073	984.956	35.2957
12.908	975.059	35.3152
12.9103	976.963	35.3347
12.9116	987.198	35.3542
12.9141	975.998	35.3738
12.9138	977.104	35.3933
12.9167	984.802	35.4128
12.9181	979.897	35.4324
12.9201	974.238	35.4519
12.9211	984.401	35.4714
12.9235	980.279	35.491
12.92531	972.9364	35.5105
12.926	984.214	35.53
12.9283	981.282	35.5496
12.9296	972.036	35.5691
12.93133	980.972	35.5886
12.9324	984.233	35.6082
12.9344	974.783	35.6277
12.9369	979.452	35.6472
12.9379	981.67	35.6667
12.9398	974.748	35.6863
12.9407	975.547	35.7058
12.9424	985.113	35.7253
12.9446	977.685	35.7449
12.9467	976.852	35.7644
12.9479	981.531	35.7839
12.9487	981.296	35.8035
12.9501	970.494	35.823
12.9519	982.284	35.8425
12.954	982.83	35.8621
12.9559	975.743	35.8816
12.957	976.805	35.9011
12.9587	984.408	35.9207
12.9607	971.924	35.9402
12.9621	979.772	35.9597
12.9637	985.067	35.9792
12.96515	975.77	35.9988
12.9671	972.466	36.0183
12.9675	986.914	36.0378
12.9706	977.847	36.0574
12.9712	975.815	36.0769
12.9736	984.832	36.0964
12.97502	980.932	36.116
12.97635	972.831	36.1355
12.9776	984.637	36.155
12.9796	982.201	36.1746
12.9815	971.262	36.1941
12.9832	981.3717	36.2136
12.985	983.943	36.2332
12.9866	973.3606	36.2527
12.9892	976.695	36.2722
12.991	984.5448	36.2917
12.9913	975.614	36.3113
12.9926	978.977	36.3308
12.9941	981.977	36.3503
12.9956	978.577	36.3699
12.99823	973.983	36.3894
12.9997	983.9856	36.4089
13.0023	979.153	36.4285
13.0029	972.864	36.448
13.0047	979.691	36.4675
13.0056	986.009	36.4871
13.00731	973.064	36.5066
13.0091	978.925	36.5261
13.0118	985.221	36.5457
13.012	976.202	36.5652
13.0133	976.2655	36.5847
13.016	986.908	36.6042
13.01843	973.176	36.6238
13.0198	975.751	36.6433
13.0207	985.061	36.6628
13.0223	978.78	36.6824
13.0224	971.599	36.7019
13.0262	984.311	36.7214
13.0275	979.863	36.741
13.0295	972.876	36.7605
13.0302	982.382	36.78
13.0315	981.044	36.7996
13.0329	969.87	36.8191
13.0355	981.291	36.8386
13.0368	982.788	36.8582
13.0389	972.156	36.8777
13.0401	978.454	36.8972
13.0411	983.169	36.9167
13.0431	973.005	36.9363
13.0443	975.623	36.9558
13.0473	983.862	36.9753
13.0489	975.755	36.9949
13.05	977.243	37.0144
13.0523	980.1806	37.0339
13.0521	980.257	37.0535
13.0551	970.845	37.073
13.0564	983.458	37.0925
13.0585	981.15	37.1121
13.0599	974.3	37.1316
13.0605	976.73	37.1511
13.0629	982.8	37.1707
13.0644	974.836	37.1902
13.0674	977.379	37.2097
13.0675	984.122	37.2292
13.0691	974.777	37.2488
13.0715	973.046	37.2683
13.0734	985.784	37.2878
13.0739	975.843	37.3074
13.0749	973.41	37.3269
13.0783	984.075	37.3464
13.0784	980.328	37.366
13.07955	971.1322	37.3855
13.083	981.964	37.405
13.0849	980.175	37.4246
13.0857	973.399	37.4441
13.0872	981.659	37.4636
13.0886	983.937	37.4832
13.0908	969.114	37.5027
13.0924	978.739	37.5222
13.0947	983.234	37.5417
13.0958	974.612	37.5613
13.0975	976.4256	37.5808
13.0984	982.027	37.6003
13.1004	976.254	37.6199
13.1011	973.621	37.6394
13.1038	982.097	37.6589
13.1056	977.3833	37.6785
13.1074	974.678	37.698
13.10946	980.157	37.7175
13.11033	981.547	37.7371
13.1116	969.94	37.7566
13.1138	978.72	37.7761
13.1153	984.073	37.7957
13.1162	974.762	37.8152
13.1179	974.961	37.8347
13.1206	984.366	37.8542
13.1222	974.387	37.8738
13.1235	977.326	37.8933
13.1255	984.555	37.9128
13.1261	976.596	37.9324
13.1278	970.2572	37.9519
13.1298	985.157	37.9714
13.1307	978.358	37.991
13.1328	971.541	38.0105
13.1347	980.541	38.03
13.13609	981.507	38.0496
13.1362	969.421	38.0691
13.1397	979.628	38.0886
13.1413	979.651	38.1082
13.1427	972.201	38.1277
13.1447	978.528	38.1472
13.1462	983.7121	38.1667
13.1481	972.133	38.1863
13.1492	973.781	38.2058
13.152	983.414	38.2253
13.1529	975.617	38.2449
13.1534	973.955	38.2644
13.1559	981.322	38.2839
13.15735	974.811	38.3035
13.1582	971.621	38.323
13.1609	981.329	38.3425
13.162	979.91	38.3621
13.1642	970.995	38.3816
13.1652	976.135	38.4011
13.1678	982.413	38.4207
13.1677	971.156	38.4402
13.1719	975.451	38.4597
13.1724	981.608	38.4792
13.1734	974.888	38.4988
13.1753	973.374	38.5183
13.17677	983.519	38.5378
13.1782	974.6037	38.5574
13.1811	974.468	38.5769
13.18111	982.943	38.5964
13.1832	977.713	38.616
13.1836	968.943	38.6355
13.1866	982.558	38.655
13.1888	980.331	38.6746
13.1914	972.114	38.6941
13.1912	977.989	38.7136
13.1942	983.641	38.7332
13.1953	971.28	38.7527
13.1968	977.172	38.7722
13.1976	981.304	38.7917
13.1999	972.939	38.8113
13.2013	975.354	38.8308
13.2033	984.407	38.8503
13.2049	975.375	38.8699
13.2065	974.463	38.8894
13.2074	981.347	38.9089
13.2091	976.437	38.9285
13.2117	973.241	38.948
13.2117	979.336	38.9675
13.2141	978.435	38.9871
13.217	971.396	39.0066
13.2174	977.058	39.0261
13.2188	979.763	39.0457
13.2208	972.017	39.0652
13.22244	973.4	39.0847
13.224	983.596	39.1042
13.2257	973.983	39.1238
13.2275	973.634	39.1433
13.22912	980.988	39.1628
13.23	978.098	39.1824
13.2332	970.315	39.2019
13.2338	983.276	39.2214
13.2364	976.363	39.241
13.2374	972.425	39.2605
13.2388	980.17	39.28
13.2398	982.052	39.2996
13.2424	967.772	39.3191
13.2435	978.703	39.3386
13.2448	979.877	39.3582
13.2462	973.768	39.3777
13.2487	974.775	39.3972
13.2501	982.209	39.4167
13.2524	969.469	39.4363
13.2526	975.789	39.4558
13.25494	982.35	39.4753
13.25664	974.904	39.4949
13.25771	971.909	39.5144
13.2599	980.199	39.5339
13.26167	974.206	39.5535
13.26347	971.246	39.573
13.2646	977.444	39.5925
13.2654	976.745	39.6121
13.2673	971.571	39.6316
13.2688	976.668	39.6511
13.2711	978.742	39.6707
13.2725	970.112	39.6902
13.2746	976.217	39.7097
13.2767	980.53	39.7292
13.2777	972.801	39.7488
13.2793	969.256	39.7683
13.2805	979.643	39.7878
13.2824	973.913	39.8074
13.2845	970.609	39.8269
13.2862	976.6701	39.8464
13.2883	977.504	39.866
13.2892	968.333	39.8855
13.2902	979.528	39.905
13.2924	975.263	39.9246
13.2941	969.1441	39.9441
13.2958	974.39	39.9636
13.29631	981.635	39.9832
13.2999	966.879	40.0027
13.29845	969.087	40.0125

Data Header:			0.254_solid_dimension_typei_090_r0			Time:	41.45752	s	4/15/2019 2:31:46 PM
Data Acquisition:	Timed
Station Name:	ft40.cfg
Test File Name:	monotonic_0.2540_typei_solid_090_dimension.tst
Displacement	Force	Running Time
mm	N	s
13.3011	974.577	40.0222
13.3005	980.185	40.032
13.3021	977.5636	40.0417
13.303	976.338	40.0515
13.305	970.201	40.0613
13.30423	966.461	40.071
13.3057	973.727	40.0808
13.3065	974.948	40.0906
13.3072	980.536	40.1003
13.3085	976.6825	40.1101
13.3089	968.349	40.1199
13.3102	967.184	40.1296
13.3093	970.466	40.1394
13.3113	974.35	40.14917
13.3128	978.147	40.1589
13.3119	976.018	40.1687
13.3136	974.677	40.1785
13.3141	970.421	40.1882
13.3158	966.7431	40.198
13.3158	970.366	40.2078
13.3168	975.098	40.2175
13.3183	978.89	40.2273
13.3189	972.552	40.2371
13.31959	968.711	40.2468
13.3205	965.148	40.2566
13.3213	969.559	40.2664
13.3216	971.23	40.2761
13.3228	973.502	40.2859
13.32238	973.857	40.2957
13.324	972.555	40.30542
13.3248	967.1	40.3152
13.3263	963.278	40.325
13.3263	969.761	40.3347
13.3263	973.338	40.3445
13.3288	973.531	40.3542
13.3295	972.549	40.364
13.33027	964.053	40.3738
13.3309	964.991	40.3835
13.3315	964.737	40.3933
13.3331	967.699	40.4031
13.3337	972.425	40.4128
13.3349	971.751	40.4226
13.334	970.06	40.4324
13.3351	959.128	40.4421
13.3363	961.326	40.4519
13.3365	966.73	40.46167
13.3375	969.735	40.4714
13.3387	971.1601	40.4812
13.34	963.742	40.491
13.34047	958.284	40.5007
13.3411	958.107	40.5105
13.3428	957.143	40.5203
13.3435	963.426	40.53
13.3435	967.22	40.5398
13.3445	962.972	40.5496
13.346	952.596	40.5593
13.3538	-2.92464	40.5691
13.3529	-44.1372	40.5789
13.35361	-27.346	40.5886
13.35409	-28.0074	40.5984
13.3523	-47.8229	40.6082
13.3534	-43.477	40.61792
13.3538	-50.7608	40.6277
13.3536	-45.8212	40.6375
13.3539	-43.7628	40.6472
13.3555	-37.9041	40.657
13.3556	-34.7227	40.6667
13.3568	-41.8596	40.6765
13.3576	-47.2856	40.6863
13.3579	-49.1604	40.696
13.3583	-43.66423	40.7058
13.35944	-39.3434	40.7156
13.3609	-37.9787	40.7253
13.3609	-39.5501	40.7351
13.3621	-42.5869	40.7449
13.3636	-48.8877	40.7546
13.3629	-44.7277	40.7644
13.3637	-44.70874	40.77417
13.3651	-35.9058	40.7839
13.3666	-37.98893	40.7937
13.3665	-46.0469	40.8035
13.3675	-47.3393	40.8132
13.3689	-47.3933	40.823
13.36903	-42.4305	40.8328
13.37	-40.2509	40.8425
13.3711	-39.7097	40.8523
13.3723	-37.6534	40.8621
13.3722	-45.709	40.8718
13.3735	-50.1162	40.8816
13.3737	-47.449	40.8914
13.375	-41.9957	40.9011
13.3747	-35.0201	40.9109
13.37625	-38.8557	40.9207
13.3776	-43.7328	40.93042
13.3773	-47.1165	40.9402
13.3789	-47.3912	40.95
13.3797	-44.40855	40.9597
13.381	-40.77705	40.9695
13.3816	-39.6219	40.9792
13.3813	-38.3937	40.989
13.3837	-44.57267	40.9988
13.3833	-49.1072	41.0085
13.3838	-46.3133	41.0183
13.3847	-40.06303	41.0281
13.3869	-37.302	41.0378
13.38755	-39.9301	41.0476
13.3876	-44.75375	41.0574
13.3888	-47.5758	41.0671
13.38833	-48.1222	41.0769
13.3898	-44.9135	41.08667
13.3908	-39.1442	41.0964
13.3913	-35.6083	41.1062
13.3921	-40.1506	41.116
13.393	-50.1336	41.1257
13.3941	-49.0328	41.1355
13.3949	-43.5528	41.1453
13.3954	-39.4822	41.155
13.396	-35.70575	41.1648
13.3971	-40.4153	41.1746
13.3984	-44.3362	41.1843
13.3991	-48.2412	41.1941
13.4006	-50.3191	41.2039
13.3999	-41.4251	41.2136
13.402	-36.2789	41.2234
13.4024	-36.5942	41.2332
13.404	-42.179	41.24292
13.4038	-51.6788	41.2527
13.40422	-50.28104	41.2625
13.4052	-42.5099	41.2722
13.4067	-39.2001	41.282
13.40706	-38.0035	41.2917
13.4075	-42.7851	41.3015
13.409	-44.6543	41.3113
13.4086	-50.3665	41.321
13.4099	-45.843	41.3308
13.4118	-39.3217	41.3406
13.4112	-35.3247	41.3503
13.4126	-38.7393	41.3601
13.4131	-47.21862	41.3699
13.4143	-49.4354	41.3796
13.4154	-44.3154	41.3894
13.4164	-40.8495	41.39917
13.4169	-38.1159	41.4089
13.418	-38.13171	41.4187
13.4193	-42.2877	41.4285
13.4189	-45.1624	41.4382
13.4204	-46.2886	41.448