File: data/processed_data_files/tensile/0.254_solid_dimension_typei_090_r(3).dat
MTS793|BTW|ENU|1|2|.|/|:|1|0|0|A

Data Header:			0.254_solid_dimension_typei_090_r0			Time:	20.0317	s	4/15/2019 2:18:52 PM
Data Acquisition:	Timed
Station Name:	ft40.cfg
Test File Name:	monotonic_0.2540_typei_solid_090_dimension.tst
Displacement	Force	Running Time
mm	N	s
9.97135	-115.313	0.0356445
9.97203	-112.706	0.0551758
9.97138	-112.568	0.074707
9.97207	-115.0721	0.0942383
9.97454	-114.487	0.11377
9.97639	-105.718	0.133301
9.97747	-108.54	0.152832
9.98027	-113.016	0.172363
9.98091	-108.45	0.191895
9.98274	-101.171	0.211426
9.98432	-110.239	0.230957
9.98519	-105.664	0.250488
9.98793	-97.9614	0.27002
9.98928	-103.206	0.289551
9.98951	-104.135	0.309082
9.991807	-94.0663	0.328613
9.99394	-100.674	0.348145
9.99693	-97.4391	0.367676
9.99729	-89.1769	0.387207
9.99875	-92.8001	0.406738
9.99908	-101.2386	0.42627
10.0022	-87.0101	0.445801
10.0038	-88.4285	0.465332
10.0054	-92.1363	0.484863
10.0062	-86.6473	0.504395
10.009	-82.921	0.523926
10.0096	-92.18705	0.543457
10.0111	-83.0145	0.562988
10.01394	-78.5821	0.58252
10.0157	-84.8992	0.602051
10.016	-82.9988	0.621582
10.0184	-73.9289	0.641113
10.02	-84.2954	0.660645
10.0216	-80.8807	0.680176
10.0233	-73.7165	0.699707
10.0256	-73.45015	0.719238
10.0259	-77.662	0.73877
10.027	-71.9794	0.758301
10.0302	-72.035	0.777832
10.0319	-74.4646	0.797363
10.0331	-67.5524	0.816895
10.0343	-65.6925	0.836426
10.0357	-70.5952	0.855957
10.03721	-68.1772	0.875488
10.0397	-58.1344	0.89502
10.0408	-66.87674	0.914551
10.04153	-64.4453	0.934082
10.0447	-57.3225	0.953613
10.0457	-58.8458	0.973145
10.0485	-63.9992	0.992676
10.0496	-52.8304	1.012207
10.05125	-57.44207	1.03174
10.0532	-59.5324	1.05127
10.0539	-48.9144	1.0708
10.0553	-51.0778	1.090332
10.0568	-59.689	1.10986
10.0582	-48.4421	1.12939
10.0617	-44.2777	1.14893
10.0622	-51.9177	1.168457
10.0644	-47.5323	1.18799
10.0652	-41.7673	1.20752
10.0675	-50.9125	1.22705
10.0691	-43.5331	1.246582
10.0707	-38.4272	1.26611
10.0716	-44.9265	1.28564
10.0737	-43.1	1.30518
10.0751	-33.6877	1.324707
10.07612	-38.7888	1.34424
10.0789	-41.8979	1.36377
10.0801	-33.3036	1.3833
10.082	-33.1844	1.402832
10.0829	-35.8397	1.42236
10.0849	-33.01276	1.44189
10.08596	-28.5709	1.46143
10.0873	-35.1396	1.480957
10.0897	-27.5011	1.50049
10.0919	-22.4862	1.52002
10.0938	-29.3487	1.53955
10.0961	-29.7288	1.559082
10.097	-18.2656	1.57861
10.0989	-24.1795	1.59814
10.1002	-25.0654	1.61768
10.1016	-16.3083	1.637207
10.1038	-17.1379	1.65674
10.1048	-23.587	1.67627
10.1068	-11.811	1.6958
10.1065	-14.9642	1.715332
10.1104	-19.1266	1.73486
10.1102	-9.48824	1.75439
10.11323	-6.49066	1.77393
10.1137	-18.0898	1.793457
10.11598	-10.664	1.81299
10.1173	-5.18231	1.83252
10.12	-10.8185	1.85205
10.12043	-7.78104	1.871582
10.12204	-2.29581	1.89111
10.1242	-8.51077	1.91064
10.1253	-5.12617	1.93018
10.1266	4.44622	1.949707
10.1296	-3.83765	1.96924
10.1307	-2.38862	1.98877
10.1321	3.16326	2.0083
10.1323	4.123981	2.027832
10.1365	-0.611148	2.04736
10.137	7.05683	2.06689
10.1382	10.4881	2.08643
10.1407	5.39589	2.105957
10.1415	5.76788	2.12549
10.1432	16.3319	2.14502
10.1455	7.45804	2.16455
10.1473	11.0247	2.184082
10.1479	18.086	2.20361
10.1506	13.7694	2.22314
10.1522	8.01072	2.24268
10.1541	25.4585	2.262207
10.1547	19.3903	2.28174
10.156	15.1369	2.30127
10.1578	24.8615	2.3208
10.1606	26.1147	2.340332
10.1613	16.6218	2.35986
10.1634	27.7283	2.37939
10.165	26.8035	2.39893
10.1666	23.0079	2.418457
10.1678	29.1278	2.43799
10.169	33.8124	2.45752
10.1716	23.7933	2.47705
10.1725	28.7051	2.496582
10.1747	37.4855	2.51611
10.17597	31.6676	2.53564
10.1775	32.7303	2.55518
10.1783	38.482	2.574707
10.18181	37.4829	2.59424
10.1838	36.1723	2.61377
10.1843	44.5437	2.6333
10.1857	42.5779	2.652832
10.1871	38.7139	2.67236
10.1892	42.3178	2.69189
10.191	49.6872	2.71143
10.1924	40.8069	2.730957
10.1938	47.2089	2.75049
10.196	53.3438	2.77002
10.1974	48.7046	2.78955
10.19903	46.221	2.809082
10.2008	58.5396	2.82861
10.2028	50.6789	2.84814
10.2038	50.9836	2.86768
10.2053	62.3703	2.887207
10.2063	58.2974	2.90674
10.2079	49.4385	2.92627
10.2106	64.9522	2.9458
10.212	64.5764	2.965332
10.2137	57.1875	2.98486
10.2145	63.1366	3.00439
10.2167	67.5139	3.02393
10.2175	59.2765	3.043457
10.2192	68.1379	3.06299
10.2214	72.8933	3.08252
10.2234	63.0182	3.10205
10.2249	70.1584	3.121582
10.2272	75.2092	3.14111
10.228	67.2831	3.16064
10.23	68.1777	3.18018
10.2318	79.4149	3.199707
10.2334	77.1009	3.21924
10.2349	72.7132	3.23877
10.237	78.6686	3.2583
10.2384	81.8297	3.277832
10.2397	75.4723	3.29736
10.2412	86.3488	3.31689
10.2421	85.8154	3.33643
10.2444	80.2364	3.355957
10.2459	81.7136	3.37549
10.2489	93.3003	3.39502
10.2488	84.3984	3.41455
10.2513	87.9296	3.434082
10.2528	96.1765	3.45361
10.2542	92.5635	3.47314
10.2561	85.6077	3.49268
10.25734	100.416	3.512207
10.25935	93.4576	3.53174
10.2608	91.1744	3.55127
10.2627	102.796	3.5708
10.2637	100.168	3.590332
10.2663	91.0457	3.60986
10.26733	104.231	3.62939
10.2695	106.293	3.64893
10.27039	98.7494	3.668457
10.2725	106.247	3.68799
10.274	110.751	3.70752
10.276	103.229	3.72705
10.2775	107.457	3.746582
10.2786	115.955	3.76611
10.2795	107.557	3.78564
10.2813	110.496	3.80518
10.2827	115.398	3.824707
10.2843	115.0491	3.84424
10.2861	109.852	3.86377
10.2894	122.072	3.8833
10.2897	122.1787	3.902832
10.2917	114.689	3.92236
10.2928	118.963	3.94189
10.2945	124.808	3.96143
10.2976	118.715	3.980957
10.2977	124.845	4.00049
10.3005	128.474	4.02002
10.3016	123.261	4.03955
10.3026	120.333	4.059082
10.30426	135.917	4.07861
10.3058	128.32	4.09814
10.3086	126.657	4.11768
10.3097	136.1723	4.137207
10.3116	133.708	4.15674
10.3122	127.358	4.17627
10.3149	140.621	4.1958
10.3158	136.971	4.215332
10.3181	132.904	4.23486
10.3193	143.262	4.25439
10.3211	144.394	4.27393
10.3227	134.228	4.293457
10.3244	143.363	4.31299
10.3261	149.631	4.33252
10.3271	141.608	4.35205
10.32905	147.05	4.371582
10.3305	150.2475	4.39111
10.3319	147.115	4.41064
10.3341	147.921	4.43018
10.3372	156.419	4.449707
10.3362	153.074	4.46924
10.3384	149.711	4.48877
10.3405	156.1946	4.5083
10.343	159.877	4.527832
10.3433	151.929	4.54736
10.3449	161.0778	4.56689
10.34713	163.968	4.58643
10.3492	158.196	4.605957
10.3501	157.959	4.62549
10.3532	169.024	4.64502
10.3528	160.752	4.66455
10.3569	165.361	4.684082
10.356	172.479	4.70361
10.3575	165.635	4.72314
10.3593	162.204	4.74268
10.3624	177.3485	4.762207
10.3632	172.756	4.78174
10.3653	168.559	4.80127
10.3666	178.165	4.8208
10.3685	177.366	4.840332
10.3693	170.007	4.85986
10.3723	180.032	4.87939
10.3735	182.784	4.89893
10.3754	174.644	4.918457
10.3754	182.369	4.93799
10.3778	186.3	4.95752
10.3805	178.149	4.97705
10.3808	180.5244	4.996582
10.3829	192.158	5.01611
10.3841	185.495	5.03564
10.3862	186.191	5.05518
10.3877	189.567	5.074707
10.3899	190.649	5.09424
10.3911	188.401	5.11377
10.3918	198.044	5.1333
10.3936	195.554	5.152832
10.3954	192.596	5.17236
10.3976	196.459	5.19189
10.3989	203.719	5.21143
10.4008	193.891	5.230957
10.4024	199.257	5.25049
10.40366	207.163	5.27002
10.4055	200.531	5.28955
10.4068	197.613	5.309082
10.408	209.885	5.32861
10.4102	203.417	5.34814
10.4113	204.07	5.36768
10.4141	212.753	5.387207
10.4157	209.409	5.40674
10.4168	201.931	5.42627
10.41901	216.222	5.4458
10.421	217.066	5.465332
10.422	207.967	5.48486
10.42476	216.161	5.50439
10.4245	219.196	5.52393
10.42771	212.5042	5.543457
10.4283	218.927	5.56299
10.4305	224.591	5.58252
10.4313	216.282	5.60205
10.4334	220.867	5.621582
10.4345	225.425	5.64111
10.4359	222.009	5.66064
10.4383	219.985	5.68018
10.4399	231.478	5.699707
10.4421	229.518	5.71924
10.4425	226.755	5.73877
10.4433	229.568	5.7583
10.4464	235.6554	5.777832
10.4479	226.969	5.79736
10.4498	237.013	5.81689
10.4515	240.472	5.83643
10.4524	230.767	5.855957
10.4544	233.237	5.87549
10.4557	246.36	5.89502
10.45764	234.539	5.91455
10.4593	237.155	5.934082
10.4604	247.672	5.95361
10.4628	243.027	5.97314
10.4638	238.781	5.99268
10.4662	250.932	6.012207
10.46773	245.417	6.03174
10.4683	242.834	6.05127
10.4699	254.278	6.0708
10.4723	252.097	6.090332
10.4734	244.4	6.10986
10.4752	255.578	6.12939
10.4775	261.034	6.14893
10.4801	250.412	6.168457
10.4798	256.125	6.18799
10.4819	260.648	6.20752
10.4842	256.14	6.22705
10.4855	259.082	6.246582
10.4874	266.6748	6.26611
10.4877	260.462	6.28564
10.4905	261.191	6.30518
10.4918	266.154	6.324707
10.4934	268.35	6.34424
10.4947	259.813	6.36377
10.497	272.928	6.3833
10.4984	273.138	6.402832
10.5003	267.503	6.42236
10.5018	268.654	6.44189
10.504	277.109	6.46143
10.5044	268.949	6.480957
10.5057	276.25	6.50049
10.5081	283.871	6.52002
10.5088	272.435	6.53955
10.511	273.2662	6.559082
10.5124	287.997	6.57861
10.5142	279.723	6.59814
10.516	276.368	6.61768
10.518	290.043	6.637207
10.5194	284.502	6.65674
10.5198	279.332	6.67627
10.523	290.3912	6.6958
10.5235	291.371	6.715332
10.525	283.262	6.73486
10.5274	294.755	6.75439
10.5303	293.473	6.77393
10.5306	286.939	6.793457
10.5332	292.53	6.81299
10.5332	302.806	6.83252
10.5358	292.718	6.85205
10.5377	295.968	6.871582
10.5395	300.4848	6.89111
10.5412	300.213	6.91064
10.54205	295.807	6.93018
10.54415	307.687	6.949707
10.5467	303.499	6.96924
10.5471	298.386	6.98877
10.5491	306.249	7.0083
10.55	311.9274	7.027832
10.5522	300.3	7.04736
10.554	310.367	7.06689
10.555	317.225	7.08643
10.55657	307.91	7.105957
10.5589	308.248	7.12549
10.5599	320.579	7.14502
10.5616	310.886	7.16455
10.56366	313.7605	7.184082
10.5646	324.7	7.20361
10.5666	315.195	7.22314
10.5693	312.525	7.24268
10.5699	325.932	7.262207
10.5723	322.452	7.28174
10.57305	315.743	7.30127
10.574	327.4137	7.3208
10.5771	326.4776	7.340332
10.5777	319.702	7.35986
10.5809	330.39	7.37939
10.5816	333.185	7.39893
10.5835	323.225	7.418457
10.5842	332.778	7.43799
10.5855	337.145	7.45752
10.5874	330.312	7.47705
10.59	330.1167	7.496582
10.5912	345.473	7.51611
10.5926	335.597	7.53564
10.5946	336.101	7.55518
10.5959	340.336	7.574707
10.5977	342.5744	7.59424
10.5994	336.909	7.61377
10.6002	348.144	7.6333
10.6026	346.616	7.652832
10.6042	341.189	7.67236
10.60576	346.251	7.69189
10.608	354.136	7.71143
10.6098	341.832	7.730957
10.61088	350.339	7.75049
10.6123	356.993	7.77002
10.614	349.815	7.78955
10.6164	349.358	7.809082
10.6175	360.6496	7.82861
10.6193	353.57	7.84814
10.6199	352.666	7.86768
10.6212	365.269	7.887207
10.623	357.267	7.90674
10.6251	351.742	7.92627
10.6271	365.47	7.9458
10.6276	364.93	7.965332
10.6298	357.318	7.98486
10.6315	364.987	8.00439
10.6335	367.267	8.02393
10.6351	364.442	8.043457
10.6368	368.969	8.06299
10.639	375.209	8.08252
10.6401	364.243	8.10205
10.6413	371.118	8.121582
10.6436	376.23	8.14111
10.6445	373.224	8.16064
10.64642	368.178	8.18018
10.6476	381.532	8.199707
10.6496	377.924	8.21924
10.6509	373.85	8.23877
10.6534	379.4223	8.2583
10.6555	385.993	8.277832
10.6559	375.678	8.29736
10.6581	385.648	8.31689
10.6593	390.206	8.33643
10.6623	378.715	8.355957
10.6632	382.513	8.37549
10.66353	394.853	8.39502
10.6648	385.182	8.41455
10.6677	386.257	8.434082
10.6692	398.58	8.45361
10.6708	388.905	8.47314
10.6726	387.5336	8.49268
10.6743	399.788	8.512207
10.67596	396.24	8.53174
10.6788	390.414	8.55127
10.6787	403.012	8.5708
10.68021	398.674	8.590332
10.6822	393.181	8.60986
10.6838	403.081	8.62939
10.6852	408.3797	8.64893
10.687	398.225	8.668457
10.6888	406.1788	8.68799
10.6894	408.768	8.70752
10.6921	405.503	8.72705
10.6932	405.838	8.746582
10.6952	416.463	8.76611
10.6965	407.962	8.78564
10.69833	407.626	8.80518
10.7008	414.9	8.824707
10.7019	416.986	8.84424
10.7026	406.77	8.86377
10.7051	420.341	8.8833
10.7066	420.577	8.902832
10.7081	414.213	8.92236
10.7104	419.29	8.94189
10.7122	424.123	8.96143
10.7139	415.848	8.980957
10.7148	423.608	9.00049
10.7158	431.417	9.02002
10.7189	419.815	9.03955
10.72049	420.653	9.059082
10.7207	434.406	9.07861
10.7223	425.9725	9.09814
10.7246	422.499	9.11768
10.7255	436.565	9.137207
10.7275	431.107	9.15674
10.7289	426.393	9.17627
10.7312	436.745	9.1958
10.7329	437.6405	9.215332
10.73414	430.204	9.23486
10.736	442.622	9.25439
10.7374	442.351	9.27393
10.739	435.403	9.293457
10.7408	438.834	9.31299
10.7444	448.877	9.33252
10.744	439.3017	9.35205
10.7461	442.945	9.371582
10.7466	447.2467	9.39111
10.749	445.573	9.41064
10.7506	443.576	9.43018
10.752	452.9082	9.449707
10.7531	449.578	9.46924
10.7545	445.27	9.48877
10.75739	453.509	9.5083
10.7588	458.908	9.527832
10.761	445.6716	9.54736
10.7623	457.168	9.56689
10.7636	461.321	9.58643
10.7653	451.737	9.605957
10.7658	455.447	9.62549
10.76829	465.179	9.64502
10.77019	457.612	9.66455
10.7712	459.124	9.684082
10.7723	471.102	9.70361
10.7748	460.33	9.72314
10.7763	459.716	9.74268
10.7778	473.838	9.762207
10.779	469.777	9.78174
10.7808	462.352	9.80127
10.7832	475.714	9.8208
10.7846	472.395	9.840332
10.7865	466.829	9.85986
10.7888	475.136	9.87939
10.79094	480.165	9.89893
10.7913	470.511	9.918457
10.7936	478.468	9.93799
10.7949	481.418	9.95752
10.79683	476.626	9.97705
10.7974	474.339	9.996582
10.7986	488.272	10.0161
10.8006	481.86	10.0356
10.8019	480.076	10.0552
10.8041	486.8063	10.0747
10.80593	488.235	10.0942
10.8067	481.766	10.11377
10.8089	494.14	10.1333
10.8115	491.216	10.1528
10.8129	483.462	10.1724
10.8145	491.907	10.1919
10.8162	498.012	10.2114
10.8166	488.553	10.231
10.8181	493.094	10.2505
10.81975	502.478	10.27002
10.823	493.413	10.2896
10.8244	494.118	10.3091
10.8258	505.276	10.3286
10.8263	499.134	10.3481
10.8288	495.796	10.3677
10.8304	511.205	10.3872
10.8309	500.707	10.4067
10.8344	499.137	10.42627
10.8344	509.813	10.4458
10.8377	511.442	10.4653
10.8379	500.966	10.4849
10.8397	511.0929	10.5044
10.8408	513.232	10.5239
10.84352	507.3688	10.5435
10.8451	512.82	10.563
10.8474	520.143	10.58252
10.84867	510.394	10.6021
10.8502	515.039	10.6216
10.8518	522.7182	10.6411
10.8519	517.488	10.6606
10.85439	512.802	10.6802
10.8562	526.7915	10.6997
10.85797	523.624	10.7192
10.8593	517.339	10.73877
10.8615	523.675	10.7583
10.8624	529.294	10.7778
10.86544	519.936	10.7974
10.8651	529.893	10.8169
10.8674	533.526	10.8364
10.8692	522.716	10.856
10.8706	528.663	10.8755
10.8736	538.396	10.89502
10.874	528.452	10.9146
10.8756	530.126	10.9341
10.878	542.733	10.9536
10.8785	534.153	10.9731
10.8802	530.7403	10.9927
10.8824	541.846	11.0122
10.8842	538.345	11.0317
10.8854	533.197	11.05127
10.8872	546.914	11.0708
10.8886	541.581	11.0903
10.8903	536.656	11.1099
10.892	546.414	11.1294
10.8932	552.224	11.1489
10.8961	540.483	11.1685
10.896	548.054	11.188
10.8997	551.972	11.20752
10.9006	549.29	11.2271
10.9019	548.918	11.2466
10.9043	560.514	11.2661
10.9057	550.315	11.2856
10.9068	551.699	11.3052
10.9081	559.6842	11.3247
10.9105	558.063	11.3442
10.9115	551.3291	11.36377
10.91372	561.817	11.3833
10.9147	563.455	11.4028
10.9161	554.762	11.4224
10.9183	561.601	11.4419
10.9198	568.02	11.4614
10.92071	559.063	11.481
10.9228	566.074	11.5005
10.924	572.169	11.52002
10.9263	560.891	11.5396
10.92726	564.368	11.5591
10.92936	574.874	11.5786
10.9311	568.453	11.5981
10.9334	565.467	11.6177
10.9342	578.509	11.6372
10.93743	571.202	11.6567
10.9368	570.39	11.67627
10.9385	578.41	11.6958
10.9408	580.022	11.7153
10.9428	572.785	11.7349
10.9443	583.2561	11.7544
10.947	581.951	11.7739
10.9468	576.258	11.7935
10.9492	580.568	11.813
10.95	591.348	11.83252
10.9524	580.93	11.8521
10.9539	582.1286	11.8716
10.9552	588.724	11.8911
10.9575	587.016	11.9106
10.9593	583.779	11.9302
10.9604	595.102	11.9497
10.9621	592.309	11.9692
10.9625	585.651	11.98877
10.9664	595.17	12.0083
10.9667	598.117	12.0278
10.9684	589.788	12.0474
10.97	597.801	12.0669
10.9711	604.4361	12.0864
10.9733	590.814	12.106
10.9753	598.77	12.1255
10.9768	605.519	12.14502
10.9781	598.146	12.1646
10.9793	599.14	12.1841
10.9812	611.349	12.2036
10.9838	600.05	12.2231
10.9854	601.741	12.2427
10.9867	612.242	12.2622
10.988	610.687	12.2817
10.9885	603.786	12.30127
10.9915	615.201	12.3208
10.994	611.642	12.3403
10.9947	608.119	12.3599
10.9962	613.3924	12.3794
10.9983	618.441	12.3989
11.0002	608.447	12.4185
11.0018	616.774	12.438
11.0022	619.293	12.45752
11.0039	615.856	12.4771
11.0061	614.942	12.4966
11.0082	627.991	12.5161
11.0097	620.336	12.5356
11.0104	619.106	12.5552
11.0121	627.002	12.5747
11.0151	625.427	12.5942
11.016	619.829	12.61377
11.0171	629.999	12.6333
11.0189	632.562	12.6528
11.0209	619.613	12.6724
11.023	630.299	12.6919
11.0241	636.176	12.7114
11.02513	626.725	12.731
11.0275	631.292	12.7505
11.02847	643.176	12.77002
11.03022	630.315	12.7896
11.0316	634.833	12.8091
11.03405	641.721	12.8286
11.0356	637.185	12.8481
11.0356	635.24	12.8677
11.03756	649.034	12.8872
11.0402	639.313	12.9067
11.0415	637.086	12.92627
11.0434	647.539	12.9458
11.0448	650.057	12.9653
11.04702	640.938	12.9849
11.0478	649.732	13.0044
11.0504	651.385	13.0239
11.0513	645.822	13.0435
11.0538	649.541	13.063
11.0548	656.49	13.08252
11.057	647.837	13.1021
11.0584	652.599	13.1216
11.0603	657.7135	13.1411
11.0618	654.423	13.1606
11.0631	649.884	13.1802
11.0656	662.006	13.1997
11.06617	660.661	13.2192
11.0675	654.76	13.23877
11.0695	661.863	13.2583
11.0711	664.875	13.2778
11.0728	656.716	13.2974
11.07345	665.48	13.3169
11.075	669.126	13.3364
11.0773	658.2522	13.356
11.0798	667.844	13.3755
11.08	675.486	13.39502
11.0826	665.731	13.4146
11.0854	665.153	13.4341
11.0851	678.919	13.4536
11.0874	669.163	13.4731
11.0891	670.237	13.4927
11.0899	679.73	13.5122
11.0935	678.6037	13.5317
11.0943	670.133	13.55127
11.0946	684.265	13.5708
11.0974	678.342	13.5903
11.0979	675.975	13.6099
11.1009	682.858	13.6294
11.101	688.607	13.6489
11.1038	679.371	13.6685
11.1044	683.939	13.688
11.107	687.649	13.70752
11.1084	683.675	13.7271
11.1099	684.148	13.7466
11.1106	694.586	13.7661
11.1136	687.546	13.7856
11.1148	685.264	13.8052
11.117	693.0838	13.8247
11.1176	693.303	13.8442
11.1197	686.83	13.86377
11.1217	697.2	13.8833
11.1235	700.111	13.9028
11.1242	688.905	13.9224
11.126	697.319	13.9419
11.1275	702.461	13.9614
11.1298	693.242	13.981
11.1317	700.0191	14.0005
11.1322	709.528	14.02002
11.1339	695.585	14.0396
11.1363	701.7049	14.0591
11.1383	711.627	14.0786
11.1395	705.503	14.0981
11.1412	700.925	14.1177
11.1429	713.507	14.1372
11.1435	706.07	14.1567
11.1464	707.4516	14.17627
11.1484	712.9	14.1958
11.15	714.041	14.2153
11.1507	707.224	14.2349
11.1533	716.856	14.2544
11.1538	716.834	14.2739
11.1562	710.996	14.2935
11.157	713.558	14.313
11.1596	725.417	14.33252
11.15991	716.162	14.3521
11.162	717.257	14.3716
11.1644	722.705	14.3911
11.1663	722.361	14.4106
11.1673	717.483	14.4302
11.1685	729.857	14.4497
11.17014	724.645	14.4692
11.1725	719.381	14.48877
11.1733	729.687	14.5083
11.1748	730.778	14.5278
11.1773	722.116	14.5474
11.1786	728.3847	14.5669
11.1796	738.646	14.5864
11.1815	724.409	14.606
11.1833	732.451	14.6255
11.1847	739.016	14.64502
11.1878	731.249	14.6646
11.1876	733.364	14.6841
11.1906	743.699	14.7036
11.191	732.703	14.7231
11.1929	735.455	14.7427
11.1946	745.759	14.7622
11.1965	741.72	14.7817
11.1976	736.191	14.80127
11.2	746.35	14.8208
11.2005	742.184	14.8403
11.2034	740.481	14.8599
11.2047	746.284	14.8794
11.2058	751.522	14.8989
11.20727	742.222	14.9185
11.2099	748.321	14.938
11.2109	753.7	14.95752
11.2125	746.342	14.9771
11.2144	747.456	14.9966
11.2163	758.865	15.0161
11.2181	752.938	15.0356
11.21897	749.503	15.0552
11.2202	756.513	15.0747
11.2222	756.048	15.0942
11.2243	753.265	15.11377
11.2267	762.164	15.1333
11.2273	763.643	15.1528
11.2284	752.672	15.1724
11.2299	762.112	15.1919
11.2325	768.4975	15.2114
11.2333	758.109	15.231
11.2356	762.1192	15.2505
11.2369	772.219	15.27002
11.23916	759.646	15.2896
11.2396	766.8	15.3091
11.241	772.746	15.3286
11.2438	767.501	15.3481
11.2445	765.269	15.3677
11.2459	777.581	15.3872
11.2482	769.552	15.4067
11.2497	766.705	15.42627
11.2515	777.277	15.4458
11.2539	779.911	15.4653
11.2546	771.644	15.4849
11.2556	779.382	15.5044
11.2574	777.629	15.5239
11.2605	776.34	15.5435
11.2619	780.009	15.563
11.2633	784.787	15.58252
11.26454	777.286	15.6021
11.26709	779.032	15.6216
11.2685	787.865	15.6411
11.2696	783.185	15.6606
11.2715	777.626	15.6802
11.2721	791.463	15.6997
11.2737	788.665	15.7192
11.27674	781.8233	15.73877
11.2779	791.352	15.7583
11.2796	792.991	15.7778
11.2812	786.272	15.7974
11.2816	793.648	15.8169
11.2837	797.371	15.8364
11.2849	785.703	15.856
11.2869	794.992	15.8755
11.2902	801.364	15.89502
11.2903	795.104	15.9146
11.2927	795.583	15.9341
11.2939	805.707	15.9536
11.2954	795.5672	15.9731
11.2982	798.291	15.9927
11.2985	804.5542	16.0122
11.302	802.394	16.0317
11.30126	798.33	16.05127
11.3036	810.814	16.0708
11.3047	803.49	16.0903
11.3058	801.851	16.1099
11.3091	807.224	16.1294
11.3099	814.429	16.1489
11.3124	806.027	16.1685
11.31395	808.019	16.188
11.3145	812.2627	16.20752
11.3176	808.623	16.2271
11.31803	810.205	16.2466
11.32021	819.954	16.2661
11.3213	813.915	16.2856
11.3235	810.516	16.3052
11.3246	819.923	16.3247
11.3265	816.817	16.3442
11.328	811.817	16.36377
11.3296	820.8465	16.3833
11.3309	823.0849	16.4028
11.3329	812.972	16.4224
11.3345	821.845	16.4419
11.3359	826.421	16.4614
11.3378	818.502	16.481
11.3391	825.344	16.5005
11.3411	832.556	16.52002
11.3424	819.311	16.5396
11.3447	825.6015	16.5591
11.34608	834.476	16.5786
11.3482	828.422	16.5981
11.3498	825.859	16.6177
11.3506	836.2807	16.6372
11.352	828.9682	16.6567
11.3544	831.306	16.67627
11.3562	837.646	16.6958
11.3566	835.85	16.7153
11.3588	829.936	16.7349
11.361	839.46	16.7544
11.3625	839.678	16.7739
11.3638	831.856	16.7935
11.3659	836.2818	16.813
11.36835	845.638	16.83252
11.3684	839.396	16.8521
11.3698	837.895	16.8716
11.372	845.817	16.8911
11.3735	841.802	16.9106
11.3749	840.321	16.9302
11.3777	849.25	16.9497
11.3789	846.242	16.9692
11.3798	839.695	16.98877
11.3818	850.44	17.0083
11.3834	851.75	17.0278
11.3857	843.834	17.0474
11.3871	850.911	17.0669
11.3887	858.318	17.0864
11.38955	845.169	17.106
11.392	852.831	17.1255
11.3933	856.853	17.14502
11.39588	851.349	17.1646
11.3969	855.5343	17.1841
11.3982	864.211	17.2036
11.3991	851.816	17.2231
11.4023	855.11	17.2427
11.4033	863.852	17.2622
11.4051	860.815	17.2817
11.4065	855.651	17.30127
11.4074	865.819	17.3208
11.4109	861.851	17.3403
11.4112	859.277	17.3599
11.4132	865.185	17.3794
11.4144	868.566	17.3989
11.4168	860.6084	17.4185
11.4182	865.393	17.438
11.4188	869.511	17.45752
11.42022	863.576	17.4771
11.4223	865.29	17.4966
11.4246	875.657	17.5161
11.4256	870.935	17.5356
11.42716	867.337	17.5552
11.4294	875.713	17.5747
11.4304	872.313	17.5942
11.4317	870.889	17.61377
11.4346	877.814	17.6333
11.4359	879.282	17.6528
11.4374	867.393	17.6724
11.4385	879.347	17.6919
11.4407	882.244	17.7114
11.442	873.634	17.731
11.4437	877.886	17.7505
11.4461	886.585	17.77002
11.4452	875.414	17.7896
11.4486	882.2489	17.8091
11.4508	885.716	17.8286
11.4525	882.544	17.8481
11.45385	879.096	17.8677
11.4554	891.411	17.8872
11.45601	883.234	17.9067
11.4586	881.812	17.92627
11.4599	890.471	17.9458
11.46142	892.743	17.9653
11.4633	884.431	17.9849
11.4648	890.568	18.0044
11.4666	891.496	18.0239
11.4686	889.328	18.0435
11.4695	891.547	18.063
11.471	896.607	18.08252
11.4726	889.508	18.1021
11.4756	890.605	18.1216
11.4761	899.757	18.1411
11.478	893.6825	18.1606
11.4784	892.238	18.1802
11.4818	902.53	18.1997
11.4827	900.987	18.2192
11.485	891.764	18.23877
11.486	902.3045	18.2583
11.4869	902.984	18.2778
11.4903	895.846	18.2974
11.49085	905.062	18.3169
11.4929	909.083	18.3364
11.4935	896.378	18.356
11.4949	905.911	18.3755
11.4974	910.572	18.39502
11.5003	902.687	18.4146
11.4992	904.327	18.4341
11.5023	914.086	18.4536
11.5026	902.912	18.4731
11.5058	906.266	18.4927
11.5077	913.117	18.5122
11.5087	909.39	18.5317
11.5105	906.781	18.55127
11.5125	916.917	18.5708
11.5144	912.1615	18.5903
11.5153	907.945	18.6099
11.5167	915.553	18.6294
11.5186	919.078	18.6489
11.5197	911.207	18.6685
11.5215	914.831	18.688
11.5238	919.864	18.70752
11.5247	914.124	18.7271
11.5268	916.51	18.7466
11.5288	925.052	18.7661
11.5293	919.229	18.7856
11.5311	914.501	18.8052
11.5326	925.255	18.8247
11.5346	921.194	18.8442
11.5368	917.657	18.86377
11.5383	924.291	18.8833
11.5396	928.238	18.9028
11.5414	916.719	18.9224
11.54325	927.416	18.9419
11.5448	928.412	18.9614
11.5457	921.864	18.981
11.5472	925.266	19.0005
11.5493	935.06	19.02002
11.5512	919.154	19.0396
11.5529	927.724	19.0591
11.5548	933.719	19.0786
11.55658	929.2218	19.0981
11.5577	926.993	19.1177
11.55852	936.078	19.1372
11.561	928.026	19.1567
11.5616	928.072	19.17627
11.5633	936.233	19.1958
11.566	936.2182	19.2153
11.5674	929.921	19.2349
11.5693	935.598	19.2544
11.5697	936.858	19.2739
11.5722	929.935	19.2935
11.5741	935.089	19.313
11.575	943.053	19.33252
11.5767	934.212	19.3521
11.5795	933.011	19.3716
11.5806	942.088	19.3911
11.5815	936.325	19.4106
11.5828	937.949	19.4302
11.5853	944.511	19.4497
11.5877	942.717	19.4692
11.5875	933.508	19.48877
11.59	947.044	19.5083
11.593	947.846	19.5278
11.5944	937.362	19.5474
11.5955	943.728	19.5669
11.5959	950.423	19.5864
11.5982	938.3385	19.606
11.5993	944.5993	19.6255
11.6015	949.469	19.64502
11.6039	942.529	19.6646
11.60451	944.717	19.6841
11.6062	954.759	19.7036
11.6077	942.618	19.7231
11.6092	943.691	19.7427
11.61162	953.9953	19.7622
11.6131	951.2912	19.7817
11.61464	944.653	19.80127
11.6164	953.685	19.8208
11.6182	949.473	19.8403
11.6203	947.9483	19.8599
11.6209	954.966	19.8794
11.6232	955.482	19.8989
11.6246	948.6	19.9185
11.6263	951.837	19.938
11.6274	959.171	19.95752
11.6297	950.669	19.9771
11.6313	952.057	19.9966
11.63309	961.111	20.0161
11.6333	960.487	20.0259

Data Header:			0.254_solid_dimension_typei_090_r0			Time:	40.03125	s	4/15/2019 2:19:12 PM
Data Acquisition:	Timed
Station Name:	ft40.cfg
Test File Name:	monotonic_0.2540_typei_solid_090_dimension.tst
Displacement	Force	Running Time
mm	N	s
11.6351	955.92	20.0356
11.6348	950.731	20.0552
11.6372	960.773	20.0747
11.6389	956.817	20.0942
11.6406	954.078	20.11377
11.6425	962.275	20.1333
11.6437	963.291	20.1528
11.646	949.297	20.1724
11.6462	962.8172	20.1919
11.649	965.043	20.2114
11.6511	957.166	20.231
11.6518	959.797	20.2505
11.6542	966.829	20.27002
11.6549	957.175	20.2896
11.6567	961.935	20.3091
11.6584	967.235	20.3286
11.661	960.819	20.3481
11.66112	959.37	20.3677
11.6634	969.568	20.3872
11.66502	963.4054	20.4067
11.6655	959.05	20.42627
11.6681	967.845	20.4458
11.6694	967.131	20.4653
11.672	961.338	20.4849
11.6729	965.946	20.5044
11.6742	967.394	20.5239
11.6771	963.513	20.5435
11.6773	966.548	20.563
11.6798	972.256	20.58252
11.6823	964.478	20.6021
11.68276	965.171	20.6216
11.6837	973.174	20.6411
11.6866	968.549	20.6606
11.6872	965.8689	20.6802
11.689	974.236	20.6997
11.6912	974.455	20.7192
11.6925	963.616	20.73877
11.6946	975.533	20.7583
11.6968	972.011	20.7778
11.6981	967.052	20.7974
11.6985	975.074	20.8169
11.7005	977.467	20.8364
11.7026	965.317	20.856
11.7041	973.761	20.8755
11.7061	977.372	20.89502
11.7081	971.191	20.9146
11.7088	971.67	20.9341
11.7103	981.321	20.9536
11.7125	971.722	20.9731
11.7135	972.4	20.9927
11.7152	979.327	21.0122
11.7172	976.198	21.0317
11.7183	971.926	21.05127
11.7209	982.094	21.0708
11.7217	977.246	21.0903
11.7236	972.967	21.1099
11.7248	978.062	21.1294
11.7268	982.292	21.1489
11.7286	974.0896	21.1685
11.7304	976.853	21.188
11.7314	980.747	21.20752
11.7337	975.427	21.2271
11.73514	977.492	21.2466
11.73546	985.752	21.2661
11.738	977.516	21.2856
11.74	973.789	21.3052
11.7411	986.853	21.3247
11.7424	981.725	21.3442
11.7459	975.312	21.36377
11.7467	983.38	21.3833
11.7484	985.848	21.4028
11.7501	974.26	21.4224
11.7516	984.7359	21.4419
11.7526	984.26	21.4614
11.7543	976.65	21.481
11.7568	982.089	21.5005
11.7583	989.5	21.52002
11.7591	976.056	21.5396
11.7607	980.8158	21.5591
11.7631	987.348	21.5786
11.7646	982.898	21.5981
11.7658	980.5097	21.6177
11.76725	987.274	21.6372
11.7689	981.721	21.6567
11.7703	982.373	21.67627
11.7725	988.109	21.6958
11.7741	985.448	21.7153
11.7758	980.321	21.7349
11.7776	987.285	21.7544
11.7785	986.812	21.7739
11.7805	979.9494	21.7935
11.7824	986.064	21.813
11.7836	990.626	21.83252
11.7861	984.391	21.8521
11.7873	983.192	21.8716
11.7893	989.652	21.8911
11.7903	985.016	21.9106
11.7918	983.752	21.9302
11.7943	990.962	21.9497
11.7953	987.927	21.9692
11.7968	979.04	21.98877
11.7985	993.037	22.0083
11.7998	990.309	22.0278
11.8014	982.348	22.0474
11.8037	989.478	22.0669
11.8053	993.407	22.0864
11.8069	980.951	22.106
11.8075	989.995	22.1255
11.8102	992.691	22.14502
11.8127	984.714	22.1646
11.814	987.939	22.1841
11.8155	996.437	22.2036
11.8174	984.457	22.2231
11.8183	985.993	22.2427
11.8195	993.867	22.2622
11.821	990.463	22.2817
11.8235	984.8031	22.30127
11.8245	991.231	22.3208
11.8264	989.6615	22.3403
11.827	984.24	22.3599
11.8285	991.291	22.3794
11.83113	992.485	22.3989
11.8317	985.625	22.4185
11.8334	988.631	22.438
11.8362	993.919	22.45752
11.8367	986.556	22.4771
11.8394	986.774	22.4966
11.8415	995.3808	22.5161
11.8425	989.711	22.5356
11.8441	983.115	22.5552
11.8449	994.182	22.5747
11.8469	987.944	22.5942
11.84904	984.267	22.61377
11.8513	993.533	22.6333
11.8515	992.621	22.6528
11.8533	979.899	22.6724
11.85569	993.44	22.6919
11.8573	996.043	22.7114
11.85957	986.443	22.731
11.8604	990.155	22.7505
11.8627	996.354	22.77002
11.8635	984.792	22.7896
11.8657	990.021	22.8091
11.86674	996.024	22.8286
11.8684	988.8269	22.8481
11.8701	987.756	22.8677
11.8726	997.318	22.8872
11.8732	988.139	22.9067
11.8751	986.387	22.92627
11.8767	993.228	22.9458
11.878	993.385	22.9653
11.8798	987.896	22.9849
11.8813	990.8526	23.0044
11.8834	991.733	23.0239
11.8844	986.405	23.0435
11.8869	991.692	23.063
11.8875	996.203	23.08252
11.8897	989.036	23.1021
11.8924	987.464	23.1216
11.8931	995.908	23.1411
11.8941	990.534	23.1606
11.8962	988.648	23.1802
11.8969	994.933	23.1997
11.8991	993.464	23.2192
11.9012	985.879	23.23877
11.9019	996.6969	23.2583
11.9038	992.118	23.2778
11.9067	986.651	23.2974
11.907	995.283	23.3169
11.9098	996.022	23.3364
11.9105	982.339	23.356
11.9132	992.666	23.3755
11.9137	996.975	23.39502
11.915	989.51	23.4146
11.917	988.641	23.4341
11.9179	998.0993	23.4536
11.9204	987.814	23.4731
11.9224	989.044	23.4927
11.9242	995.921	23.5122
11.9249	991.242	23.5317
11.92622	985.773	23.55127
11.929	995.183	23.5708
11.9293	992.617	23.5903
11.931	985.464	23.6099
11.9331	991.592	23.6294
11.9353	994.625	23.6489
11.9365	988.131	23.6685
11.9382	989.623	23.688
11.9409	993.446	23.70752
11.9421	986.691	23.7271
11.9429	988.2464	23.7466
11.94448	996.976	23.7661
11.94638	989.515	23.7856
11.9482	983.73	23.8052
11.9498	996.53	23.8247
11.9507	991.774	23.8442
11.9533	986.818	23.86377
11.9549	994.684	23.8833
11.9562	994.54	23.9028
11.9586	983.529	23.9224
11.9599	994.102	23.9419
11.9615	992.684	23.9614
11.9627	985.806	23.981
11.9652	991.624	24.0005
11.9659	997.939	24.02002
11.96714	983.383	24.0396
11.9699	987.334	24.0591
11.9717	995.651	24.0786
11.9719	990.3847	24.0981
11.97354	986.55	24.1177
11.975	994.136	24.1372
11.9775	986.487	24.1567
11.9789	985.153	24.17627
11.9805	991.85	24.1958
11.9817	991.428	24.2153
11.9838	984.61	24.2349
11.9853	991.622	24.2544
11.9874	993.033	24.2739
11.9889	986.475	24.2935
11.9903	988.028	24.313
11.99262	993.173	24.33252
11.9938	987.289	24.3521
11.9946	985.873	24.3716
11.99717	992.673	24.3911
11.9987	985.699	24.4106
12.0012	985.923	24.4302
12.002	993.84	24.4497
12.0037	991.137	24.4692
12.0058	979.531	24.48877
12.0069	994.473	24.5083
12.0091	991.111	24.5278
12.0089	984.6604	24.5474
12.0117	989.409	24.5669
12.0142	993.671	24.5864
12.0143	980.416	24.606
12.0166	990.886	24.6255
12.0177	992.498	24.64502
12.0205	984.817	24.6646
12.0227	985.1402	24.6841
12.02358	995.057	24.7036
12.0248	983.008	24.7231
12.0256	983.766	24.7427
12.028	991.491	24.7622
12.0291	988.057	24.7817
12.03214	982.769	24.80127
12.0327	990.07	24.8208
12.0336	986.358	24.8403
12.0367	981.668	24.8599
12.0374	988.947	24.8794
12.0386	989.123	24.8989
12.0408	981.9021	24.9185
12.0414	984.397	24.938
12.0448	991.397	24.95752
12.0449	983.1358	24.9771
12.0479	983.429	24.9966
12.0491	990.188	25.0161
12.0511	985.028	25.0356
12.0533	980.964	25.0552
12.05377	991.7608	25.0747
12.0558	985.468	25.0942
12.057	982.133	25.11377
12.0597	990.019	25.1333
12.0602	989.097	25.1528
12.0632	976.482	25.1724
12.0634	986.338	25.1919
12.0657	988.756	25.2114
12.0663	982.22	25.231
12.0681	985.974	25.2505
12.0704	988.828	25.27002
12.0713	977.183	25.2896
12.0734	986.128	25.3091
12.0755	989.743	25.3286
12.0767	982.873	25.3481
12.0794	982.326	25.3677
12.0803	990.692	25.3872
12.0816	983.18	25.4067
12.0829	980.322	25.42627
12.0852	986.594	25.4458
12.0873	985.474	25.4653
12.089	979.962	25.4849
12.0896	983.778	25.5044
12.092	984.373	25.5239
12.0928	978.596	25.5435
12.0949	983.445	25.563
12.0971	988.099	25.58252
12.0982	978.797	25.6021
12.1001	978.594	25.6216
12.1008	987.105	25.6411
12.1026	980.56	25.6606
12.1046	979.9411	25.6802
12.1058	986.831	25.6997
12.1083	983.452	25.7192
12.1097	974.544	25.73877
12.111	985.71	25.7583
12.1119	982.746	25.7778
12.11442	977.372	25.7974
12.1153	984.397	25.8169
12.119	987.395	25.8364
12.1194	973.515	25.856
12.121	981.771	25.8755
12.1219	984.954	25.89502
12.1235	979.565	25.9146
12.1259	979.165	25.9341
12.1275	986.072	25.9536
12.1298	976.13	25.9731
12.1314	978.379	25.9927
12.1327	984.163	26.0122
12.1324	979.9422	26.0317
12.136	975.387	26.05127
12.1374	983.459	26.0708
12.1377	980.373	26.0903
12.1401	977.1203	26.1099
12.1415	981.31	26.1294
12.1429	983.166	26.1489
12.1449	977.7392	26.1685
12.1466	978.463	26.188
12.1488	982.675	26.20752
12.1506	975.889	26.2271
12.1513	979.3457	26.2466
12.1535	983.535	26.2661
12.1559	979.105	26.2856
12.1565	972.398	26.3052
12.1581	984.094	26.3247
12.16025	979.692	26.3442
12.1611	977.07	26.36377
12.1621	982.821	26.3833
12.1648	982.2746	26.4028
12.166	971.033	26.4224
12.1684	982.968	26.4419
12.1697	979.579	26.4614
12.1708	973.938	26.481
12.1728	977.63	26.5005
12.1743	984.696	26.52002
12.1753	971.524	26.5396
12.1783	976.965	26.5591
12.1794	982.4256	26.5786
12.1805	976.909	26.5981
12.18173	975.676	26.6177
12.1834	981.597	26.6372
12.1861	974.257	26.6567
12.1865	975.406	26.67627
12.1887	980.79	26.6958
12.19	979.16	26.7153
12.1925	970.998	26.7349
12.1925	977.9762	26.7544
12.1953	980.562	26.7739
12.1974	973.643	26.7935
12.199	976.183	26.813
12.1998	979.947	26.83252
12.2016	974.584	26.8521
12.204	973.181	26.8716
12.2054	979.862	26.8911
12.2065	975.133	26.9106
12.2087	973.181	26.9302
12.2109	981.23	26.9497
12.2124	980.411	26.9692
12.2148	968.699	26.98877
12.21511	979.472	27.0083
12.2166	978.053	27.0278
12.21944	972.3764	27.0474
12.2206	975.5426	27.0669
12.2214	979.726	27.0864
12.2227	968.618	27.106
12.2249	977.2207	27.1255
12.2262	980.373	27.14502
12.2278	971.873	27.1646
12.2299	971.463	27.1841
12.2309	981.66	27.2036
12.2335	971.265	27.2231
12.2348	973.228	27.2427
12.2369	978.968	27.2622
12.237	976.126	27.2817
12.2396	971.349	27.30127
12.241	977.077	27.3208
12.2432	973.325	27.3403
12.2449	970.934	27.3599
12.2458	977.227	27.3794
12.2483	977.606	27.3989
12.2503	971.349	27.4185
12.2511	971.976	27.438
12.25359	979.593	27.45752
12.25403	972.694	27.4771
12.2556	971.565	27.4966
12.2579	978.1759	27.5161
12.2593	974.672	27.5356
12.2597	969.616	27.5552
12.2617	980.228	27.5747
12.2646	973.107	27.5942
12.26532	968.74	27.61377
12.2671	978.8064	27.6333
12.2684	978.406	27.6528
12.2693	965.444	27.6724
12.2726	975.77	27.6919
12.2731	976.295	27.7114
12.2754	970.886	27.731
12.2763	973.554	27.7505
12.2787	978.893	27.77002
12.2799	966.38	27.7896
12.2821	973.525	27.8091
12.2833	978.388	27.8286
12.2845	972.713	27.8481
12.2868	968.604	27.8677
12.2884	978.943	27.8872
12.2906	971.934	27.9067
12.2919	971.641	27.92627
12.29386	976.076	27.9458
12.2946	973.995	27.9653
12.2959	969.749	27.9849
12.2986	973.691	28.0044
12.3005	976.106	28.0239
12.3015	968.134	28.0435
12.3035	972.602	28.063
12.3049	977.0733	28.08252
12.3063	969.47	28.1021
12.3083	968.974	28.1216
12.309	975.69	28.1411
12.3113	970.527	28.1606
12.3124	968.236	28.1802
12.3145	976.325	28.1997
12.3161	973.9436	28.2192
12.3185	964.506	28.23877
12.3195	976.989	28.2583
12.3213	973.016	28.2778
12.3228	967.008	28.2974
12.3237	973.215	28.3169
12.3259	978.791	28.3364
12.3282	964.28	28.356
12.3293	972.578	28.3755
12.3308	975.622	28.39502
12.3327	969.84	28.4146
12.3337	969.506	28.4341
12.3357	976.861	28.4536
12.3368	967.261	28.4731
12.3398	968.862	28.4927
12.34076	975.963	28.5122
12.3435	971.482	28.5317
12.343	966.4519	28.55127
12.3453	973.857	28.5708
12.3469	972.076	28.5903
12.3479	968.478	28.6099
12.3496	971.89	28.6294
12.352	974.494	28.6489
12.3539	966.6394	28.6685
12.3561	969.042	28.688
12.3567	974.191	28.70752
12.3583	965.993	28.7271
12.3595	968.304	28.7466
12.3612	975.289	28.7661
12.3626	970.384	28.7856
12.3636	963.138	28.8052
12.3663	974.367	28.8247
12.3684	969.407	28.8442
12.371	966.254	28.86377
12.3723	971.879	28.8833
12.3711	971.874	28.9028
12.3749	962.005	28.9224
12.3769	973.5451	28.9419
12.3781	973.173	28.9614
12.3797	965.972	28.981
12.3815	969.498	29.0005
12.3832	975.84	29.02002
12.3851	963.997	29.0396
12.3857	969.217	29.0591
12.388	973.43	29.0786
12.3902	968.103	29.0981
12.3911	968.022	29.1177
12.39272	975.208	29.1372
12.393	965.344	29.1567
12.3958	964.919	29.17627
12.3969	974.004	29.1958
12.3987	970.5863	29.2153
12.4001	964.355	29.2349
12.4014	968.383	29.2544
12.4033	971.69	29.2739
12.4053	964.042	29.2935
12.4067	970.035	29.313
12.4083	972.799	29.33252
12.4101	965.502	29.3521
12.4125	965.1875	29.3716
12.4137	973.288	29.3911
12.4151	965.955	29.4106
12.41741	965.533	29.4302
12.4187	973.131	29.4497
12.41995	970.863	29.4692
12.4213	960.554	29.48877
12.4235	972.111	29.5083
12.4253	970.195	29.5278
12.42672	964.495	29.5474
12.4287	970.982	29.5669
12.43014	975.463	29.5864
12.4313	959.949	29.606
12.4337	969.416	29.6255
12.4339	973.153	29.64502
12.4363	963.308	29.6646
12.43834	965.056	29.6841
12.4393	974.172	29.7036
12.4428	964.59	29.7231
12.4425	964.378	29.7427
12.4448	969.66	29.7622
12.4455	968.725	29.7817
12.4486	964.624	29.80127
12.4489	971.461	29.8208
12.4516	968.829	29.8403
12.4534	962.49	29.8599
12.4545	969.632	29.8794
12.4562	971.55	29.8989
12.4571	964.6955	29.9185
12.4597	964.821	29.938
12.4598	971.586	29.95752
12.4624	964.347	29.9771
12.4639	965.2749	29.9966
12.4661	972.044	30.0161
12.4672	966.621	30.0356
12.46866	963.068	30.0552
12.4707	972.311	30.0747
12.472	967.136	30.0942
12.4748	964.091	30.11377
12.4757	971.414	30.1333
12.4772	972.879	30.1528
12.4788	960.738	30.1724
12.47973	969.429	30.1919
12.4819	970.719	30.2114
12.4833	964.75	30.231
12.4856	969.065	30.2505
12.4869	972.26	30.27002
12.4886	959.54	30.2896
12.4903	967.24	30.3091
12.4914	972.48	30.3286
12.4938	965.799	30.3481
12.4944	962.226	30.3677
12.4976	972.187	30.3872
12.49845	966.884	30.4067
12.5002	962.958	30.42627
12.50183	968.6485	30.4458
12.50259	969.212	30.4653
12.5051	962.618	30.4849
12.5059	968.32	30.5044
12.5077	969.365	30.5239
12.5092	961.8147	30.5435
12.5123	967.4895	30.563
12.5137	971.81	30.58252
12.5145	965.597	30.6021
12.5163	962.352	30.6216
12.5173	970.121	30.6411
12.5185	964.488	30.6606
12.5204	964.327	30.6802
12.5233	972.654	30.6997
12.5243	967.768	30.7192
12.5273	959.325	30.73877
12.5274	972.463	30.7583
12.5302	969.116	30.7778
12.5305	962.756	30.7974
12.5332	967.839	30.8169
12.5341	972.275	30.8364
12.5359	959.583	30.856
12.5378	966.047	30.8755
12.5394	969.044	30.89502
12.5404	962.731	30.9146
12.5418	965.7287	30.9341
12.5441	973.194	30.9536
12.5457	961.31	30.9731
12.5468	962.853	30.9927
12.5489	970.7384	31.0122
12.55	965.717	31.0317
12.55094	960.853	31.05127
12.5541	970.122	31.0708
12.55519	966.561	31.0903
12.5559	962.211	31.1099
12.5588	967.837	31.1294
12.5601	968.586	31.1489
12.5611	962.431	31.1685
12.5624	965.307	31.188
12.5642	969.929	31.20752
12.5663	962.088	31.2271
12.5686	962.737	31.2466
12.5699	971.01	31.2661
12.5716	966.2179	31.2856
12.5733	960.549	31.3052
12.5748	969.636	31.3247
12.577	965.933	31.3442
12.5786	962.664	31.36377
12.5796	969.349	31.3833
12.581	967.974	31.4028
12.5832	956.596	31.4224
12.5852	969.27	31.4419
12.586	969.16	31.4614
12.5877	961.7749	31.481
12.5907	965.515	31.5005
12.5907	971.991	31.52002
12.593	961.671	31.5396
12.5939	965.443	31.5591
12.5957	970.321	31.5786
12.5974	965.166	31.5981
12.5994	963.4975	31.6177
12.6006	971.402	31.6372
12.6023	960.8396	31.6567
12.6035	962.264	31.67627
12.60664	968.482	31.6958
12.6078	969.841	31.7153
12.6081	960.765	31.7349
12.6101	965.547	31.7544
12.6133	966.656	31.7739
12.6136	962.408	31.7935
12.6158	965.74	31.813
12.6181	966.766	31.83252
12.6195	962.597	31.8521
12.6205	961.983	31.8716
12.623	970.5257	31.8911
12.6241	962.565	31.9106
12.6263	963.062	31.9302
12.6272	968.7207	31.9497
12.6285	967.178	31.9692
12.6314	957.228	31.98877
12.6315	967.55	32.0083
12.6333	967.766	32.0278
12.6362	962.113	32.0474
12.6368	966.804	32.0669
12.6385	970.797	32.0864
12.6399	956.5379	32.106
12.6417	966.2345	32.1255
12.6433	969.878	32.14502
12.6446	962.3	32.1646
12.64506	960.319	32.1841
12.6481	971.452	32.2036
12.6494	961.101	32.2231
12.6511	963.5119	32.2427
12.6532	967.461	32.2622
12.6548	963.63	32.2817
12.6557	960.558	32.30127
12.6581	968.267	32.3208
12.6593	964.835	32.3403
12.661	959.208	32.3599
12.6629	965.909	32.3794
12.66538	967.6781	32.3989
12.66575	961.356	32.4185
12.6671	962.209	32.438
12.6693	967.771	32.45752
12.6706	961.702	32.4771
12.6724	963.235	32.4966
12.6744	967.301	32.5161
12.6761	962.604	32.5356
12.6773	958.393	32.5552
12.6796	970.183	32.5747
12.6805	964.534	32.5942
12.682	959.83	32.61377
12.6837	966.9787	32.6333
12.6854	969.569	32.6528
12.6869	956.961	32.6724
12.68825	967.005	32.6919
12.6904	967.5365	32.7114
12.6926	959.896	32.731
12.6929	964.6087	32.7505
12.6953	971.2796	32.77002
12.6976	956.823	32.7896
12.6986	963.466	32.8091
12.6998	970.038	32.8286
12.7023	963.552	32.8481
12.7032	959.307	32.8677
12.7051	967.9671	32.8872
12.7074	961.615	32.9067
12.7076	961.877	32.92627
12.7093	968.241	32.9458
12.7127	965.309	32.9653
12.7139	960.89	32.9849
12.714	966.09	33.0044
12.7164	967.701	33.0239
12.7179	958.762	33.0435
12.7201	961.656	33.063
12.7216	968.66	33.08252
12.7225	960.936	33.1021
12.7246	960.792	33.1216
12.7264	965.615	33.1411
12.7279	961.802	33.1606
12.7281	961.575	33.1802
12.73092	967.558	33.1997
12.7327	964.119	33.2192
12.7339	955.556	33.23877
12.7362	967.8996	33.2583
12.7374	965.521	33.2778
12.7393	959.463	33.2974
12.7412	964.014	33.3169
12.7425	968.89	33.3364
12.7433	955.964	33.356
12.7464	964.243	33.3755
12.7472	968.0423	33.39502
12.74928	960.817	33.4146
12.7514	962.269	33.4341
12.7523	970.712	33.4536
12.75396	958.0929	33.4731
12.7548	960.235	33.4927
12.757	967.5014	33.5122
12.7583	965.262	33.5317
12.75982	959.445	33.55127
12.7618	965.8844	33.5708
12.7634	961.903	33.5903
12.7644	959.782	33.6099
12.7668	965.979	33.6294
12.7682	966.927	33.6489
12.7691	958.245	33.6685
12.7716	961.961	33.688
12.7736	966.461	33.70752
12.7748	960.819	33.7271
12.7764	961.686	33.7466
12.7792	967.386	33.7661
12.7801	963.814	33.7856
12.7812	958.103	33.8052
12.7835	967.291	33.8247
12.7841	961.518	33.8442
12.7861	959.498	33.86377
12.7887	967.2619	33.8833
12.7888	966.604	33.9028
12.7919	954.578	33.9224
12.7936	966	33.9419
12.79474	968.082	33.9614
12.7969	960.176	33.981
12.7974	962.219	34.0005
12.8007	970.323	34.02002
12.79992	957.691	34.0396
12.8023	962.324	34.0591
12.8042	969.117	34.0786
12.80624	962.755	34.0981
12.8078	960.52	34.1177
12.8091	970.535	34.1372
12.8108	961.727	34.1567
12.812	958.7796	34.17627
12.8143	963.922	34.1958
12.8156	965.047	34.2153
12.8172	959.375	34.2349
12.8189	965.313	34.2544
12.8209	964.572	34.2739
12.8218	960.004	34.2935
12.8236	963.52	34.313
12.8256	968.477	34.33252
12.8267	960.262	34.3521
12.8283	961.112	34.3716
12.8309	968.237	34.3911
12.8328	962.307	34.4106
12.8342	961.387	34.4302
12.8351	966.3689	34.4497
12.8365	965.575	34.4692
12.8378	956.815	34.48877
12.8397	966.402	34.5083
12.8417	965.7453	34.5278
12.8444	959.659	34.5474
12.8454	965.713	34.5669
12.8469	968.324	34.5864
12.8487	955.31	34.606
12.85	964.231	34.6255
12.8522	968.424	34.64502
12.85381	961.68	34.6646
12.8545	960.681	34.6841
12.8562	969.192	34.7036
12.8583	958.804	34.7231
12.8599	960.469	34.7427
12.8614	967.684	34.7622
12.8623	964.993	34.7817
12.8633	958.684	34.80127
12.8651	967.8	34.8208
12.8675	963.031	34.8403
12.8688	959.264	34.8599
12.8709	964.977	34.8794
12.872	966.847	34.8989
12.8751	960.107	34.9185
12.8756	963.1535	34.938
12.8771	964.744	34.95752
12.8791	959.1554	34.9771
12.8806	962.8222	34.9966
12.8825	967.887	35.0161
12.8842	962.503	35.0356
12.8855	954.927	35.0552
12.8872	967.674	35.0747
12.8889	963.949	35.0942
12.8904	959.209	35.11377
12.8926	965.597	35.1333
12.8936	967.08	35.1528
12.8952	956.1806	35.1724
12.8974	965.228	35.1919
12.8982	965.442	35.2114
12.9003	958.753	35.231
12.9019	963.072	35.2505
12.9028	969.837	35.27002
12.9045	956.162	35.2896
12.9073	962.286	35.3091
12.9089	967.993	35.3286
12.9103	962.295	35.3481
12.9112	959.639	35.3677
12.91221	966.979	35.3872
12.916	959.5885	35.4067
12.9163	961.187	35.42627
12.9183	965.481	35.4458
12.9198	964.473	35.4653
12.92157	957.605	35.4849
12.923	965.342	35.5044
12.9252	964.749	35.5239
12.92611	959.244	35.5435
12.9277	961.048	35.563
12.9298	966.636	35.58252
12.9302	961.473	35.6021
12.93347	960.0719	35.6216
12.935	966.53	35.6411
12.9363	960.886	35.6606
12.9374	960.597	35.6802
12.9398	968.699	35.6997
12.9408	965.216	35.7192
12.9435	954.454	35.73877
12.9436	964.899	35.7583
12.9466	965.793	35.7778
12.9473	958.117	35.7974
12.9496	963.39	35.8169
12.9527	967.985	35.8364
12.9532	954.5072	35.856
12.9538	963.898	35.8755
12.9556	966.8407	35.89502
12.9579	957.8103	35.9146
12.95905	961.579	35.9341
12.9606	968.993	35.9536
12.9628	958.719	35.9731
12.9632	959.386	35.9927
12.965	966.196	36.0122
12.96679	962.592	36.0317
12.9691	959.398	36.05127
12.9703	966.547	36.0708
12.9713	961.943	36.0903
12.9737	959.715	36.1099
12.9756	965.011	36.1294
12.9756	966.945	36.1489
12.9786	957.376	36.1685
12.9795	961.061	36.188
12.9812	965.609	36.20752
12.9836	959.051	36.2271
12.9842	959.472	36.2466
12.9868	966.063	36.2661
12.98844	961.681	36.2856
12.9897	958.451	36.3052
12.9908	965.788	36.3247
12.9923	961.112	36.3442
12.99401	957.711	36.36377
12.9972	964.535	36.3833
12.9981	966.343	36.4028
12.99958	954.098	36.4224
13.0012	962.1994	36.4419
13.00305	965.339	36.4614
13.0043	958.164	36.481
13.0058	961.3125	36.5005
13.00834	966.082	36.52002
13.0092	955.581	36.5396
13.0107	962.12	36.5591
13.0125	966.8	36.5786
13.0138	960.188	36.5981
13.015	958.268	36.6177
13.0183	968.497	36.6372
13.0202	960.319	36.6567
13.02106	958.227	36.67627
13.0224	964.693	36.6958
13.0241	965.241	36.7153
13.0262	958.352	36.7349
13.02744	963.538	36.7544
13.02905	964.2829	36.7739
13.03	958.375	36.7935
13.0318	961.713	36.813
13.0332	967.712	36.83252
13.0352	958.953	36.8521
13.0365	957.632	36.8716
13.03968	966.027	36.8911
13.04066	962.726	36.9106
13.0423	957.693	36.9302
13.0431	965.066	36.9497
13.0453	964.19	36.9692
13.0479	955.064	36.98877
13.04904	964.717	37.0083
13.0502	963.194	37.0278
13.05209	956.4552	37.0474
13.0539	963.537	37.0669
13.0556	966.953	37.0864
13.057	953.127	37.106
13.0589	961.457	37.1255
13.0601	966.761	37.14502
13.06047	959.899	37.1646
13.063	960.108	37.1841
13.0638	967.194	37.2036
13.0668	955.21	37.2231
13.068	960.697	37.2427
13.0693	966.2428	37.2622
13.0704	961.603	37.2817
13.0745	956.964	37.30127
13.0748	964.744	37.3208
13.0764	960.217	37.3403
13.0785	958.634	37.3599
13.0791	960.964	37.3794
13.0812	964.154	37.3989
13.0825	956.857	37.4185
13.0843	960.749	37.438
13.0855	963.284	37.45752
13.0873	957.643	37.4771
13.089	958.417	37.4966
13.0913	967.837	37.5161
13.0926	959.392	37.5356
13.0933	954.49	37.5552
13.0967	964.891	37.5747
13.0979	962.3775	37.5942
13.0979	957.323	37.61377
13.1001	963.607	37.6333
13.1015	964.126	37.6528
13.1042	954.086	37.6724
13.1049	963.091	37.6919
13.1066	963.841	37.7114
13.1098	956.823	37.731
13.11	959.99	37.7505
13.1113	966.969	37.77002
13.113	953.172	37.7896
13.1151	959.013	37.8091
13.1169	963.312	37.8286
13.1187	960.639	37.8481
13.1207	958.176	37.8677
13.1223	966.051	37.8872
13.1227	956.261	37.9067
13.1249	957.505	37.92627
13.1263	964.177	37.9458
13.12767	963.321	37.9653
13.1304	955.642	37.9849
13.1308	962.47	38.0044
13.133	962.373	38.0239
13.1344	958.322	38.0435
13.1368	958.944	38.063
13.13922	965.392	38.08252
13.1399	957.268	38.1021
13.1411	958.68	38.1216
13.1425	964.272	38.1411
13.1444	956.648	38.1606
13.1461	956.682	38.1802
13.148	964.411	38.1997
13.1485	962.307	38.2192
13.1513	953.489	38.23877
13.152	962.864	38.2583
13.154	962.329	38.2778
13.1551	957.263	38.2974
13.1573	961.279	38.3169
13.1588	963.702	38.3364
13.1605	951.672	38.356
13.1622	962.143	38.3755
13.1637	966.325	38.39502
13.16622	957.289	38.4146
13.1677	956.859	38.4341
13.1694	966.176	38.4536
13.1703	956.338	38.4731
13.1722	956.82	38.4927
13.1742	961.948	38.5122
13.1766	960.185	38.5317
13.1777	955.1344	38.55127
13.1785	964.335	38.5708
13.1805	958.188	38.5903
13.1821	956.109	38.6099
13.184	960.461	38.6294
13.1851	965.448	38.6489
13.18642	955.889	38.6685
13.1889	959	38.688
13.1899	962.278	38.70752
13.1918	958.135	38.7271
13.1931	958.626	38.7466
13.1942	963.484	38.7661
13.1966	958.401	38.7856
13.1982	955.487	38.8052
13.1996	963.963	38.8247
13.202	959.483	38.8442
13.2029	954.625	38.86377
13.2052	961.459	38.8833
13.2061	963.794	38.9028
13.2073	952.295	38.9224
13.2089	960.634	38.9419
13.2115	963.398	38.9614
13.2128	954.937	38.981
13.2142	960.201	39.0005
13.216	965.686	39.02002
13.2186	950.529	39.0396
13.2197	957.819	39.0591
13.2205	961.612	39.0786
13.2229	956.907	39.0981
13.2249	955.479	39.1177
13.2257	963.075	39.1372
13.2266	956.353	39.1567
13.229	956.421	39.17627
13.2306	959.909	39.1958
13.2326	960.665	39.2153
13.2339	955.304	39.2349
13.2361	959.745	39.2544
13.23705	958.863	39.2739
13.2392	954.2522	39.2935
13.2405	956.687	39.313
13.2422	963.544	39.33252
13.2443	955.446	39.3521
13.2457	955.94	39.3716
13.2467	960.145	39.3911
13.2483	956.2467	39.4106
13.2506	953.504	39.4302
13.2519	960.803	39.4497
13.2532	956.287	39.4692
13.2549	950.221	39.48877
13.2569	960.143	39.5083
13.257	959.373	39.5278
13.2608	950.863	39.5474
13.2616	957.119	39.5669
13.2627	961.463	39.5864
13.26517	949.164	39.606
13.2654	956.089	39.6255
13.2684	960.4425	39.64502
13.2697	951.889	39.6646
13.2715	953.6192	39.6841
13.2732	960.852	39.7036
13.27388	950.103	39.7231
13.27642	951.714	39.7427
13.2786	957.964	39.7622
13.2798	955.858	39.7817
13.2813	948.35	39.80127
13.2833	956.832	39.8208
13.28499	952.804	39.8403
13.2866	948.684	39.8599
13.2886	952.469	39.8794
13.2895	954.994	39.8989
13.2902	947.018	39.9185
13.2916	951.234	39.938
13.2942	952.526	39.95752
13.2972	945.286	39.9771
13.297	942.039	39.9966
13.2994	949.0285	40.0161
13.29965	945.48	40.0259

Data Header:			0.254_solid_dimension_typei_090_r0			Time:	42.6016	s	4/15/2019 2:19:14 PM
Data Acquisition:	Timed
Station Name:	ft40.cfg
Test File Name:	monotonic_0.2540_typei_solid_090_dimension.tst
Displacement	Force	Running Time
mm	N	s
13.3057	-48.0084	40.0356
13.3075	-3.07164	40.04541
13.3077	-69.2191	40.0552
13.3068	-39.9709	40.0649
13.3075	-45.016	40.0747
13.3068	-36.0204	40.0845
13.3073	-41.9537	40.0942
13.308	-47.7828	40.104
13.3098	-46.6223	40.11377
13.3088	-46.7353	40.1235
13.3093	-40.6676	40.1333
13.3107	-36.1479	40.1431
13.3123	-39.0667	40.1528
13.3129	-46.0426	40.1626
13.3128	-50.5468	40.1724
13.315	-45.5653	40.1821
13.3149	-39.9891	40.1919
13.3159	-39.3672	40.20166
13.3162	-39.5337	40.2114
13.3173	-42.4956	40.2212
13.3188	-46.8954	40.231
13.319	-50.0023	40.2407
13.31919	-42.5613	40.2505
13.32	-36.8021	40.2603
13.3207	-36.571	40.27002
13.3214	-42.3784	40.2798
13.3239	-48.039	40.2896
13.3235	-48.9358	40.2993
13.3245	-43.0447	40.3091
13.3259	-38.4362	40.3188
13.3256	-38.4738	40.3286
13.3268	-38.328	40.3384
13.32827	-44.3542	40.3481
13.3277	-49.9035	40.35791
13.3293	-46.4091	40.3677
13.3294	-42.1596	40.3774
13.3305	-35.5664	40.3872
13.3306	-38.3364	40.397
13.3323	-46.3874	40.4067
13.3335	-45.756	40.4165
13.3341	-46.7759	40.42627
13.3354	-41.1306	40.436
13.3358	-41.0211	40.4458
13.3363	-37.517	40.4556
13.3367	-39.148	40.4653
13.3379	-48.39	40.4751
13.3388	-47.2112	40.4849
13.33922	-46.8345	40.4946
13.3407	-40.1649	40.5044
13.3419	-36.9699	40.51416
13.3428	-42.1	40.5239
13.34262	-43.9699	40.5337
13.3442	-45.4225	40.5435
13.3444	-47.00034	40.5532
13.3455	-42.6358	40.563
13.34702	-40.8475	40.5728
13.3467	-36.1587	40.58252
13.348	-39.0441	40.5923
13.3491	-46.5899	40.6021
13.3486	-48.5506	40.6118
13.3495	-45.39513	40.6216
13.351	-38.0781	40.6313
13.3515	-38.297	40.6411
13.3517	-39.5483	40.6509
13.3535	-44.1114	40.6606
13.3549	-46.7549	40.67041
13.355	-48.69072	40.6802
13.3558	-44.3228	40.6899
13.35719	-37.5731	40.6997
13.3582	-35.8941	40.7095
13.35809	-41.0568	40.7192
13.3587	-48.4392	40.729
13.359	-49.2849	40.73877
13.3613	-43.6797	40.7485
13.3616	-41.0996	40.7583
13.3623	-34.2287	40.7681
13.3635	-40.1654	40.7778
13.36318	-43.7285	40.7876
13.3645	-49.1822	40.7974
13.36562	-49.0922	40.8071
13.3664	-41.1387	40.8169
13.3663	-36.5762	40.82666
13.3678	-35.9371	40.8364
13.3685	-43.546	40.8462
13.3697	-50.4755	40.856
13.3695	-45.5601	40.8657
13.3719	-44.2985	40.8755
13.3719	-37.9452	40.8853
13.3724	-38.05014	40.89502
13.3733	-41.3462	40.9048
13.3747	-44.4737	40.9146
13.3746	-49.4073	40.9243
13.3762	-46.4772	40.9341
13.3762	-36.7667	40.9438
13.3766	-36.0372	40.9536
13.378	-38.9761	40.9634
13.3793	-46.53941	40.9731
13.3799	-47.7012	40.98291
13.3803	-45.4255	40.9927
13.3814	-41.2312	41.0024
13.3824	-38.0116	41.0122
13.3835	-37.7507	41.022
13.3836	-42.6166	41.0317
13.3846	-48.3551	41.0415
13.385	-47.9719	41.05127
13.3854	-43.8277	41.061
13.3871	-37.2489	41.0708
13.3877	-36.2565	41.0806
13.3881	-42.9797	41.0903
13.3895	-46.2491	41.1001
13.3903	-48.0408	41.1099
13.3918	-43.13	41.1196
13.3926	-41.8941	41.1294
13.3936	-40.1735	41.13916
13.3932	-38.0818	41.1489
13.3951	-45.9058	41.1587
13.3954	-47.1361	41.1685
13.3953	-48.1455	41.1782
13.397	-44.8281	41.188
13.3989	-37.7043	41.1978
13.39814	-43.168	41.20752
13.3998	-42.8944	41.2173
13.4001	-45.1944	41.2271
13.4012	-48.0157	41.2368
13.4012	-45.4339	41.2466
13.4037	-44.34	41.2563
13.4041	-37.4943	41.2661
13.4046	-39.1465	41.2759
13.4054	-45.20071	41.2856
13.4053	-47.7401	41.29541
13.4069	-48.1683	41.3052
13.4075	-42.2143	41.3149
13.408	-39.5495	41.3247
13.4094	-38.65757	41.3345
13.4106	-41.4739	41.3442
13.4111	-46.1242	41.354
13.4122	-49.9182	41.36377
13.4122	-48.6036	41.3735
13.413	-41.1964	41.3833
13.4135	-34.232	41.3931
13.4155	-40.8423	41.4028
13.4159	-48.5449	41.4126
13.41787	-48.6113	41.4224
13.4174	-46.2927	41.4321
13.418	-42.3833	41.4419
13.418	-36.2158	41.45166
13.4195	-38.6691	41.4614
13.4198	-42.8477	41.4712
13.4221	-48.5272	41.481
13.422	-50.2347	41.4907
13.4223	-44.3437	41.5005
13.4245	-37.1061	41.5103
13.4251	-35.8725	41.52002
13.4257	-42.266	41.5298
13.4254	-48.4489	41.5396
13.42725	-47.2073	41.5493
13.4281	-45.6364	41.5591
13.42869	-39.2562	41.5688
13.4289	-39.3756	41.5786
13.4305	-41.1136	41.5884
13.4311	-44.4809	41.5981
13.4322	-52.5251	41.60791
13.4319	-46.441	41.6177
13.4336	-41.951	41.6274
13.4339	-38.0679	41.6372
13.4345	-39.3554	41.647
13.4358	-46.0749	41.6567
13.4363	-47.3226	41.6665
13.43696	-46.4216	41.67627
13.4382	-44.136	41.686
13.4399	-39.1741	41.6958
13.4396	-38.5952	41.7056
13.4413	-38.7994	41.7153
13.4418	-46.9144	41.7251
13.4428	-48.1241	41.7349
13.4437	-46.2176	41.7446
13.44466	-41.5353	41.7544
13.4452	-37.61005	41.76416
13.4454	-39.6368	41.7739
13.4466	-44.8699	41.7837
13.4473	-46.1025	41.7935
13.4486	-46.3753	41.8032
13.4486	-44.1991	41.813
13.4489	-39.763	41.8228
13.4509	-36.335	41.83252
13.45196	-43.354	41.8423
13.4525	-45.6612	41.8521
13.4535	-48.4316	41.8618
13.4537	-45.022	41.8716
13.4557	-40.26495	41.8813
13.45542	-41.1266	41.8911
13.4565	-38.6137	41.9009
13.4573	-43.9494	41.9106
13.4589	-46.0229	41.92041
13.4585	-48.2267	41.9302
13.4593	-45.2221	41.9399
13.46	-36.0382	41.9497
13.4625	-38.0712	41.9595
13.4617	-42.46867	41.9692
13.4633	-47.2826	41.979
13.4639	-48.6076	41.98877
13.46355	-43.3565	41.9985
13.4649	-41.5426	42.0083
13.4667	-36.93644	42.0181
13.4671	-38.9279	42.0278
13.4673	-45.3575	42.0376
13.4678	-48.8275	42.0474
13.4695	-51.2671	42.0571
13.4709	-40.3187	42.0669
13.4705	-35.85054	42.07666
13.4718	-37.5118	42.0864
13.4727	-43.7134	42.0962
13.4739	-49.893	42.106
13.4747	-49.12891	42.1157
13.4738	-43.8861	42.1255
13.476	-38.7344	42.1353
13.4764	-38.9861	42.14502
13.4773	-40.8597	42.1548
13.4775	-47.3404	42.1646
13.4795	-50.7691	42.1743
13.48	-44.9034	42.1841
13.4803	-39.1086	42.1938
13.481	-35.5116	42.2036
13.4817	-39.6116	42.2134
13.4837	-46.3987	42.2231
13.4842	-47.5083	42.23291
13.4854	-47.8593	42.2427
13.48597	-41.3015	42.2524
13.486	-39.1603	42.2622
13.4883	-38.8268	42.272
13.4885	-40.0679	42.2817
13.48834	-50.0658	42.2915
13.4898	-46.6904	42.30127
13.4923	-43.3339	42.311
13.4919	-38.96413	42.3208
13.4928	-36.3432	42.3306
13.4922	-45.6803	42.3403
13.4933	-44.853	42.3501
13.4951	-45.237	42.3599
13.4953	-46.2454	42.3696
13.4961	-42.3017	42.3794
13.4978	-40.619	42.38916
13.49824	-38.1259	42.3989
13.4992	-45.2578	42.4087
13.5	-48.0305	42.4185
13.5001	-46.586	42.4282
13.501	-43.1413	42.438
13.501	-37.7861	42.4478
13.50265	-39.2558	42.45752
13.5038	-43.3519	42.4673
13.5037	-44.5126	42.4771
13.5059	-47.766	42.4868
13.5066	-46.8084	42.4966
13.5059	-41.349	42.5063
13.5072	-36.9116	42.5161
13.5077	-39.5441	42.5259
13.5103	-44.2109	42.5356
13.5099	-49.8375	42.54541
13.5109	-46.7954	42.5552
13.5127	-43.8362	42.5649
13.5118	-39.9283	42.5747
13.5138	-38.7505	42.5845
13.5138	-43.4059	42.5942