File: data/processed_data_files/tensile/0.254_hd_uprint_typei_4545_r(3).dat
MTS793|BTW|ENU|1|2|.|/|:|1|0|0|A

Data Header:			0.254_hd_uprint_typei_4545_r0			Time:	20.022	s	4/15/2019 4:08:35 PM
Data Acquisition:	Timed
Station Name:	ft40.cfg
Test File Name:	monotonic_0.2540_typei_hd_4545_uprint.tst
Displacement	Force	Running Time
mm	N	s
13.8169	-156.303	0.0246582
13.8162	-156.516	0.0441895
13.8163	-162.51	0.0637207
13.8183	-153.6629	0.083252
13.8195	-152.841	0.1027832
13.8208	-161.225	0.122314
13.8232	-158.978	0.1418457
13.8232	-148.328	0.161377
13.8251	-156.848	0.1809082
13.828	-156.039	0.200439
13.8284	-149.513	0.2199707
13.8302	-154.762	0.239502
13.8323	-158.365	0.2590332
13.83357	-146.854	0.278564
13.83584	-152.323	0.2980957
13.83682	-157.065	0.317627
13.8383	-147.07	0.3371582
13.8413	-149.026	0.356689
13.8423	-156.503	0.3762207
13.84403	-148.163	0.395752
13.8452	-145.4816	0.4152832
13.847	-153.982	0.434814
13.849	-147.906	0.4543457
13.8508	-146.842	0.473877
13.8509	-151.916	0.4934082
13.85379	-149.47	0.512939
13.8548	-140.751	0.5324707
13.8557	-149.821	0.552002
13.8587	-149.703	0.5715332
13.8608	-144.007	0.591064
13.86085	-143.16	0.6105957
13.8625	-150.984	0.630127
13.8647	-140.511	0.6496582
13.8655	-141.04	0.669189
13.8684	-146.632	0.6887207
13.8701	-144.7692	0.708252
13.8708	-138.229	0.7277832
13.8727	-147.33	0.747314
13.8732	-140.249	0.7668457
13.8761	-133.78	0.786377
13.8778	-143.079	0.8059082
13.8806	-146.433	0.825439
13.8809	-132.073	0.8449707
13.88208	-140.456	0.864502
13.8845	-142.04	0.8840332
13.886	-133.3084	0.903564
13.8871	-136.995	0.9230957
13.89	-144.997	0.942627
13.8902	-133.278	0.9621582
13.8922	-134.87	0.981689
13.89396	-142.766	1.00122
13.896	-132.82	1.020752
13.8971	-131.6	1.04028
13.89987	-139.364	1.05981
13.9001	-135.723	1.07935
13.9015	-127.468	1.098877
13.9039	-136.542	1.11841
13.9047	-132.074	1.13794
13.9061	-129.125	1.15747
13.9083	-132.311	1.177002
13.91093	-135.004	1.19653
13.91269	-124.241	1.21606
13.9129	-126.809	1.2356
13.9148	-133.243	1.255127
13.91679	-129.396	1.27466
13.9185	-124.553	1.29419
13.9202	-133.46	1.31372
13.9213	-124.475	1.333252
13.9228	-120.168	1.35278
13.9247	-129.067	1.37231
13.9264	-126.946	1.39185
13.9274	-117.237	1.411377
13.93	-128.093	1.43091
13.9313	-125.356	1.45044
13.9324	-116.212	1.46997
13.93445	-123.116	1.489502
13.9353	-128.661	1.50903
13.9371	-115.986	1.52856
13.93956	-119.557	1.5481
13.9414	-125.455	1.567627
13.943	-115.433	1.58716
13.9437	-117.001	1.60669
13.9453	-125.706	1.62622
13.9489	-114.295	1.645752
13.9492	-111.003	1.66528
13.9513	-121.253	1.68481
13.9536	-116.673	1.70435
13.955	-111.525	1.723877
13.9562	-117.507	1.74341
13.9572	-115.637	1.76294
13.9589	-107.562	1.78247
13.9611	-113.988	1.802002
13.9625	-114.4718	1.82153
13.964	-110.207	1.84106
13.965	-110.606	1.8606
13.968	-117.724	1.880127
13.9679	-106.513	1.89966
13.97021	-104.441	1.91919
13.9721	-113.36	1.93872
13.9734	-109.831	1.958252
13.9756	-101.73	1.97778
13.9764	-112.207	1.99731
13.9778	-106.492	2.01685
13.9805	-101.5741	2.036377
13.9826	-108.735	2.05591
13.9841	-108.639	2.07544
13.9845	-97.7937	2.09497
13.9875	-104.458	2.114502
13.9889	-107.016	2.13403
13.9898	-96.6633	2.15356
13.9922	-100.719	2.1731
13.992	-108.34	2.192627
13.9944	-96.5552	2.21216
13.9971	-98.4398	2.23169
13.9973	-102.905	2.25122
13.9996	-94.9716	2.270752
14.0018	-93.698	2.29028
14.0029	-102.784	2.30981
14.0042	-94.8246	2.32935
14.0061	-89.3495	2.348877
14.0081	-97.9183	2.36841
14.0099	-98.408	2.38794
14.0118	-91.6314	2.40747
14.0129	-94.143	2.427002
14.0148	-97.5129	2.44653
14.0164	-88.1265	2.46606
14.0172	-90.6491	2.4856
14.0193	-93.1495	2.505127
14.0206	-88.74324	2.52466
14.0222	-84.8595	2.54419
14.0243	-95.3073	2.56372
14.0255	-86.2447	2.583252
14.02731	-82.8588	2.60278
14.0295	-89.3596	2.62231
14.0304	-90.1642	2.64185
14.0328	-78.6533	2.661377
14.034	-88.5582	2.68091
14.0356	-86.3093	2.70044
14.037	-78.7523	2.71997
14.0395	-85.0707	2.739502
14.0411	-88.0889	2.75903
14.0421	-74.5512	2.77856
14.0434	-80.8761	2.7981
14.0453	-84.2299	2.817627
14.0463	-74.4374	2.83716
14.0485	-75.904	2.85669
14.0502	-84.7198	2.87622
14.0522	-76.6528	2.895752
14.0531	-73.4512	2.91528
14.0549	-81.7772	2.93481
14.0579	-74.042	2.95435
14.0585	-70.9125	2.973877
14.0608	-78.4941	2.99341
14.0601	-77.9323	3.01294
14.0624	-67.03421	3.03247
14.0646	-73.805	3.052002
14.0667	-73.5859	3.07153
14.0677	-70.3162	3.09106
14.0695	-67.60141	3.1106
14.0707	-73.6277	3.130127
14.07277	-64.0222	3.14966
14.0749	-65.3381	3.16919
14.0757	-70.6323	3.18872
14.078	-67.2205	3.208252
14.0789	-59.7054	3.22778
14.0807	-70.3873	3.24731
14.0829	-65.236	3.26685
14.08516	-58.5364	3.286377
14.0863	-65.6413	3.30591
14.087	-67.6646	3.32544
14.0898	-55.197	3.34497
14.0906	-63.9688	3.364502
14.0916	-62.561	3.38403
14.0938	-53.8926	3.40356
14.0959	-58.5807	3.4231
14.0976	-65.7464	3.442627
14.0999	-52.2813	3.46216
14.1009	-52.2306	3.48169
14.1015	-62.3079	3.50122
14.1032	-51.9358	3.520752
14.1055	-52.3136	3.54028
14.1064	-59.1679	3.55981
14.1085	-54.2358	3.57935
14.1113	-47.8683	3.598877
14.1125	-56.5214	3.61841
14.1132	-51.1824	3.63794
14.1156	-46.9998	3.65747
14.1165	-48.8835	3.677002
14.1189	-53.672	3.69653
14.1197	-43.1741	3.71606
14.1223	-44.4065	3.7356
14.1227	-51.0922	3.755127
14.1252	-45.2793	3.77466
14.1252	-39.9007	3.79419
14.1277	-49.5298	3.81372
14.1294	-38.6218	3.833252
14.13275	-39.8163	3.85278
14.1335	-45.55534	3.87231
14.1351	-43.649	3.89185
14.1366	-32.9573	3.911377
14.1385	-43.4472	3.93091
14.1397	-42.1467	3.95044
14.14047	-32.2853	3.96997
14.1433	-37.8631	3.989502
14.1447	-43.7237	4.00903
14.14615	-33.036	4.02856
14.1471	-35.7059	4.0481
14.149	-38.8795	4.067627
14.15133	-29.8837	4.08716
14.152	-30.3483	4.10669
14.15381	-39.2411	4.12622
14.1555	-29.8627	4.145752
14.15835	-26.473	4.16528
14.1587	-35.7645	4.18481
14.1607	-30.1369	4.20435
14.1625	-26.5989	4.223877
14.1641	-31.2628	4.24341
14.1649	-29.1149	4.26294
14.1674	-22.6121	4.28247
14.1685	-28.8317	4.302002
14.1702	-27.6982	4.32153
14.1728	-21.9521	4.34106
14.1734	-21.1354	4.3606
14.1758	-29.6471	4.380127
14.1775	-18.4844	4.39966
14.1782	-17.8696	4.41919
14.1809	-23.6454	4.43872
14.1822	-22.4828	4.458252
14.18235	-12.7283	4.47778
14.1861	-23.94417	4.49731
14.1862	-17.3258	4.51685
14.1886	-11.9702	4.536377
14.1901	-19.2206	4.55591
14.1912	-22.0251	4.57544
14.194	-7.28301	4.59497
14.195	-15.8814	4.614502
14.19658	-16.6519	4.63403
14.1984	-6.3	4.65356
14.2	-10.3864	4.6731
14.2018	-17.8611	4.692627
14.2033	-7.40843	4.71216
14.2042	-7.61062	4.73169
14.2061	-15.1198	4.75122
14.2081	-5.19538	4.770752
14.2093	-4.35725	4.79028
14.2111	-12.7723	4.80981
14.2131	-6.57067	4.82935
14.2155	1.03436	4.848877
14.2166	-8.219	4.86841
14.218	-5.28101	4.88794
14.2191	-1.3511	4.90747
14.2206	-3.02217	4.927002
14.2223	-4.31286	4.94653
14.2242	6.61553	4.96606
14.2254	0.995164	4.9856
14.22749	-2.53502	5.005127
14.2285	2.43969	5.02466
14.2317	8.111	5.04419
14.2322	-4.14246	5.06372
14.2347	4.55922	5.083252
14.236	9.35681	5.10278
14.2373	2.74502	5.12231
14.2388	2.85034	5.14185
14.2394	14.1402	5.161377
14.2423	3.25619	5.18091
14.2438	6.95135	5.20044
14.2452	15.3879	5.21997
14.2467	8.50515	5.239502
14.2494	3.75533	5.25903
14.2498	18.5109	5.27856
14.2519	12.7489	5.2981
14.2542	6.75312	5.317627
14.2549	18.6348	5.33716
14.2564	16.2082	5.35669
14.2588	9.03395	5.37622
14.2604	18.7036	5.395752
14.2618	22.5349	5.41528
14.2638	12.92205	5.43481
14.2648	20.3454	5.45435
14.2665	23.037	5.473877
14.2683	16.0542	5.49341
14.2699	16.7306	5.51294
14.2713	28.3491	5.53247
14.2725	21.7667	5.552002
14.2756	21.065	5.57153
14.2759	26.0284	5.59106
14.2786	27.6383	5.6106
14.2793	21.17271	5.630127
14.2818	33.0603	5.64966
14.2822	29.4957	5.66919
14.2846	24.50174	5.68872
14.2861	28.1517	5.708252
14.2886	36.87822	5.72778
14.2898	25.7363	5.74731
14.2895	32.3752	5.76685
14.292	37.9486	5.786377
14.2949	31.8062	5.80591
14.2956	27.76	5.82544
14.2967	41.7469	5.84497
14.2995	33.5857	5.864502
14.3017	32.8218	5.88403
14.30189	42.94	5.90356
14.304	38.8945	5.9231
14.3048	33.03923	5.942627
14.3066	43.5937	5.96216
14.3087	42.0411	5.98169
14.3104	37.0435	6.00122
14.3129	44.0233	6.020752
14.3135	45.15379	6.04028
14.3155	38.5998	6.05981
14.31727	45.6929	6.07935
14.32	51.02029	6.098877
14.3197	39.9346	6.11841
14.3219	45.169	6.13794
14.3229	51.1257	6.15747
14.3253	47.4183	6.177002
14.3274	43.2712	6.19653
14.3281	55.6087	6.21606
14.3301	52.243	6.2356
14.3309	47.1063	6.255127
14.333	52.9491	6.27466
14.3345	55.4863	6.29419
14.3368	48.3259	6.31372
14.3386	58.4618	6.333252
14.3401	60.7653	6.35278
14.3404	51.199	6.37231
14.34285	51.2529	6.39185
14.3449	66.0353	6.411377
14.3464	56.40126	6.43091
14.3462	56.7632	6.45044
14.3505	64.4709	6.46997
14.351	61.0135	6.489502
14.3523	56.755	6.50903
14.3546	69.1454	6.52856
14.3556	62.9038	6.5481
14.3575	59.14901	6.567627
14.359	70.1662	6.58716
14.3614	69.811	6.60669
14.36191	57.8255	6.62622
14.3642	70.1766	6.645752
14.3665	74.0933	6.66528
14.3682	65.0912	6.68481
14.3692	69.9768	6.70435
14.3698	73.8376	6.723877
14.3718	68.12574	6.74341
14.3734	70.779	6.76294
14.3751	79.08287	6.78247
14.377	70.6678	6.802002
14.3789	71.0078	6.82153
14.3798	78.8348	6.84106
14.3827	80.5659	6.8606
14.3838	70.3213	6.880127
14.38601	81.5009	6.89966
14.3867	80.9404	6.91919
14.3886	74.9861	6.93872
14.3908	79.70755	6.958252
14.3921	86.3844	6.97778
14.39321	75.4855	6.99731
14.3957	82.84465	7.01685
14.3965	89.2535	7.036377
14.3981	81.5091	7.05591
14.4008	78.8623	7.07544
14.4018	94.1112	7.09497
14.4025	86.43837	7.114502
14.4052	83.4281	7.13403
14.4061	93.0281	7.15356
14.408	90.1386	7.1731
14.4103	82.914	7.192627
14.4109	95.81308	7.21216
14.4128	94.1082	7.23169
14.4143	85.8405	7.25122
14.416	96.32856	7.270752
14.4176	97.0081	7.29028
14.4202	89.4248	7.30981
14.421	94.0512	7.32935
14.4224	103.667	7.348877
14.4243	93.0614	7.36841
14.426	97.6099	7.38794
14.427	101.584	7.40747
14.4293	98.5975	7.427002
14.4307	95.8278	7.44653
14.4317	109.994	7.46606
14.4335	101.558	7.4856
14.4368	97.5722	7.505127
14.4371	104.675	7.52466
14.4393	109.534	7.54419
14.4411	98.785	7.56372
14.4422	107.415	7.583252
14.4445	113.751	7.60278
14.4455	105.133	7.62231
14.44804	106.329	7.64185
14.4483	116.818	7.661377
14.4512	104.971	7.68091
14.45166	110.838	7.70044
14.4536	119.585	7.71997
14.4564	112.616	7.739502
14.4572	106.179	7.75903
14.4584	121.371	7.77856
14.4607	117.987	7.7981
14.4618	112.3754	7.817627
14.4638	121.198	7.83716
14.4649	118.685	7.85669
14.4666	112.616	7.87622
14.4678	122.87	7.895752
14.4701	127.431	7.91528
14.47006	115.932	7.93481
14.4726	122.744	7.95435
14.4742	127.2382	7.973877
14.4763	120.413	7.99341
14.4781	121.764	8.01294
14.4799	130.629	8.03247
14.4818	126.053	8.052002
14.4835	125.98	8.07153
14.4847	129.592	8.09106
14.48598	129.6808	8.1106
14.488	124.1695	8.130127
14.4907	136.237	8.14966
14.49137	134.131	8.16919
14.49323	126.735	8.18872
14.4936	129.376	8.208252
14.49583	138.846	8.22778
14.4978	128.419	8.24731
14.4994	134.236	8.26685
14.5013	140.245	8.286377
14.5033	133.2272	8.30591
14.5048	131.731	8.32544
14.5049	146.959	8.34497
14.5071	137.373	8.364502
14.5087	135.794	8.38403
14.511	146.586	8.40356
14.5119	143.433	8.4231
14.5143	133.781	8.442627
14.516	147.276	8.46216
14.51718	147.324	8.48169
14.5183	138.878	8.50122
14.5203	147.442	8.520752
14.5225	148.688	8.54028
14.52318	140.6136	8.55981
14.5258	148.846	8.57935
14.5286	153.7327	8.598877
14.5287	144.956	8.61841
14.5301	148.118	8.63794
14.5315	154.12	8.65747
14.5334	150.694	8.677002
14.5358	147.2639	8.69653
14.5372	158.518	8.71606
14.5386	155.944	8.7356
14.5409	153.279	8.755127
14.5412	156.279	8.77466
14.5431	159.7309	8.79419
14.5443	150.225	8.81372
14.546	161.119	8.833252
14.5474	166.0506	8.85278
14.5498	155.716	8.87231
14.5518	156.916	8.89185
14.5535	169.017	8.911377
14.555	159.774	8.93091
14.5555	162.27	8.95044
14.5578	167.6154	8.96997
14.5592	162.871	8.989502
14.5614	159.202	9.00903
14.5629	172.66	9.02856
14.5641	167.126	9.0481
14.5667	162.525	9.067627
14.568	174.75	9.08716
14.5684	171.949	9.10669
14.5706	163.394	9.12622
14.5729	171.96	9.145752
14.5741	175.9556	9.16528
14.57591	167.599	9.18481
14.57788	174.08	9.20435
14.5792	178.639	9.223877
14.5803	169.345	9.24341
14.5821	171.952	9.26294
14.5843	182.352	9.28247
14.5853	177.029	9.302002
14.587	174.844	9.32153
14.5898	181.842	9.34106
14.5907	183.955	9.3606
14.5923	176.61	9.380127
14.5936	186.411	9.39966
14.5955	185.824	9.41919
14.5964	179.014	9.43872
14.5993	183.642	9.458252
14.6007	192.463	9.47778
14.601	179.233	9.49731
14.60326	186.455	9.51685
14.6038	194.571	9.536377
14.6058	185.063	9.55591
14.6085	181.305	9.57544
14.6096	197.195	9.59497
14.6116	191.141	9.614502
14.6133	188.693	9.63403
14.6151	197.282	9.65356
14.6167	192.361	9.6731
14.6175	186.309	9.692627
14.6187	199.029	9.71216
14.6214	200.011	9.73169
14.6236	190.39	9.75122
14.6248	200.278	9.770752
14.6267	200.3	9.79028
14.62802	193.854	9.80981
14.6294	198.938	9.82935
14.6312	206.063	9.848877
14.6318	198.435	9.86841
14.6341	201.385	9.88794
14.6366	207.416	9.90747
14.6374	202.691	9.927002
14.6387	198.959	9.94653
14.6402	210.9136	9.96606
14.644	208.245	9.9856
14.6444	202.579	10.0051
14.6459	209.612	10.0247
14.648	212.661	10.0442
14.6487	203.539	10.0637
14.65	214.384	10.0833
14.65214	215.229	10.1028
14.6529	206.944	10.1223
14.6553	208.527	10.1418
14.6573	221.052	10.1614
14.6581	209.967	10.1809
14.6604	212.086	10.2004
14.6621	223.056	10.22
14.664	216.749	10.2395
14.6645	210.159	10.259
14.6668	223.6264	10.2786
14.6683	219.311	10.2981
14.6707	214.469	10.3176
14.6712	224.494	10.3372
14.6736	223.731	10.3567
14.6745	214.055	10.3762
14.6763	226.723	10.3958
14.67802	228.204	10.4153
14.6798	219.689	10.4348
14.6821	226.358	10.4543
14.6827	230.706	10.4739
14.685	223.988	10.4934
14.687	225.35	10.5129
14.6874	235.443	10.5325
14.68971	227.092	10.552
14.6912	227.61	10.5715
14.6929	234.5748	10.5911
14.6952	233.969	10.6106
14.6962	226.31	10.6301
14.6972	238.688	10.6497
14.6993	240.778	10.6692
14.7003	230.899	10.6887
14.7033	234.817	10.7083
14.7048	242.802	10.7278
14.70712	232.279	10.7473
14.7077	239.868	10.7668
14.71	244.4977	10.7864
14.71077	235.082	10.8059
14.7131	236.152	10.8254
14.714	250.298	10.845
14.7157	242.016	10.8645
14.7176	239.126	10.884
14.7189	250.938	10.9036
14.721	246.457	10.9231
14.7229	236.941	10.9426
14.72451	249.814	10.9622
14.7254	250.379	10.9817
14.7273	240.75	11.0012
14.7277	253.566	11.0208
14.73	254.17	11.0403
14.7316	243.741	11.0598
14.7332	250.489	11.0793
14.7355	258.681	11.0989
14.7369	250.879	11.1184
14.7389	251.821	11.1379
14.7397	259.3548	11.1575
14.7418	256.082	11.177
14.7431	251.774	11.1965
14.7448	262.602	11.2161
14.7469	258.965	11.2356
14.7481	255.562	11.2551
14.7496	262.413	11.2747
14.7524	264.938	11.2942
14.7534	253.246	11.3137
14.7546	263.912	11.3333
14.7561	268.519	11.3528
14.7581	260.752	11.3723
14.7596	260.715	11.3918
14.76037	272.54	11.4114
14.763	261.275	11.4309
14.7643	265.603	11.4504
14.7666	274.204	11.47
14.7688	266.8291	11.4895
14.7705	262.948	11.509
14.7709	276.255	11.5286
14.7726	273.1391	11.5481
14.7754	265.174	11.5676
14.776	276.912	11.5872
14.7782	275.961	11.6067
14.7792	265.901	11.6262
14.7808	276.626	11.6458
14.78219	280.427	11.6653
14.7837	269.627	11.6848
14.7858	278.784	11.7043
14.7874	281.669	11.7239
14.7882	273.537	11.7434
14.7908	276.555	11.7629
14.7912	288.7341	11.7825
14.7942	280.394	11.802
14.79506	278.795	11.8215
14.7967	284.122	11.8411
14.7994	286.728	11.8606
14.7999	279.19	11.8801
14.8015	290.0332	11.8997
14.8034	289.843	11.9192
14.8052	281.7251	11.9387
14.8063	286.293	11.9583
14.8081	296.245	11.9778
14.8109	282.336	11.9973
14.8125	290.16	12.0168
14.8133	298.201	12.0364
14.8145	289.316	12.0559
14.8162	287.347	12.0754
14.8184	300.515	12.095
14.8194	292.792	12.1145
14.8212	290.296	12.134
14.8225	301.526	12.1536
14.8252	294.93	12.1731
14.827	290.014	12.1926
14.8277	303.404	12.2122
14.8303	302.438	12.2317
14.83153	291.7038	12.2512
14.8338	301.205	12.2708
14.8342	306.17	12.2903
14.8363	297.547	12.3098
14.8375	302.1857	12.3293
14.8392	308.2	12.3489
14.84089	299.816	12.3684
14.8426	304.982	12.3879
14.8451	309.685	12.4075
14.8458	305.152	12.427
14.8472	302.443	12.4465
14.8481	315.952	12.4661
14.8507	310.846	12.4856
14.8527	305.02	12.5051
14.8539	310.49	12.5247
14.8553	316.653	12.5442
14.8574	305.603	12.5637
14.8583	316.3606	12.5833
14.8609	319.376	12.6028
14.8626	309.447	12.6223
14.8637	311.283	12.6418
14.8658	325.29	12.6614
14.8664	312.815	12.6809
14.86788	314.121	12.7004
14.8711	325.962	12.72
14.8716	317.168	12.7395
14.8725	312.1853	12.759
14.8749	325.859	12.7786
14.8768	322.389	12.7981
14.8784	315.421	12.8176
14.8805	329.742	12.8372
14.88113	324.829	12.8567
14.883	315.808	12.8762
14.885	329.245	12.8958
14.8869	333.4252	12.9153
14.8888	321.564	12.9348
14.89033	327.282	12.9543
14.8909	329.741	12.9739
14.8931	326.19	12.9934
14.8945	327.101	13.0129
14.8964	337.737	13.0325
14.898	328.558	13.052
14.89935	329.873	13.0715
14.9024	335.881	13.0911
14.90368	337.205	13.1106
14.9041	327.602	13.1301
14.9064	340.635	13.1497
14.9091	341.666	13.1692
14.9085	332.765	13.1887
14.9116	335.504	13.2083
14.9123	344.8	13.2278
14.91507	332.537	13.2473
14.916	341.435	13.2668
14.9177	347.1131	13.2864
14.9189	337.493	13.3059
14.92154	336.3533	13.3254
14.9215	351.766	13.345
14.9238	342.793	13.3645
14.9264	339.115	13.384
14.9278	350.36	13.4036
14.9283	346.84	13.4231
14.9307	340.463	13.4426
14.9322	351.0249	13.4622
14.9341	350.081	13.4817
14.9356	341.577	13.5012
14.9372	353.1951	13.5208
14.93911	353.95	13.5403
14.9402	344.611	13.5598
14.9417	350.609	13.5793
14.9439	360.482	13.5989
14.9457	349.308	13.6184
14.947	351.849	13.6379
14.9483	357.458	13.6575
14.9494	356.274	13.677
14.9518	352.085	13.6965
14.95282	363.8692	13.7161
14.9558	358.454	13.7356
14.9565	354.487	13.7551
14.9582	362.639	13.7747
14.96084	366.713	13.7942
14.9616	354.235	13.8137
14.9622	363.733	13.8333
14.9642	368.294	13.8528
14.9662	359.093	13.8723
14.9671	362.008	13.8918
14.9695	373.753	13.9114
14.9711	360.966	13.9309
14.9735	363.015	13.9504
14.9757	375.393	13.97
14.9765	366.929	13.9895
14.97663	362.031	14.009
14.9799	377.448	14.0286
14.9822	372.115	14.0481
14.9813	364.62	14.0676
14.9846	376.388	14.0872
14.9855	375.809	14.1067
14.9874	367.516	14.1262
14.9895	375.965	14.1458
14.9911	378.638	14.1653
14.992	369.33	14.1848
14.9953	378.456	14.2043
14.99635	382.117	14.2239
14.9963	373.8754	14.2434
14.9985	376.292	14.2629
15.0011	387.965	14.2825
15.0025	381.462	14.302
15.0037	376.327	14.3215
15.0061	385.199	14.3411
15.0069	385.454	14.3606
15.009	378.953	14.3801
15.0095	390.355	14.3997
15.01196	386.937	14.4192
15.0132	380.317	14.4387
15.0152	386.752	14.4583
15.0171	396.776	14.4778
15.0178	381.1492	14.4973
15.018	389.2587	14.5168
15.0223	397.076	14.5364
15.0233	388.5217	14.5559
15.0256	386.773	14.5754
15.0266	400.084	14.595
15.0278	391.594	14.6145
15.0299	388.598	14.634
15.0312	401.992	14.6536
15.0328	394.855	14.6731
15.0352	386.502	14.6926
15.0366	401.7449	14.7122
15.0373	400.89	14.7317
15.0394	391.295	14.7512
15.041	400.63	14.7708
15.0429	401.287	14.7903
15.0448	395.395	14.8098
15.0462	400.3913	14.8293
15.0466	408.179	14.8489
15.04928	397.902	14.8684
15.0519	401.614	14.8879
15.0513	407.905	14.9075
15.0539	403.7655	14.927
15.0551	397.767	14.9465
15.0572	413.894	14.9661
15.0592	409.975	14.9856
15.0605	404.147	15.0051
15.0623	410.757	15.0247
15.0656	414.182	15.0442
15.0654	404.532	15.0637
15.0671	413.073	15.0833
15.0687	417.85	15.1028
15.0707	405.829	15.1223
15.0724	410.768	15.1418
15.0745	422.377	15.1614
15.076	409.491	15.1809
15.076	411.609	15.2004
15.0785	423.422	15.22
15.0799	415.455	15.2395
15.0823	410.997	15.259
15.0838	425.097	15.2786
15.0863	421.199	15.2981
15.0861	414.262	15.3176
15.0881	426.555	15.3372
15.09	423.077	15.3567
15.09153	414.735	15.3762
15.0931	425.288	15.3958
15.09449	430.633	15.4153
15.0964	420.334	15.4348
15.0974	425.846	15.4543
15.0999	428.4303	15.4739
15.1019	423.8801	15.4934
15.1028	424.9566	15.5129
15.1054	434.8959	15.5325
15.1056	428.195	15.552
15.1079	425.027	15.5715
15.1081	434.052	15.5911
15.11219	432.735	15.6106
15.1132	425.69	15.6301
15.1153	437.705	15.6497
15.1159	437.23	15.6692
15.1182	429.265	15.6887
15.1202	434.044	15.7083
15.1207	441.872	15.7278
15.1225	430.808	15.7473
15.1227	437.31	15.7668
15.12528	445.578	15.7864
15.12813	432.96	15.8059
15.129	432.178	15.8254
15.1305	449.191	15.845
15.1322	440.032	15.8645
15.134	435.623	15.884
15.136	448.414	15.9036
15.1377	442.295	15.9231
15.1385	436.791	15.9426
15.1402	449.217	15.9622
15.1422	448.068	15.9817
15.1443	438.8454	16.0012
15.1448	448.581	16.0208
15.1463	452.571	16.0403
15.1489	442.639	16.0598
15.1508	447.3194	16.0793
15.1527	457.184	16.0989
15.153	447.041	16.1184
15.1556	450.441	16.1379
15.1567	456.036	16.1575
15.1579	452.471	16.177
15.1605	448.184	16.1965
15.16135	462.56	16.2161
15.1628	455.524	16.2356
15.165	448.866	16.2551
15.1661	455.99	16.2747
15.168	461.942	16.2942
15.1698	449.897	16.3137
15.1713	460.996	16.3333
15.17327	464.957	16.3528
15.174	454.639	16.3723
15.1746	457.878	16.3918
15.1775	469.893	16.4114
15.1791	458.047	16.4309
15.1816	459.669	16.4504
15.1824	470.794	16.47
15.1844	462.431	16.4895
15.1854	457.3653	16.509
15.1868	471.422	16.5286
15.1886	467.846	16.5481
15.1905	460.666	16.5676
15.1931	472.854	16.5872
15.1935	468.693	16.6067
15.1949	461.856	16.6262
15.1971	473.831	16.6458
15.1984	475.085	16.6653
15.2014	464.632	16.6848
15.202	471.28	16.7043
15.204	477.682	16.7239
15.2041	471.825	16.7434
15.2068	470.439	16.7629
15.2095	481.436	16.7825
15.2106	474.174	16.802
15.21193	473.001	16.8215
15.2137	479.0076	16.8411
15.2151	480.928	16.8606
15.21701	471.577	16.8801
15.2175	485.4733	16.8997
15.2189	482.449	16.9192
15.2221	474.245	16.9387
15.223	480.749	16.9583
15.2247	490.953	16.9778
15.2267	477.833	16.9973
15.2276	483.514	17.0168
15.231	491.163	17.0364
15.2315	481.666	17.0559
15.2339	479.981	17.0754
15.235	496.2226	17.095
15.2361	485.922	17.1145
15.2388	484.051	17.134
15.2397	495.7645	17.1536
15.241	489.673	17.1731
15.2429	481.972	17.1926
15.24454	494.816	17.2122
15.2464	495.756	17.2317
15.2481	485.779	17.2512
15.2495	495.534	17.2708
15.2512	494.47	17.2903
15.2524	487.727	17.3098
15.2545	495.004	17.3293
15.2564	503.039	17.3489
15.2582	492.432	17.3684
15.2595	494.219	17.3879
15.2615	501.857	17.4075
15.2619	499.8	17.427
15.2644	493.536	17.4465
15.2657	506.077	17.4661
15.2683	501.742	17.4856
15.2695	495.68	17.5051
15.2707	503.962	17.5247
15.2714	507.192	17.5442
15.27362	495.745	17.5637
15.2762	508.416	17.5833
15.277	512.157	17.6028
15.2793	499.987	17.6223
15.28076	502.065	17.6418
15.2824	516.23	17.6614
15.2846	504.655	17.6809
15.2851	505.078	17.7004
15.28679	516.215	17.72
15.2878	506.2641	17.7395
15.2895	503.876	17.759
15.2909	517.903	17.7786
15.2926	512.39	17.7981
15.2956	504.898	17.8176
15.297	518.667	17.8372
15.2981	516.856	17.8567
15.2993	508.563	17.8762
15.3014	516.981	17.8958
15.3038	522.373	17.9153
15.3052	510.854	17.9348
15.3066	519.323	17.9543
15.3082	521.973	17.9739
15.3099	514.675	17.9934
15.3108	515.006	18.0129
15.3135	528.529	18.0325
15.315	518.069	18.052
15.316	515.0672	18.0715
15.31809	525.335	18.0911
15.3192	526.7312	18.1106
15.3215	517.077	18.1301
15.3227	529.03	18.1497
15.3249	528.562	18.1692
15.3259	520.079	18.1887
15.3283	527.25	18.2083
15.3298	534.2182	18.2278
15.3315	520.185	18.2473
15.33173	528.765	18.2668
15.3348	538.026	18.2864
15.3355	526.069	18.3059
15.3374	524.737	18.3254
15.3378	539.46	18.345
15.34046	530.681	18.3645
15.34217	528.532	18.384
15.343	537.886	18.4036
15.3461	534.87	18.4231
15.3471	525.97	18.4426
15.3494	541.263	18.4622
15.3506	540.2998	18.4817
15.3523	529.011	18.5012
15.3538	540.021	18.5208
15.35625	541.235	18.5403
15.3571	533.191	18.5598
15.3589	538.113	18.5793
15.3608	547.234	18.5989
15.3613	536.713	18.6184
15.3638	540.8479	18.6379
15.3641	545.961	18.6575
15.3674	541.312	18.677
15.3677	537.801	18.6965
15.3693	551.309	18.7161
15.3714	546.687	18.7356
15.3737	539.628	18.7551
15.37529	546.6554	18.7747
15.3759	551.583	18.7942
15.3777	540.359	18.8137
15.3797	551.53	18.8333
15.38292	552.501	18.8528
15.3836	544.308	18.8723
15.3838	547.6123	18.8918
15.3864	559.66	18.9114
15.3875	545.493	18.9309
15.389	549.914	18.9504
15.391	561.704	18.97
15.3929	553.193	18.9895
15.3938	546.794	19.009
15.3953	560.585	19.0286
15.3972	557.326	19.0481
15.3988	550.092	19.0676
15.4006	561.904	19.0872
15.4026	558.703	19.1067
15.4045	550.3526	19.1262
15.4044	562.166	19.1458
15.4076	566.553	19.1653
15.4093	552.706	19.1848
15.4107	560.96	19.2043
15.4119	564.8338	19.2239
15.4146	559.334	19.2434
15.4148	557.485	19.2629
15.41663	570.352	19.2825
15.4185	561.7998	19.302
15.42	561.648	19.3215
15.4212	568.7403	19.3411
15.4239	567.862	19.3606
15.4242	559.413	19.3801
15.4274	573.174	19.3997
15.4277	573.731	19.4192
15.4293	562.593	19.4387
15.4313	568.465	19.4583
15.4335	576.114	19.4778
15.4353	564.29	19.4973
15.4361	572.3847	19.5168
15.4395	578.724	19.5364
15.4393	567.36	19.5559
15.4409	567.124	19.5754
15.4432	583.753	19.595
15.4442	572.479	19.6145
15.4462	568.8988	19.634
15.4473	583.264	19.6536
15.4497	577.122	19.6731
15.452	568.7265	19.6926
15.45338	580.338	19.7122
15.4544	580.802	19.7317
15.4559	573.343	19.7512
15.4569	583.51	19.7708
15.4584	584.621	19.7903
15.4609	574.363	19.8098
15.4631	582.11	19.8293
15.4639	589.674	19.8489
15.467	579.474	19.8684
15.4669	581.289	19.8879
15.4684	589.059	19.9075
15.4707	585.029	19.927
15.4723	581.445	19.9465
15.4739	592.86	19.9661
15.476	586.867	19.9856
15.4769	582.38	20.0051
15.4774	587.551	20.0149

Data Header:			0.254_hd_uprint_typei_4545_r0			Time:	40.0203	s	4/15/2019 4:08:55 PM
Data Acquisition:	Timed
Station Name:	ft40.cfg
Test File Name:	monotonic_0.2540_typei_hd_4545_uprint.tst
Displacement	Force	Running Time
mm	N	s
15.4783	590.241	20.0247
15.4805	594.713	20.0442
15.4822	581.474	20.0637
15.4831	592.6828	20.0833
15.4853	598.212	20.1028
15.487	586.522	20.1223
15.4885	587.046	20.1418
15.4907	599.999	20.1614
15.4914	589.286	20.1809
15.493	591.844	20.2004
15.4955	603.537	20.22
15.4965	593.164	20.2395
15.49774	589.422	20.259
15.5006	603.9361	20.2786
15.5019	598.277	20.2981
15.503	589.449	20.3176
15.5039	603.709	20.3372
15.5059	602.934	20.3567
15.5085	592.362	20.3762
15.5091	602.298	20.3958
15.5113	606.411	20.4153
15.5132	595.7251	20.4348
15.5158	604.615	20.4543
15.5171	606.303	20.4739
15.5179	599.931	20.4934
15.5198	600.2818	20.5129
15.5214	613.902	20.5325
15.523	605.24	20.552
15.5241	601.599	20.5715
15.5261	609.3717	20.5911
15.5277	609.5874	20.6106
15.529	602.155	20.6301
15.5302	615.129	20.6497
15.5336	613.1546	20.6692
15.5331	603.343	20.6887
15.5355	609.885	20.7083
15.5375	617.935	20.7278
15.5392	604.559	20.7473
15.5413	612.101	20.7668
15.5423	619.772	20.7864
15.5437	610.284	20.8059
15.545	608.216	20.8254
15.547	621.394	20.845
15.5482	613.713	20.8645
15.5516	610.353	20.884
15.5521	623.728	20.9036
15.5531	615.43	20.9231
15.5559	610.516	20.9426
15.5573	624.101	20.9622
15.5584	623.944	20.9817
15.5607	612.24	21.0012
15.56198	623.112	21.0208
15.56408	625.646	21.0403
15.5647	616.832	21.0598
15.5672	621.19	21.0793
15.5689	629.483	21.0989
15.5697	619.3927	21.1184
15.5715	623.627	21.1379
15.57311	629.088	21.1575
15.5752	624.648	21.177
15.5762	619.2536	21.1965
15.5785	633.227	21.2161
15.58	629.131	21.2356
15.5806	623.036	21.2551
15.5824	629.707	21.2747
15.5839	633.725	21.2942
15.5865	623.243	21.3137
15.5881	633.447	21.3333
15.5896	635.99	21.3528
15.5911	625.467	21.3723
15.5929	627.875	21.3918
15.5935	640.898	21.4114
15.5962	629.81	21.4309
15.5975	630.059	21.4504
15.59935	642.063	21.47
15.601	632.15	21.4895
15.6027	628.618	21.509
15.6039	642.736	21.5286
15.60631	637.3432	21.5481
15.6081	631.428	21.5676
15.608	643.641	21.5872
15.61	640.92	21.6067
15.6115	630.649	21.6262
15.6142	641.223	21.6458
15.616	648.041	21.6653
15.61694	635.577	21.6848
15.6195	642.326	21.7043
15.6198	647.432	21.7239
15.6227	639.411	21.7434
15.62407	640.754	21.7629
15.6258	649.382	21.7825
15.627	641.85	21.802
15.6286	641.717	21.8215
15.6296	650.2	21.8411
15.6313	649.706	21.8606
15.6332	639.04	21.8801
15.6349	652.38	21.8997
15.637	652.429	21.9192
15.6382	643.933	21.9387
15.6403	648.13	21.9583
15.6414	657.659	21.9778
15.6429	643.11	21.9973
15.6449	653.034	22.0168
15.6468	658.025	22.0364
15.6484	647.831	22.0559
15.6496	645.324	22.0754
15.6515	663.487	22.095
15.6528	651.47	22.1145
15.65484	650.054	22.134
15.6568	660.094	22.1536
15.6579	656.647	22.1731
15.6587	650.029	22.1926
15.6617	663.76	22.2122
15.6619	661.348	22.2317
15.6648	650.594	22.2512
15.6659	661.868	22.2708
15.6679	662.726	22.2903
15.6691	653.139	22.3098
15.6708	660.491	22.3293
15.6731	668.2702	22.3489
15.6746	657.163	22.3684
15.6756	659.882	22.3879
15.6774	665.462	22.4075
15.6784	664.106	22.427
15.6803	658.807	22.4465
15.6834	672.73	22.4661
15.6833	665.034	22.4856
15.6855	660.875	22.5051
15.6868	668.583	22.5247
15.6891	672.483	22.5442
15.6908	659.952	22.5637
15.6917	668.779	22.5833
15.69425	674.7149	22.6028
15.6946	663.67	22.6223
15.6972	665.399	22.6418
15.6996	678.282	22.6614
15.7008	667.913	22.6809
15.7012	669.319	22.7004
15.7037	679.521	22.72
15.705	671.24	22.7395
15.7063	664.751	22.759
15.7089	680.262	22.7786
15.7103	675.884	22.7981
15.7107	668.027	22.8176
15.7135	680.495	22.8372
15.7153	679.752	22.8567
15.7156	668.302	22.8762
15.7177	679.403	22.8958
15.7196	683.182	22.9153
15.7218	671.181	22.9348
15.723	680.113	22.9543
15.7243	684.399	22.9739
15.7262	675.515	22.9934
15.727	676.279	23.0129
15.7297	688.786	23.0325
15.7316	679.7323	23.052
15.7328	678.779	23.0715
15.73503	685.41	23.0911
15.7362	685.706	23.1106
15.7388	676.491	23.1301
15.7402	689.457	23.1497
15.7411	688.409	23.1692
15.742	679.076	23.1887
15.7427	684.535	23.2083
15.7459	695.253	23.2278
15.7471	679.648	23.2473
15.7491	686.644	23.2668
15.751	694.089	23.2864
15.7514	686.174	23.3059
15.7535	684.7	23.3254
15.75574	698.404	23.345
15.757	687.902	23.3645
15.7575	686.451	23.384
15.7591	700.193	23.4036
15.7613	693.013	23.4231
15.7636	682.231	23.4426
15.7646	698.849	23.4622
15.7669	697.436	23.4817
15.7681	687.364	23.5012
15.7706	697.538	23.5208
15.7718	699.573	23.5403
15.7738	690.608	23.5598
15.7745	696.436	23.5793
15.776	703.779	23.5989
15.7783	692.384	23.6184
15.7793	695.419	23.6379
15.7813	704.857	23.6575
15.7836	699.082	23.677
15.78426	693.561	23.6965
15.7863	707.701	23.7161
15.7892	701.913	23.7356
15.7902	695.639	23.7551
15.79104	704.352	23.7747
15.7932	706.844	23.7942
15.7952	695.581	23.8137
15.7954	706.503	23.8333
15.79803	710.428	23.8528
15.7995	698.83	23.8723
15.8008	700.377	23.8918
15.8033	714.332	23.9114
15.804	702.968	23.9309
15.8048	703.652	23.9504
15.8083	714.553	23.97
15.8087	706.636	23.9895
15.8108	702.8316	24.009
15.8129	716.198	24.0286
15.8146	709.891	24.0481
15.8156	702.077	24.0676
15.8182	717.101	24.0872
15.8192	712.77	24.1067
15.8193	703.698	24.1262
15.822	715.478	24.1458
15.8238	719.454	24.1653
15.8258	706.632	24.1848
15.8267	712.679	24.2043
15.8284	717.251	24.2239
15.8314	709.95	24.2434
15.8324	711.399	24.2629
15.83293	725.392	24.2825
15.835	713.141	24.302
15.8367	712.266	24.3215
15.8391	721.663	24.3411
15.8395	722.783	24.3606
15.8422	711.126	24.3801
15.84376	723.439	24.3997
15.8449	723.38	24.4192
15.8475	715.205	24.4387
15.848	718.522	24.4583
15.8504	727.213	24.4778
15.8511	714.758	24.4973
15.8527	720.518	24.5168
15.8561	730.576	24.5364
15.8562	719.565	24.5559
15.8578	717.334	24.5754
15.8595	731.453	24.595
15.8607	722.0448	24.6145
15.8626	719.818	24.634
15.8649	731.158	24.6536
15.8656	725.4931	24.6731
15.8673	717.418	24.6926
15.8694	733.27	24.7122
15.8712	729.827	24.7317
15.8727	718.933	24.7512
15.8746	733.1311	24.7708
15.8769	734.144	24.7903
15.8773	722.541	24.8098
15.8793	729.287	24.8293
15.8811	736.821	24.8489
15.8817	725.199	24.8684
15.8853	728.485	24.8879
15.8847	735.359	24.9075
15.8878	730.998	24.927
15.8893	726.6	24.9465
15.89009	739.013	24.9661
15.8922	733.427	24.9856
15.8932	728.018	25.0051
15.8962	733.905	25.0247
15.897	741.466	25.0442
15.8984	727.057	25.0637
15.899	738.961	25.0833
15.9005	743.038	25.1028
15.9035	731.596	25.1223
15.9052	733.378	25.1418
15.9073	745.1076	25.1614
15.9088	732.295	25.1809
15.9114	733.645	25.2004
15.9111	746.999	25.22
15.9136	739.25	25.2395
15.91544	732.192	25.259
15.9169	747.055	25.2786
15.9184	742	25.2981
15.9191	733.883	25.3176
15.9207	746.301	25.3372
15.9231	742.367	25.3567
15.9246	733.678	25.3762
15.9268	745.087	25.3958
15.9284	748.938	25.4153
15.9295	736.665	25.4348
15.931	744.468	25.4543
15.9332	751.542	25.4739
15.9338	743.171	25.4934
15.937	742.541	25.5129
15.93812	754.654	25.5325
15.9388	745.578	25.552
15.9409	744.689	25.5715
15.94216	751.504	25.5911
15.9438	749.807	25.6106
15.9463	740.618	25.6301
15.9469	755.428	25.6497
15.94986	753.508	25.6692
15.9509	743.512	25.6887
15.9529	747.968	25.7083
15.9544	758.322	25.7278
15.95529	745.503	25.7473
15.9573	752.01	25.7668
15.959	757.965	25.7864
15.9614	747.954	25.8059
15.962	747.594	25.8254
15.9631	762.742	25.845
15.9653	751.613	25.8645
15.967	749.009	25.884
15.9685	762.456	25.9036
15.9705	756.119	25.9231
15.9717	746.9646	25.9426
15.9733	760.666	25.9622
15.9756	760.152	25.9817
15.9769	750.177	26.0012
15.9784	759.735	26.0208
15.9804	762.624	26.0403
15.9815	752.02	26.0598
15.9842	758.731	26.0793
15.984	767.998	26.0989
15.9865	755.041	26.1184
15.9886	756.193	26.1379
15.9887	765.397	26.1575
15.9915	760.9342	26.177
15.993	755.853	26.1965
15.9946	767.868	26.2161
15.9975	764.18	26.2356
15.9972	759.154	26.2551
15.9987	765.622	26.2747
16.0009	769.337	26.2942
16.0032	755.48	26.3137
16.0055	767.268	26.3333
16.0064	772.884	26.3528
16.0077	759.221	26.3723
16.0087	762.082	26.3918
16.01177	774.325	26.4114
16.0127	762.181	26.4309
16.0147	763.825	26.4504
16.0148	773.629	26.47
16.0179	765.275	26.4895
16.0201	762.617	26.509
16.0203	775.049	26.5286
16.0236	768.9082	26.5481
16.0232	762.176	26.5676
16.0256	775.189	26.5872
16.0271	773.115	26.6067
16.02891	763.763	26.6262
16.0316	772.83	26.6458
16.0326	777.662	26.6653
16.0339	764.93	26.6848
16.0346	773.4975	26.7043
16.0367	777.259	26.7239
16.0383	768.673	26.7434
16.0407	770.459	26.7629
16.0414	781.868	26.7825
16.0447	772.734	26.802
16.045	769.064	26.8215
16.04768	779.182	26.8411
16.0486	779.702	26.8606
16.0496	768.068	26.8801
16.0519	781.43	26.8997
16.0533	780.974	26.9192
16.0556	771.039	26.9387
16.0567	776.78	26.9583
16.0584	784.472	26.9778
16.0606	770.653	26.9973
16.0618	777.313	27.0168
16.0626	787.925	27.0364
16.0649	776.179	27.0559
16.0655	772.615	27.0754
16.06846	788.248	27.095
16.0692	778.885	27.1145
16.072	775.683	27.134
16.0724	787.342	27.1536
16.07391	780.744	27.1731
16.0763	772.059	27.1926
16.0777	788.292	27.2122
16.0792	785.932	27.2317
16.0808	773.991	27.2512
16.0839	784.457	27.2708
16.0843	787.33	27.2903
16.0862	777.129	27.3098
16.0875	783.813	27.3293
16.0894	791.3269	27.3489
16.0907	780.687	27.3684
16.0925	784.483	27.3879
16.0934	790.86	27.4075
16.0961	784.29	27.427
16.09771	779.591	27.4465
16.0991	794.4104	27.4661
16.0999	788.027	27.4856
16.1017	782.231	27.5051
16.1047	789.491	27.5247
16.1054	792.469	27.5442
16.1064	781.582	27.5637
16.10759	791.938	27.5833
16.10981	796.246	27.6028
16.1122	784.104	27.6223
16.11326	786.414	27.6418
16.1158	800.393	27.6614
16.1171	784.617	27.6809
16.1192	788.035	27.7004
16.1206	798.4505	27.72
16.1213	789.788	27.7395
16.123	783.666	27.759
16.1249	800.027	27.7786
16.1266	793.598	27.7981
16.1285	786.874	27.8176
16.1296	798.937	27.8372
16.1317	795.956	27.8567
16.1323	785.484	27.8762
16.1348	796.373	27.8958
16.1358	801.33	27.9153
16.1379	786.59	27.9348
16.14	793.333	27.9543
16.1407	800.06	27.9739
16.1426	792.075	27.9934
16.1433	792.141	28.0129
16.1448	803.835	28.0325
16.1484	794.145	28.052
16.1496	793.881	28.0715
16.15159	801.535	28.0911
16.1532	800.264	28.1106
16.154	789.67	28.1301
16.1554	803.58	28.1497
16.1572	802.687	28.1692
16.1589	792.733	28.1887
16.1614	798.1615	28.2083
16.1626	808.673	28.2278
16.1643	795.488	28.2473
16.1648	800.122	28.2668
16.1673	807.279	28.2864
16.1695	795.841	28.3059
16.1712	794.185	28.3254
16.1733	811.358	28.345
16.1737	799.073	28.3645
16.1754	797.045	28.384
16.1769	809.154	28.4036
16.1787	804.8692	28.4231
16.1799	793.235	28.4426
16.1824	806.7699	28.4622
16.1825	807.903	28.4817
16.1842	796.221	28.5012
16.1867	808.147	28.5208
16.1883	809.873	28.5403
16.1895	796.689	28.5598
16.1916	803.921	28.5793
16.1931	814.343	28.5989
16.1948	800.478	28.6184
16.1964	802.416	28.6379
16.1993	810.655	28.6575
16.1998	804.337	28.677
16.20174	801.861	28.6965
16.2031	813.381	28.7161
16.2049	807.959	28.7356
16.2061	803.058	28.7551
16.2081	810.47	28.7747
16.2096	814.221	28.7942
16.211	799.4588	28.8137
16.2122	811.218	28.8333
16.215	815.438	28.8528
16.2158	804.7804	28.8723
16.2177	805.128	28.8918
16.2191	818.351	28.9114
16.2209	805.794	28.9309
16.223	808.662	28.9504
16.22422	818.966	28.97
16.2259	810.084	28.9895
16.2276	802.542	29.009
16.2285	820.138	29.0286
16.2304	813.373	29.0481
16.2312	803.2348	29.0676
16.2333	817.111	29.0872
16.2354	816.918	29.1067
16.23698	804.8	29.1262
16.239	814.557	29.1458
16.2414	819.012	29.1653
16.241	805.52	29.1848
16.2434	816.8103	29.2043
16.2455	820.086	29.2239
16.2471	809.373	29.2434
16.2487	810.541	29.2629
16.2515	824.1925	29.2825
16.2519	812.926	29.302
16.2534	810.569	29.3215
16.2547	818.859	29.3411
16.257	817.254	29.3606
16.2577	809.388	29.3801
16.2603	821.97	29.3997
16.2622	819.558	29.4192
16.263	811.854	29.4387
16.2648	816.006	29.4583
16.26676	825.8244	29.4778
16.2689	809.183	29.4973
16.2695	816.568	29.5168
16.2717	824.819	29.5364
16.273	815.144	29.5559
16.2747	811.977	29.5754
16.2765	826.763	29.595
16.2773	817.037	29.6145
16.2787	815.3645	29.634
16.2811	825.812	29.6536
16.2825	820.377	29.6731
16.2846	810.242	29.6926
16.2867	824.972	29.7122
16.2873	825.865	29.7317
16.2896	814.26	29.7512
16.2914	822.707	29.7708
16.2925	826.343	29.7903
16.2933	814.533	29.8098
16.2951	821.614	29.8293
16.297	829.255	29.8489
16.2994	817.7113	29.8684
16.3006	820.366	29.8879
16.3031	829.324	29.9075
16.3033	821.663	29.927
16.3064	816.611	29.9465
16.3076	829.048	29.9661
16.3081	824.512	29.9856
16.3109	818.498	30.0051
16.3115	824.0379	30.0247
16.3146	827.558	30.0442
16.3143	815.983	30.0637
16.31636	827.55	30.0833
16.319	830.331	30.1028
16.3207	819.18	30.1223
16.3218	821.534	30.1418
16.3232	834.891	30.1614
16.3253	821.363	30.1809
16.3268	823.149	30.2004
16.3276	833.533	30.22
16.3305	825.578	30.2395
16.333	818.498	30.259
16.3331	833.873	30.2786
16.335	827.645	30.2981
16.3362	819.72	30.3176
16.3383	832	30.3372
16.3392	829.674	30.3567
16.3421	815.79	30.3762
16.3431	829.287	30.3958
16.3457	834.243	30.4153
16.3458	821.679	30.4348
16.3478	828.8692	30.4543
16.3495	834.462	30.4739
16.3511	824.3537	30.4934
16.35351	824.703	30.5129
16.3552	837.997	30.5325
16.3564	827.215	30.552
16.3586	825.479	30.5715
16.3591	835.077	30.5911
16.3612	833.177	30.6106
16.3631	821.883	30.6301
16.36384	834.541	30.6497
16.3661	836.062	30.6692
16.3682	826.336	30.6887
16.3681	830.022	30.7083
16.3696	837.66	30.7278
16.3732	824.409	30.7473
16.374	831.987	30.7668
16.3762	838.533	30.7864
16.37698	827.975	30.8059
16.3797	824.089	30.8254
16.3801	841.782	30.845
16.3821	830.676	30.8645
16.38422	826.668	30.884
16.3849	839.319	30.9036
16.3881	835.099	30.9231
16.3881	824.629	30.9426
16.3899	840.591	30.9622
16.3915	835.927	30.9817
16.3946	826.836	31.0012
16.3944	836.021	31.0208
16.397	839.593	31.0403
16.3985	826.8559	31.0598
16.3999	832.505	31.0793
16.4022	840.916	31.0989
16.4029	830.02	31.1184
16.4053	832.661	31.1379
16.4072	838.239	31.1575
16.4092	834.422	31.177
16.40983	830.859	31.1965
16.4125	843.4317	31.2161
16.4115	836.146	31.2356
16.4142	829.008	31.2551
16.4154	837.3103	31.2747
16.4174	840.5556	31.2942
16.4192	827.312	31.3137
16.4224	839.33	31.3333
16.4225	842.964	31.3528
16.425	833.197	31.3723
16.4266	831.817	31.3918
16.4279	844.873	31.4114
16.4292	831.323	31.4309
16.4316	833.477	31.4504
16.4318	847.133	31.47
16.4342	836.763	31.4895
16.4364	829.536	31.509
16.4369	846.774	31.5286
16.4389	839.844	31.5481
16.441	832.044	31.5676
16.4427	843.5993	31.5872
16.44442	842.168	31.6067
16.4448	830.609	31.6262
16.4466	841.7829	31.6458
16.4484	846.033	31.6653
16.4501	832.303	31.6848
16.4526	839.275	31.7043
16.4538	846.373	31.7239
16.45536	836.281	31.7434
16.4563	836.908	31.7629
16.4579	848.58	31.7825
16.4608	838.248	31.802
16.4611	836.26	31.8215
16.4641	842.943	31.8411
16.4654	843.123	31.8606
16.4662	832.981	31.8801
16.4674	847.311	31.8997
16.47	846.032	31.9192
16.4708	834.498	31.9387
16.4726	840.821	31.9583
[...]
16.7193	863.698	34.9075
16.7207	857.044	34.927
16.7217	851.396	34.9465
16.7238	863.562	34.9661
16.72575	858.711	34.9856
16.72736	853.061	35.0051
16.7293	861.513	35.0247
16.7309	862.278	35.0442
16.7313	848.8501	35.0637
16.7336	862.4433	35.0833
16.7355	866.248	35.1028
16.7373	855.113	35.1223
16.7396	854.6167	35.1418
16.74185	867.361	35.1614
16.7424	854.77	35.1809
16.7436	855.565	35.2004
16.7446	865.61	35.22
16.7471	858.462	35.2395
16.748	850.982	35.259
16.75	867.492	35.2786
16.7519	862.113	35.2981
16.7527	851.731	35.3176
16.7549	864.938	35.3372
16.7564	863.958	35.3567
16.7586	851.491	35.3762
16.7596	861.578	35.3958
16.7616	865.668	35.4153
16.764	854.194	35.4348
16.7658	860.15	35.4543
16.7657	864.356	35.4739
16.76775	853.842	35.4934
16.7694	856.648	35.5129
16.7709	867.68	35.5325
16.7738	858.277	35.552
16.7748	855.0741	35.5715
16.7765	863.456	35.5911
16.77833	863.308	35.6106
16.77968	852.322	35.6301
16.781	866.266	35.6497
16.7819	864.398	35.6692
16.7841	854.684	35.6887
16.7866	858.77	35.7083
16.7871	868.099	35.7278
16.78956	853.041	35.7473
16.7896	859.509	35.7668
16.7934	869.579	35.7864
16.794	857.642	35.8059
16.7951	853.296	35.8254
16.797	869.235	35.845
16.7994	858.258	35.8645
16.80052	854.377	35.884
16.8027	867.708	35.9036
16.8028	861.894	35.9231
16.8057	851.121	35.9426
16.80732	865.8703	35.9622
16.8083	865.738	35.9817
16.8104	852.632	36.0012
16.812	863.224	36.0208
16.8131	865.934	36.0403
16.8156	853.538	36.0598
16.8172	858.771	36.0793
16.8185	868.267	36.0989
16.8199	856.373	36.1184
16.822	859.717	36.1379
16.8226	866.956	36.1575
16.824	859.406	36.177
16.82592	854.038	36.1965
16.827	868.238	36.2161
16.8305	861.58	36.2356
16.8319	855.585	36.2551
16.8337	862.707	36.2747
16.8351	866.449	36.2942
16.8375	852.6	36.3137
16.8375	864.278	36.3333
16.8393	867.833	36.3528
16.8416	855.767	36.3723
16.8429	857.419	36.3918
16.84392	870.633	36.4114
16.8461	856.389	36.4309
16.848	857.306	36.4504
16.8495	868.425	36.47
16.8513	861.741	36.4895
16.85297	852.7348	36.509
16.854	868.437	36.5286
16.8566	862.616	36.5481
16.8578	853.508	36.5676
16.8585	863.778	36.5872
16.8602	862.73	36.6067
16.8622	852.017	36.6262
16.8641	861.742	36.6458
16.8655	868.099	36.6653
16.8672	852.197	36.6848
16.8681	859.626	36.7043
16.8699	865.918	36.7239
16.8723	855.643	36.7434
16.8744	855.792	36.7629
16.8745	867.165	36.7825
16.8775	857.954	36.802
16.8781	855.47	36.8215
16.8803	863.297	36.8411
16.8817	861.867	36.8606
16.8842	851.286	36.8801
16.8845	864.663	36.8997
16.8864	864.43	36.9192
16.8888	853.052	36.9387
16.8902	857.7962	36.9583
16.8909	866.384	36.9778
16.8939	852.099	36.9973
16.8941	859.717	37.0168
16.89624	867.032	37.0364
16.8975	855.292	37.0559
16.90028	851.0213	37.0754
16.90164	869.234	37.095
16.9029	856.438	37.1145
16.9045	851.442	37.134
16.9055	865.689	37.1536
16.9078	860.436	37.1731
16.91	849.443	37.1926
16.9112	861.502	37.2122
16.9135	861.363	37.2317
16.91478	851.075	37.2512
16.9155	862.338	37.2708
16.9174	863.29	37.2903
16.9192	849.564	37.3098
16.9214	854.647	37.3293
16.9223	865.525	37.3489
16.9256	852.907	37.3684
16.9261	854.372	37.3879
16.92779	862.595	37.4075
16.9299	857.566	37.427
16.9304	852.539	37.4465
16.9312	865.374	37.4661
16.9345	858.531	37.4856
16.935	852.256	37.5051
16.937	860.1662	37.5247
16.9391	864.118	37.5442
16.94	849.166	37.5637
16.9418	861.105	37.5833
16.9439	865.21	37.6028
16.9449	853.412	37.6223
16.9459	852.896	37.6418
16.9491	865.625	37.6614
16.95027	853.189	37.6809
16.9515	855.808	37.7004
16.95405	867.193	37.72
16.9548	855.9657	37.7395
16.9565	848.774	37.759
16.9582	866.477	37.7786
16.9595	859.425	37.7981
16.9621	848.752	37.8176
16.9635	860.198	37.8372
16.9653	862.147	37.8567
16.9665	848.7511	37.8762
16.9693	858.977	37.8958
16.9701	862.317	37.9153
16.9706	850.13	37.9348
16.9723	857.889	37.9543
16.9747	863.696	37.9739
16.9763	852.169	37.9934
16.979	854.198	38.0129
16.9801	865.599	38.0325
16.9805	856.884	38.052
16.983	852.9209	38.0715
16.9839	861.706	38.0911
16.9862	860.135	38.1106
16.9874	850.378	38.1301
16.9891	862.88	38.1497
16.9917	862.484	38.1692
16.993	851.953	38.1887
16.9959	856.231	38.2083
16.99625	866.839	38.2278
16.9971	850.308	38.2473
16.9993	856.684	38.2668
17.0007	864.48	38.2864
17.0024	855.893	38.3059
17.0045	849.187	38.3254
17.0057	865.7948	38.345
17.0073	856.083	38.3645
17.0101	852.233	38.384
17.0096	863.632	38.4036
17.0126	859.216	38.4231
17.0153	846.442	38.4426
17.0159	863.33	38.4622
17.0164	863.621	38.4817
17.0186	848.415	38.5012
17.0203	859.005	38.5208
17.0223	862.982	38.5403
17.0223	849.8761	38.5598
17.0253	855.514	38.5793
17.0261	864.375	38.5989
17.0284	850.973	38.6184
17.0308	854.381	38.6379
17.0306	863.232	38.6575
17.0328	855.125	38.677
17.0353	848.883	38.6965
17.0363	865.332	38.7161
17.0385	860.021	38.7356
17.0393	852.278	38.7551
17.04088	857.287	38.7747
17.04332	861.98	38.7942
17.0443	848.935	38.8137
17.0457	860.968	38.8333
17.0474	863.017	38.8528
17.0499	849.959	38.8723
17.05143	853.054	38.8918
17.0523	867.863	38.9114
17.0542	851.102	38.9309
17.0568	853.36	38.9504
17.05747	864.5799	38.97
17.06	855.946	38.9895
17.0614	848.908	39.009
17.0627	865.1319	39.0286
17.0646	857.637	39.0481
17.066	848.635	39.0676
17.0676	863.019	39.0872
17.0678	859.996	39.1067
17.07114	847.016	39.1262
17.0718	859.4762	39.1458
17.0738	864.469	39.1653
17.07542	850.1272	39.1848
17.0774	856.262	39.2043
17.0782	861.922	39.2239
17.0809	852.382	39.2434
17.082	852.939	39.2629
17.0844	864.753	39.2825
17.0852	854.929	39.302
17.08663	851.629	39.3215
17.09	861.105	39.3411
17.091	859.653	39.3606
17.0915	847.986	39.3801
17.0938	861.998	39.3997
17.0947	862.398	39.4192
17.0972	851.638	39.4387
17.099	852.64	39.4583
17.1005	865.797	39.4778
17.10111	849.5437	39.4973
17.1038	857.653	39.5168
17.1054	864.28	39.5364
17.1073	852.26	39.5559
17.108	849.1239	39.5754
17.1096	866.2558	39.595
17.1116	854.443	39.6145
17.1126	849.263	39.634
17.11455	862.006	39.6536
17.116	856.576	39.6731
17.1182	847.372	39.6926
17.1191	860.564	39.7122
17.1212	860.646	39.7317
17.124	848.105	39.7512
17.1239	857.822	39.7708
17.1258	862.392	39.7903
17.1274	847.2616	39.8098
17.1284	854.522	39.8293
17.1313	865.223	39.8489
17.1332	850.9834	39.8684
17.1345	852.463	39.8879
17.1352	859.737	39.9075
17.1375	854.289	39.927
17.1386	848.764	39.9465
17.14	862.981	39.9661
17.1414	856.939	39.9856
17.1452	849.606	40.0051
17.145	853.862	40.0149

Data Header:			0.254_hd_uprint_typei_4545_r0			Time:	45.4343	s	4/15/2019 4:09:00 PM
Data Acquisition:	Timed
Station Name:	ft40.cfg
Test File Name:	monotonic_0.2540_typei_hd_4545_uprint.tst
Displacement	Force	Running Time
mm	N	s
17.1454	857.307	40.0247
17.1463	863.285	40.0344
17.14752	862.749	40.0442
17.14801	854.146	40.054
17.1489	847.598	40.0637
17.1497	849.953	40.0735
17.1493	857.326	40.0833
17.15127	862.792	40.093
17.15181	863.964	40.1028
17.15374	856.2	40.1125
17.1526	851.248	40.1223
17.1556	848.324	40.13208
17.155	853.806	40.1418
17.1556	860.737	40.1516
17.1567	866.617	40.1614
17.1579	860.7	40.1711
17.1581	851.267	40.1809
17.1589	845.592	40.1907
17.1597	853.004	40.2004
17.1609	858.659	40.2102
17.1623	864.605	40.22
17.1626	860.543	40.2297
17.1637	854.5528	40.2395
17.1645	849.368	40.2493
17.1651	845.981	40.259
17.1663	855.461	40.2688
17.1667	862.507	40.2786
17.167	864.745	40.28833
17.1679	857.815	40.2981
17.1699	846.266	40.3079
17.1696	847.8349	40.3176
17.1712	854.3302	40.3274
17.1717	859.701	40.3372
17.1717	863.293	40.3469
17.1731	860.425	40.3567
17.1756	853.505	40.3665
17.1749	847.0495	40.3762
17.1749	848.513	40.386
17.1762	857.617	40.3958
17.177	865.009	40.4055
17.1782	862.255	40.4153
17.1795	853.287	40.425
17.1802	847.437	40.4348
17.1806	850.363	40.44458
17.1809	854.541	40.4543
17.1821	858.769	40.4641
17.183	860.884	40.4739
17.18408	858.766	40.4836
17.1854	851.305	40.4934
17.1863	848.815	40.5032
17.1853	849.436	40.5129
17.1873	858.875	40.5227
17.1885	863.858	40.5325
17.1876	859.257	40.5422
17.1904	855.304	40.552
17.1896	848.784	40.5618
17.1907	849.3595	40.5715
17.191	855.785	40.5813
17.1928	857.771	40.5911
17.1941	863.231	40.60083
17.1939	858.018	40.6106
17.19549	850.268	40.6204
17.1955	847.272	40.6301
17.1963	851.418	40.6399
17.1975	860.015	40.6497
17.199	861.786	40.6594
17.1997	859.982	40.6692
17.2008	854.862	40.679
17.2006	847.903	40.6887
17.2007	850.732	40.6985
17.2027	854.246	40.7083
17.2037	861.467	40.718
17.2041	865.019	40.7278
17.205	855.983	40.7375
17.2061	847.594	40.7473
17.2057	846.407	40.75708
17.2073	853.662	40.7668
17.2088	860.229	40.7766
17.209	862.962	40.7864
17.2094	857.855	40.7961
17.2113	852.634	40.8059
17.2106	845.951	40.8157
17.2118	847.737	40.8254
17.2126	857.465	40.8352
17.2148	863.851	40.845
17.215	862.325	40.8547
17.2158	853.85	40.8645
17.21524	844.291	40.8743
17.2172	848.331	40.884
17.2175	854.768	40.8938
17.2182	862.8385	40.9036
17.22	860.6377	40.91333
17.2194	857.935	40.9231
17.2215	851.403	40.9329
17.2222	843.588	40.9426
17.2225	852.306	40.9524
17.2228	860.424	40.9622
17.2249	864.952	40.9719
17.22579	860.114	40.9817
17.2253	847.74	40.9915
17.2272	847.958	41.0012
17.2278	850.198	41.011
17.229	856.249	41.0208
17.2289	861.579	41.0305
17.2299	860.251	41.0403
17.2321	857.641	41.05
17.2317	847.298	41.0598
17.232	846.9176	41.06958
17.2335	853.32	41.0793
17.2331	861.272	41.0891
17.2356	862.652	41.0989
17.2352	854.978	41.1086
17.2365	848.717	41.1184
17.2372	848.378	41.1282
17.2379	851.975	41.1379
17.239	855.793	41.1477
17.2394	860.986	41.1575
17.2401	861.2179	41.1672
17.2415	853.322	41.177
17.2413	846.337	41.1868
17.2426	844.87	41.1965
17.2439	855.237	41.2063
17.24489	862.282	41.2161
17.2452	860.414	41.22583
17.2462	857.143	41.2356
17.2475	849.962	41.2454
17.2482	847.985	41.2551
17.2484	850.41	41.2649
17.2492	854.719	41.2747
17.2502	863.435	41.2844
17.2516	858.892	41.2942
17.2513	851.734	41.304
17.2535	844.57	41.3137
17.2533	846.208	41.3235
17.2533	857.412	41.3333
17.2557	857.441	41.343
17.2572	860.461	41.3528
17.2575	855.398	41.3625
17.2569	847.438	41.3723
17.2586	847.286	41.38208
17.2593	848.953	41.3918
17.2606	858.338	41.4016
17.2611	863.11	41.4114
17.2616	857.167	41.4211
17.2625	848.247	41.4309
17.2634	843.497	41.4407
17.2642	849.435	41.4504
17.2649	856.895	41.4602
17.2659	859.815	41.47
17.267	858.876	41.4797
17.2675	852.084	41.4895
17.2686	845.408	41.4993
17.2684	844.069	41.509
17.2696	851.588	41.5188
17.2717	859.7265	41.5286
17.2708	863.159	41.53833
17.273	853.744	41.5481
17.27343	845.909	41.5579
17.2742	846.403	41.5676
17.274	850.227	41.5774
17.2764	858.004	41.5872
17.27676	860.216	41.5969
17.2776	857.177	41.6067
17.2779	850.768	41.6165
17.279	841.3573	41.6262
17.2795	847.045	41.636
17.28157	853.3277	41.6458
17.2807	860.789	41.6555
17.282	860.673	41.6653
17.283	848.7876	41.675
17.28336	845.7937	41.6848
17.2847	844.93	41.69458
17.2859	850.944	41.7043
17.2867	856.368	41.7141
17.2871	857.362	41.7239
17.2872	858.003	41.7336
17.2887	847.107	41.7434
17.2893	843.739	41.7532
17.29071	848.214	41.7629
17.291	853.603	41.7727
17.2917	859.245	41.7825
17.293	856.356	41.7922
17.2938	847.826	41.802
17.29397	846.3811	41.8118
17.2951	844.957	41.8215
17.2957	849.595	41.8313
17.2964	855.91	41.8411
17.2973	858.888	41.85083
17.2981	855.648	41.8606
17.2999	844.589	41.8704
17.2994	841.357	41.8801
17.3005	847.203	41.8899
17.3009	855.188	41.8997
17.30143	856.503	41.9094
17.3031	855.544	41.9192
17.3041	847.42	41.929
17.305	844.811	41.9387
17.3066	844.164	41.9485
17.3063	848.148	41.9583
17.3064	857.372	41.968
17.3088	859.521	41.9778
17.3092	852.134	41.9875
17.3093	842.044	41.9973
17.3099	840.826	42.00708
17.3109	847.6098	42.0168
17.312	853.651	42.0266
17.3136	859.2674	42.0364
17.3131	851.118	42.0461
17.3142	847.306	42.0559
17.31562	841.093	42.0657
17.3173	840.0675	42.0754
17.3174	851.509	42.0852
17.3176	857.808	42.095
17.3192	855.984	42.1047
17.3194	846.628	42.1145
17.31967	838.419	42.1243
17.32126	840.7323	42.134
17.3219	847.617	42.1438
17.32336	853.937	42.1536
17.324	855.984	42.16333
17.3247	848.132	42.1731
17.3253	841.92	42.1829
17.32618	837.379	42.1926
17.3272	841.459	42.2024
17.32789	852.839	42.2122
17.3283	855.563	42.2219
17.3297	850.321	42.2317
17.3305	841.6496	42.2415
17.3318	835.166	42.2512
17.3315	842.013	42.261
17.3329	845.689	42.2708
17.3336	850.199	42.2805
17.3342	851.448	42.2903
17.3354	845.935	42.3
17.3364	836.933	42.3098
17.3367	837.281	42.31958
17.3377	842.698	42.3293
17.3396	850.101	42.3391
17.3401	852.311	42.3489
17.3391	843.973	42.3586
17.3403	839.107	42.3684
17.3405	836.63	42.3782
17.34178	838.123	42.3879
17.3441	844.068	42.3977
17.3433	846.701	42.4075
17.3451	847.754	42.4172
17.3449	838.978	42.427
17.3474	834.863	42.4368
17.3465	832.983	42.4465
17.3475	838.48	42.4563
17.3486	848.996	42.4661
17.3495	844.661	42.47583
17.3491	841.038	42.4856
17.3517	834.622	42.4954
17.3523	831.692	42.5051
17.3527	834.241	42.5149
17.3537	840.219	42.5247
17.3549	845.385	42.5344
17.3553	844.9505	42.5442
17.3562	833.754	42.554
17.357	827.8667	42.5637
17.359	829.776	42.5735
17.359	837.182	42.5833
17.3604	842.049	42.593
17.3603	843.1	42.6028
17.3606	834.942	42.6125
17.362	829.512	42.6223
17.3628	825.738	42.63208
17.3643	828.578	42.6418
17.3634	837.4494	42.6516
17.3652	842.616	42.6614
17.3661	837.905	42.6711
17.367	825.864	42.6809
17.3677	819.898	42.6907
17.3681	826.5423	42.7004
17.3686	832.144	42.7102
17.3707	839.717	42.72
17.3701	837.045	42.7297
17.37258	828.576	42.7395
17.373	822.291	42.7493
17.374	818.528	42.759
17.37462	829.621	42.7688
17.3753	836.4292	42.7786
17.3757	836.163	42.78833
17.3757	830.15	42.7981
17.3773	817.138	42.8079
17.37838	818.184	42.8176
17.3787	823.814	42.8274
17.3803	830.392	42.8372
17.3803	833.863	42.8469
17.3819	830.146	42.8567
17.3819	824.355	42.8665
17.3832	815.655	42.8762
17.3853	816.583	42.886
17.3845	828.049	42.8958
17.3856	832.763	42.9055
17.3857	831.113	42.9153
17.3876	821.176	42.925
17.3869	814.95	42.9348
17.3884	815.647	42.94458
17.3898	820.34	42.9543
17.3909	826.3772	42.9641
17.3916	829.812	42.9739
17.3916	824.9798	42.9836
17.39217	817.959	42.9934
17.3935	811.281	43.0032
17.3947	812.324	43.0129
17.3954	821.984	43.0227
17.39724	826.289	43.0325
17.3963	821.687	43.0422
17.3975	814.259	43.052
17.39921	807.459	43.0618
17.3988	807.401	43.0715
17.4006	809.9798	43.0813
17.4011	812.444	43.0911
17.4013	816.209	43.10083
17.4028	808.429	43.1106
17.4031	800.257	43.1204
17.4036	792.7309	43.1301
17.4046	794.128	43.1399
17.4066	801.628	43.1497
17.4072	798.4527	43.1594
17.40764	795.178	43.1692
17.4081	783.582	43.179
17.4091	774.929	43.1887
17.4099	490.642	43.1985
17.41695	-111.56	43.2083
17.4166	-20.585	43.218
17.4169	-39.3166	43.2278
17.41819	-40.1361	43.2375
17.4174	-57.8399	43.2473
17.4174	-56.0072	43.25708
17.417	-50.83997	43.2668
17.4181	-41.1299	43.2766
17.41852	-39.6222	43.2864
17.4198	-44.2285	43.2961
17.4204	-50.6021	43.3059
17.4204	-59.2526	43.3157
17.422	-55.7286	43.3254
17.42275	-43.7936	43.3352
17.4232	-37.2393	43.345
17.4236	-39.1881	43.3547
17.4255	-50.6369	43.3645
17.4256	-57.317	43.3743
17.4258	-54.143	43.384
17.4269	-46.93084	43.3938
17.4278	-39.2383	43.4036
17.4284	-40.0559	43.41333
17.4287	-46.1445	43.4231
17.4301	-52.90276	43.4329
17.4307	-59.5396	43.4426
17.4317	-52.0708	43.4524
17.4326	-43.3662	43.4622
17.4334	-37.9225	43.4719
17.4336	-41.4503	43.4817
17.435	-54.22961	43.4915
17.43578	-55.7333	43.5012
17.43601	-51.9191	43.511
17.4373	-46.2748	43.5208
17.4388	-41.3972	43.5305
17.4389	-41.59	43.5403
17.4396	-45.2878	43.55
17.4401	-55.5894	43.5598
17.4411	-54.89	43.56958
17.44261	-47.7884	43.5793
17.4434	-42.7481	43.5891
17.4445	-38.7305	43.5989
17.4442	-46.1088	43.6086
17.4458	-52.0723	43.6184
17.4476	-52.7146	43.6282
17.44663	-50.2114	43.6379
17.4476	-44.5844	43.6477
17.4481	-41.39983	43.6575
17.4497	-41.7268	43.6672
17.4496	-48.07972	43.677
17.4506	-53.0848	43.6868
17.45113	-55.46162	43.6965
17.4535	-48.2301	43.7063
17.45336	-41.1571	43.7161
17.4536	-41.8971	43.72583
17.4549	-46.3384	43.7356
17.4562	-52.3735	43.7454
17.4565	-53.2902	43.7551
17.4578	-52.34967	43.7649
17.4583	-46.6552	43.7747
17.4587	-39.0926	43.7844
17.45985	-41.4733	43.7942
17.4603	-48.771	43.804
17.4626	-56.5802	43.8137
17.4617	-52.7576	43.8235
17.4634	-45.414	43.8333
17.4644	-42.9354	43.843
17.4642	-40.4212	43.8528
17.4657	-46.5748	43.8625
17.4665	-51.8229	43.8723
17.4678	-52.8013	43.88208
17.4689	-52.48315	43.8918
17.46933	-41.0184	43.9016
17.4697	-38.8928	43.9114
17.47023	-41.4964	43.9211
17.4713	-50.282	43.9309
17.4717	-57.5725	43.9407
17.4721	-50.8674	43.9504
17.4748	-44.5562	43.9602
17.4747	-39.7991	43.97
17.4762	-41.8509	43.9797
17.47714	-47.55267	43.9895
17.4768	-53.0523	43.9993
17.4776	-55.3581	44.009
17.478	-48.78278	44.0188
17.4789	-38.1472	44.0286
17.4808	-36.8328	44.03833
17.4809	-46.461	44.0481
17.4818	-52.9117	44.0579
17.482	-55.4721	44.0676
17.4835	-49.7266	44.0774
17.4847	-41.8026	44.0872
17.4856	-41.0291	44.0969
17.4863	-42.4433	44.1067
17.4865	-49.4548	44.1165
17.4868	-56.298	44.1262
17.489	-51.0589	44.136
17.4886	-46.3635	44.1458
17.4904	-36.8661	44.1555
17.4913	-41.5848	44.1653
17.4916	-50.4207	44.175
17.4923	-53.2004	44.1848
17.4939	-53.7682	44.19458
17.4943	-47.4541	44.2043
17.4951	-42.6923	44.2141
17.4954	-43.5213	44.2239
17.4966	-42.47847	44.2336
17.4972	-51.9576	44.2434
17.4983	-53.5993	44.2532
17.4976	-51.46933	44.2629
17.5002	-44.7324	44.2727
17.5004	-37.8896	44.2825
17.5017	-43.5143	44.2922
17.5011	-49.2546	44.302
17.5032	-50.6115	44.3118
17.5043	-52.1948	44.3215
17.5037	-46.4063	44.3313
17.50584	-43.5904	44.3411
17.5046	-39.5607	44.35083
17.5071	-41.9	44.3606
17.5073	-52.6959	44.3704
17.508	-53.4417	44.3801
17.5095	-51.4465	44.3899
17.5105	-42.7384	44.3997
17.5108	-41.7191	44.4094
17.5115	-43.6744	44.4192
17.5127	-50.3093	44.429
17.5129	-51.6753	44.4387
17.514	-53.5725	44.4485
17.5159	-48.01004	44.4583
17.5164	-40.9819	44.468
17.5173	-40.0059	44.4778
17.5178	-45.4959	44.4875
17.51893	-54.6899	44.4973
17.5199	-56.2548	44.50708
17.52	-47.6999	44.5168
17.5203	-43.0813	44.5266
17.5217	-37.10648	44.5364
17.52252	-45.517	44.5461
17.52268	-49.8696	44.5559
17.5241	-53.5637	44.5657
17.5255	-54.9335	44.5754
17.5261	-45.0629	44.5852
17.527	-38.16095	44.595
17.5279	-39.7414	44.6047
17.529	-48.1119	44.6145
17.5301	-55.27409	44.6243
17.52932	-52.8103	44.634
17.531	-46.4081	44.6438
17.5313	-41.6255	44.6536
17.5323	-40.3504	44.66333
17.5327	-45.6942	44.6731
17.5339	-51.1432	44.6829
17.5353	-55.8393	44.6926
17.5353	-51.4295	44.7024
17.5363	-42.1593	44.7122
17.5363	-39.2818	44.7219
17.5381	-43.5358	44.7317
17.5374	-51.363	44.7415
17.539	-55.6957	44.7512
17.5412	-51.143	44.761
17.5409	-44.6495	44.7708
17.542	-42.5628	44.7805
17.5427	-42.9175	44.7903
17.54381	-46.1608	44.8
17.5434	-55.61311	44.8098
17.5453	-53.7526	44.81958
17.5458	-49.1037	44.8293
17.5478	-40.5967	44.8391
17.54752	-41.8147	44.8489
17.5486	-47.6656	44.8586
17.5504	-52.4298	44.8684
17.5496	-54.1992	44.8782
17.5498	-50.4992	44.8879
17.5526	-45.4989	44.8977
17.55282	-42.5562	44.9075
17.5545	-40.6779	44.9172
17.554	-49.0306	44.927
17.5551	-52.8184	44.9368
17.5566	-53.6	44.9465
17.5569	-47.4931	44.9563
17.5568	-38.6995	44.9661
17.5589	-44.0432	44.97583
17.5591	-46.7193	44.9856
17.5602	-51.637	44.9954
17.5607	-54.4118	45.0051
17.5615	-49.1454	45.0149
17.5618	-47.9623	45.0247
17.5638	-40.28281	45.0344
17.5639	-42.3774	45.0442
17.56517	-50.2568	45.054
17.5661	-55.5169	45.0637
17.5664	-52.9251	45.0735
17.5665	-45.879	45.0833
17.5689	-40.6015	45.093
17.5685	-41.3548	45.1028
17.5701	-46.2136	45.1125
17.5707	-52.51424	45.1223
17.5718	-54.7871	45.13208
17.5715	-50.5587	45.1418
17.5743	-45.3144	45.1516
17.5738	-40.294	45.1614
17.5752	-43.9087	45.1711
17.5755	-51.9973	45.1809
17.5763	-55.3794	45.1907
17.5786	-49.81921	45.2004
17.5776	-44.4913	45.2102
17.5794	-39.4978	45.22
17.5802	-42.12149	45.2297
17.5797	-47.135	45.2395
17.5813	-52.6623	45.2493
17.5822	-56.77887	45.259
17.5816	-47.0762	45.2688
17.5843	-40.368	45.2786
17.584	-39.2552	45.28833
17.5858	-45.0951	45.2981
17.5871	-57.5136	45.3079
17.58754	-54.3551	45.3176
17.5878	-50.5195	45.3274
17.58843	-44.1035	45.3372
17.589	-40.0714	45.3469
17.5907	-44.6855	45.3567
17.591	-48.3737	45.3665
17.5919	-55.4192	45.3762
17.592	-52.8864	45.386
17.5935	-44.167	45.3958
17.5937	-40.3041	45.4055
17.594	-39.6561	45.4153
17.596	-50.7237	45.425