File: data/processed_data_files/tensile/0.254_hd_uprint_typeiv_4545_r(6).dat
MTS793|BTW|ENU|1|2|.|/|:|1|0|0|A

Data Header:			0.254_hd_uprint_typeiv_4545_r0			Time:	20.0181	s	4/13/2019 7:26:02 PM
Data Acquisition:	Timed
Station Name:	ft40.cfg
Test File Name:	monotonic_0.2540_typeiv_hd_4545_uprint.tst
Displacement	Force	Running Time
mm	N	s
-40.036	-155.625	0.0227051
-40.0349	-150.994	0.0422363
-40.035	-154.139	0.0617676
-40.0357	-155.078	0.0812988
-40.0331	-155.452	0.10083
-40.0328	-148.3811	0.120361
-40.0293	-150.406	0.139893
-40.0287	-150.5229	0.159424
-40.02626	-150.504	0.178955
-40.0248	-146.6256	0.198486
-40.0234	-151.149	0.218018
-40.0221	-143.282	0.237549
-40.0197	-144.124	0.25708
-40.0177	-148.087	0.276611
-40.0168	-145.491	0.296143
-40.0149	-138.562	0.315674
-40.0126	-142.95	0.335205
-40.0119	-142.4745	0.354736
-40.01022	-137.071	0.374268
-40.0076	-142.315	0.393799
-40.0075	-139.945	0.41333
-40.0053	-133.0705	0.432861
-40.0042	-136.876	0.452393
-40.0026	-137.49	0.471924
-39.9996	-128.657	0.491455
-39.9995	-134.34	0.510986
-39.9971	-134.364	0.530518
-39.9958	-129.12	0.550049
-39.995	-127.466	0.56958
-39.9932	-131.536	0.589111
-39.9905	-124.851	0.608643
-39.9894	-127.268	0.628174
-39.9869	-126.773	0.647705
-39.9845	-126.331	0.667236
-39.985	-121.263	0.686768
-39.9824	-124.35	0.706299
-39.9815	-122.183	0.72583
-39.9792	-118.921	0.745361
-39.9775	-119.451	0.764893
-39.9754	-121.928	0.784424
-39.9752	-115.774	0.803955
-39.9724	-116.586	0.823486
-39.9708	-119.345	0.843018
-39.9704	-114.63	0.862549
-39.9679	-112.266	0.88208
-39.96608	-116.493	0.901611
-39.9654	-112.051	0.921143
-39.9619	-106.87	0.940674
-39.9612	-114.6829	0.960205
-39.9599	-109.674	0.979736
-39.9583	-104.8291	0.999268
-39.9568	-108.497	1.0188
-39.955	-107.6973	1.03833
-39.9532	-101.172	1.05786
-39.9521	-107.247	1.07739
-39.9505	-104.225	1.09692
-39.949	-101.169	1.11646
-39.9469	-101.91	1.13599
-39.9444	-104.038	1.15552
-39.9434	-96.2956	1.17505
-39.9414	-99.9302	1.19458
-39.9397	-100.591	1.21411
-39.9385	-97.0914	1.23364
-39.9368	-92.5474	1.25317
-39.93438	-94.9599	1.27271
-39.9335	-91.8657	1.29224
-39.9322	-93.4533	1.31177
-39.9303	-91.9973	1.3313
-39.9285	-92.7512	1.35083
-39.9278	-84.3868	1.37036
-39.92532	-89.1168	1.38989
-39.9232	-90.1726	1.40942
-39.9231	-84.8562	1.42896
-39.9204	-85.1921	1.44849
-39.9192	-89.7399	1.46802
-39.9167	-82.9624	1.48755
-39.9161	-80.40873	1.50708
-39.9141	-85.7424	1.52661
-39.9133	-82.242	1.54614
-39.9099	-79.4646	1.56567
-39.9086	-82.4361	1.58521
-39.908	-78.8505	1.60474
-39.9067	-72.1075	1.62427
-39.9046	-81.1388	1.6438
-39.90284	-76.0188	1.66333
-39.9011	-71.4649	1.68286
-39.8993	-72.2287	1.70239
-39.8986	-74.4349	1.72192
-39.8962	-67.2489	1.74146
-39.8943	-73.5027	1.76099
-39.893	-71.4481	1.78052
-39.8907	-67.7556	1.80005
-39.8902	-65.8064	1.81958
-39.8876	-69.2212	1.83911
-39.8863	-63.8765	1.85864
-39.8854	-62.6384	1.87817
-39.8837	-64.0149	1.89771
-39.8822	-64.0273	1.91724
-39.8794	-59.6014	1.93677
-39.8775	-60.7373	1.9563
-39.8777	-60.3723	1.97583
-39.8747	-57.9965	1.99536
-39.8726	-57.3645	2.01489
-39.8725	-58.8213	2.03442
-39.8705	-54.4592	2.05396
-39.869	-53.6641	2.07349
-39.8674	-57.8869	2.09302
-39.8656	-53.6289	2.11255
-39.8642	-50.2519	2.13208
-39.862	-55.1295	2.15161
-39.8594	-51.1252	2.17114
-39.8596	-44.2769	2.19067
-39.8571	-51.3791	2.21021
-39.8553	-47.6999	2.22974
-39.8531	-43.1384	2.24927
-39.8531	-47.4994	2.2688
-39.85054	-44.406	2.28833
-39.8493	-38.8899	2.30786
-39.8482	-45.1845	2.32739
-39.8457	-43.5417	2.34692
-39.8446	-39.0815	2.36646
-39.8437	-38.8899	2.38599
-39.8399	-40.9889	2.40552
-39.839	-35.9914	2.42505
-39.8385	-37.5732	2.44458
-39.8367	-36.772	2.46411
-39.8348	-33.0324	2.48364
-39.831	-31.3241	2.50317
-39.8312	-33.8202	2.52271
-39.8297	-29.384	2.54224
-39.8275	-30.32795	2.56177
-39.8256	-31.6987	2.5813
-39.8241	-32.1359	2.60083
-39.82259	-24.5214	2.62036
-39.8211	-26.843	2.63989
-39.8202	-28.9951	2.65942
-39.8182	-24.8166	2.67896
-39.8149	-24.2085	2.69849
-39.8146	-26.5267	2.71802
-39.8137	-19.8507	2.73755
-39.8114	-17.7934	2.75708
-39.8096	-26.67314	2.77661
-39.8089	-20.1614	2.79614
-39.8065	-16.9271	2.81567
-39.8058	-20.1238	2.83521
-39.8028	-18.4581	2.85474
-39.8011	-11.5204	2.87427
-39.7997	-19.5575	2.8938
-39.7986	-14.1095	2.91333
-39.797	-12.3932	2.93286
-39.7966	-13.7607	2.95239
-39.7933	-13.3972	2.97192
-39.7924	-5.73683	2.99146
-39.79039	-12.5927	3.01099
-39.7887	-11.4032	3.03052
-39.787	-7.34316	3.05005
-39.7841	-3.69812	3.06958
-39.78381	-8.01348	3.08911
-39.7828	-2.52575	3.10864
-39.7805	-3.27582	3.12817
-39.7784	-3.7485	3.14771
-39.7773	-2.16732	3.16724
-39.7757	3.45617	3.18677
-39.7744	-1.14683	3.2063
-39.7723	0.191879	3.22583
-39.7705	3.911	3.24536
-39.7694	1.75652	3.26489
-39.7674	2.38911	3.28442
-39.7663	5.67019	3.30396
-39.7644	7.25476	3.32349
-39.7636	3.82175	3.34302
-39.7614	8.37645	3.36255
-39.7587	8.078537	3.38208
-39.7585	5.81637	3.40161
-39.7562	10.1502	3.42114
-39.7541	16.1832	3.44067
-39.7535	6.88396	3.46021
-39.751	14.42263	3.47974
-39.7488	17.5161	3.49927
-39.7485	14.3396	3.5188
-39.7459	14.6606	3.53833
-39.744	21.4245	3.55786
-39.743	14.5302	3.57739
-39.7406	17.9041	3.59692
-39.7393	20.7722	3.61646
-39.7377	21.9238	3.63599
-39.7362	19.6366	3.65552
-39.7353	27.58073	3.67505
-39.7341	23.0298	3.69458
-39.73204	22.4285	3.71411
-39.7305	25.7849	3.73364
-39.7279	28.768	3.75317
-39.7271	27.0447	3.77271
-39.726	28.0143	3.79224
-39.7243	30.8802	3.81177
-39.7231	30.09573	3.8313
-39.7215	30.7477	3.85083
-39.7196	34.4241	3.87036
-39.7168	32.7956	3.88989
-39.7165	31.5024	3.90942
-39.7137	37.93354	3.92896
-39.7121	38.1601	3.94849
-39.71032	33.0074	3.96802
-39.70797	40.1404	3.98755
-39.708	44.41	4.00708
-39.7048	36.1393	4.02661
-39.70438	43.5572	4.04614
-39.7025	44.4604	4.06567
-39.701	41.6973	4.08521
-39.6992	43.8073	4.10474
-39.6976	52.1817	4.12427
-39.696	40.8508	4.1438
-39.6945	48.5141	4.16333
-39.6924	50.4525	4.18286
-39.6908	49.23143	4.20239
-39.6896	47.7282	4.22192
-39.6872	53.66502	4.24146
-39.6861	51.06509	4.26099
-39.6855	51.2253	4.28052
-39.68375	54.9212	4.30005
-39.6812	54.4217	4.31958
-39.6806	54.3682	4.33911
-39.6783	58.5486	4.35864
-39.6769	57.9861	4.37817
-39.6739	55.77066	4.39771
-39.6734	58.7813	4.41724
-39.6714	63.3244	4.43677
-39.6697	59.9271	4.4563
-39.6683	59.6588	4.47583
-39.6662	65.7206	4.49536
-39.6652	61.95842	4.51489
-39.6639	63.246	4.53442
-39.6615	68.0195	4.55396
-39.6599	67.7601	4.57349
-39.6582	63.4195	4.59302
-39.6579	72.8015	4.61255
-39.6555	71.3041	4.63208
-39.654	67.0169	4.65161
-39.6509	71.6999	4.67114
-39.6501	77.7455	4.69067
-39.6489	68.16568	4.71021
-39.64785	76.9073	4.72974
-39.6448	77.1216	4.74927
-39.6434	75.4306	4.7688
-39.6425	75.7741	4.78833
-39.641	83.441	4.80786
-39.6399	74.0548	4.82739
-39.6378	80.2839	4.84692
-39.6355	82.4857	4.86646
-39.6337	82.9307	4.88599
-39.63364	81.1771	4.90552
-39.6312	87.6601	4.92505
-39.6285	86.0264	4.94458
-39.6276	84.2403	4.96411
-39.62582	88.53	4.98364
-39.6243	88.9511	5.00317
-39.6237	85.4912	5.02271
-39.6214	90.08091	5.04224
-39.62	91.6531	5.06177
-39.6177	88.8689	5.0813
-39.6161	88.6689	5.10083
-39.6149	95.9624	5.12036
-39.614	96.5113	5.13989
-39.6117	92.1955	5.15942
-39.6103	98.723	5.17896
-39.6083	97.9836	5.19849
-39.6063	96.1838	5.21802
-39.6034	102.208	5.23755
-39.6037	102.431	5.25708
-39.6018	95.4105	5.27661
-39.6	104.204	5.29614
-39.5972	103.6517	5.31567
-39.5965	101.386	5.33521
-39.5947	104.0614	5.35474
-39.5929	110.668	5.37427
-39.5925	102.7177	5.3938
-39.5914	108.325	5.41333
-39.5884	111.264	5.43286
-39.587	108.945	5.45239
-39.5868	108.389	5.47192
-39.5842	115.796	5.49146
-39.5821	109.8804	5.51099
-39.5811	110.19	5.53052
-39.5794	114.2609	5.55005
-39.5776	116.873	5.56958
-39.5759	111.67	5.58911
-39.5745	117.054	5.60864
-39.5732	117.935	5.62817
-39.571	116.384	5.64771
-39.5691	119.678	5.66724
-39.5671	121.915	5.68677
-39.5659	120.297	5.7063
-39.5651	118.749	5.72583
-39.5622	127.24	5.74536
-39.5597	123.664	5.76489
-39.5594	122.476	5.78442
-39.55801	128.243	5.80396
-39.5553	129.738	5.82349
-39.5547	123.556	5.84302
-39.5524	133.355	5.86255
-39.5503	130.955	5.88208
-39.5488	129.896	5.90161
-39.5479	132.8588	5.92114
-39.5464	137.099	5.94067
-39.5443	128.17	5.96021
-39.5427	136.214	5.97974
-39.5419	137.483	5.99927
-39.53978	135.9761	6.0188
-39.5384	134.425	6.03833
-39.5367	141.991	6.05786
-39.5352	135.696	6.07739
-39.535	138.714	6.09692
-39.53167	142.158	6.11646
-39.5312	140.746	6.13599
-39.5293	140.618	6.15552
-39.5262	146.492	6.17505
-39.5249	144.76	6.19458
-39.5223	142.063	6.21411
-39.5203	147.732	6.23364
-39.5207	150.893	6.25317
-39.5187	146.49	6.27271
-39.5168	147.542	6.29224
-39.5154	151.844	6.31177
-39.5137	148.721	6.3313
-39.51247	150.814	6.35083
-39.5104	155.419	6.37036
-39.5087	153.796	6.38989
-39.5079	151.287	6.40942
-39.5054	158.456	6.42896
-39.5046	157.142	6.44849
-39.5027	153.731	6.46802
-39.5012	159.218	6.48755
-39.4996	160.862	6.50708
-39.49778	154.709	6.52661
-39.4961	162.881	6.54614
-39.4945	163.539	6.56567
-39.4938	161.329	6.58521
-39.4902	165.005	6.60474
-39.4896	168.702	6.62427
-39.4892	159.752	6.6438
-39.4868	167.1107	6.66333
-39.4836	169.284	6.68286
-39.4831	167.143	6.70239
-39.4804	167.576	6.72192
-39.4792	173.2153	6.74146
-39.4774	170.0992	6.76099
-39.4772	171.823	6.78052
-39.4741	174.269	6.80005
-39.4739	174.532	6.81958
-39.4708	171.599	6.83911
-39.4705	177.198	6.85864
-39.469	178.198	6.87817
-39.4667	174.548	6.89771
-39.4653	177.164	6.91724
-39.4633	181.36	6.93677
-39.4613	180.099	6.9563
-39.4609	177.777	6.97583
-39.45789	185.2543	6.99536
-39.457	180.7365	7.01489
-39.4548	181.965	7.03442
-39.45414	188.734	7.05396
-39.4521	186.921	7.07349
-39.4504	181.383	7.09302
-39.4484	191.288	7.11255
-39.4477	189.955	7.13208
-39.4448	185.663	7.15161
-39.4444	190.833	7.17114
-39.4423	194.352	7.19067
-39.4399	186.682	7.21021
-39.4388	193.9736	7.22974
-39.4383	195.3255	7.24927
-39.4373	191.942	7.2688
-39.4342	196.486	7.28833
-39.4316	202.363	7.30786
-39.4316	194.593	7.32739
-39.4289	197.335	7.34692
-39.4272	202.954	7.36646
-39.4249	200.218	7.38599
-39.4239	200.545	7.40552
-39.42263	203.748	7.42505
-39.4206	202.883	7.44458
-39.4199	201.055	7.46411
-39.4183	205.598	7.48364
-39.4151	206.073	7.50317
-39.4139	205.333	7.52271
-39.4133	206.586	7.54224
-39.4106	212.843	7.56177
-39.4102	206.4978	7.5813
-39.409	208.758	7.60083
-39.4064	213.3477	7.62036
-39.405	214.025	7.63989
-39.4037	208.498	7.65942
-39.4019	217.074	7.67896
-39.4003	213.334	7.69849
-39.3991	212.4476	7.71802
-39.3975	219.39	7.73755
-39.3953	220.485	7.75708
-39.3934	211.933	7.77661
-39.3925	223.3246	7.79614
-39.3894	221.821	7.81567
-39.3878	218.3139	7.83521
-39.38628	221.126	7.85474
-39.3862	225.924	7.87427
-39.3846	220.102	7.8938
-39.3818	225.25	7.91333
-39.3799	228.093	7.93286
-39.3778	225.5105	7.95239
-39.3772	225.11	7.97192
-39.3755	231.289	7.99146
-39.3736	228.37	8.01099
-39.3729	227.355	8.03052
-39.3701	232.84	8.05005
-39.3706	233.167	8.06958
-39.3681	230.093	8.08911
-39.3663	233.41	8.10864
-39.364	237.043	8.12817
-39.3618	232.0108	8.14771
-39.3604	236.429	8.16724
-39.3602	239.354	8.18677
-39.3577	236.731	8.2063
-39.3561	236.922	8.22583
-39.3548	243.461	8.24536
-39.3523	238.0143	8.26489
-39.3511	239.575	8.28442
-39.3503	245.8027	8.30396
-39.3474	244.3582	8.32349
-39.3463	239.059	8.34302
-39.34478	247.417	8.36255
-39.3421	246.07	8.38208
-39.3423	244.238	8.40161
-39.3396	250.115	8.42114
-39.3381	252.455	8.44067
-39.338	242.8	8.46021
-39.3341	252.335	8.47974
-39.3338	254.997	8.49927
-39.3305	250.8154	8.5188
-39.3302	251.9868	8.53833
-39.32798	256.2247	8.55786
-39.3268	252.388	8.57739
-39.3252	252.459	8.59692
-39.3239	258.367	8.61646
-39.3219	255.991	8.63599
-39.3207	256.532	8.65552
-39.3187	260.811	8.67505
-39.3168	262.392	8.69458
-39.3146	258.496	8.71411
-39.313	262.213	8.73364
-39.31284	264.612	8.75317
-39.3104	262.363	8.77271
-39.3086	262.832	8.79224
-39.3067	269.535	8.81177
-39.30711	263.8	8.8313
-39.304	267.0524	8.85083
-39.302	272.273	8.87036
-39.3009	270.455	8.88989
-39.2989	265.068	8.90942
-39.2982	276.591	8.92896
-39.2953	271.568	8.94849
-39.2943	269.312	8.96802
-39.2928	275.8757	8.98755
-39.2911	277.512	9.00708
-39.2887	270.909	9.02661
-39.2883	279.286	9.04614
-39.2861	278.3002	9.06567
-39.2853	274.984	9.08521
-39.2828	280.4274	9.10474
-39.2814	284.0094	9.12427
-39.2802	276.067	9.1438
-39.2784	279.925	9.16333
-39.2751	286.19	9.18286
-39.2752	282.318	9.20239
-39.2735	282.749	9.22192
-39.2709	286.759	9.24146
-39.2705	284.786	9.26099
-39.2691	283.464	9.28052
-39.2672	289.98	9.30005
-39.2659	288.59	9.31958
-39.2627	286.012	9.33911
-39.2605	288.3053	9.35864
-39.2592	292.374	9.37817
-39.2584	287.911	9.39771
-39.2567	291.328	9.41724
-39.2552	296.336	9.43677
-39.2532	294.168	9.4563
-39.25275	290.988	9.47583
-39.2501	300.724	9.49536
-39.249	294.228	9.51489
-39.2468	296.7912	9.53442
-39.2446	300.692	9.55396
-39.2445	300.512	9.57349
-39.2428	294.0975	9.59302
-39.2403	304.468	9.61255
-39.239	302.706	9.63208
-39.2375	299.21	9.65161
-39.2351	304.968	9.67114
-39.2345	307.21	9.69067
-39.233	299.4491	9.71021
-39.232	306.641	9.72974
-39.2275	310.113	9.74927
-39.2278	306.028	9.7688
-39.2251	309.213	9.78833
-39.2232	314.339	9.80786
-39.223	306.833	9.82739
-39.2214	307.924	9.84692
-39.2198	313.604	9.86646
-39.21767	311.893	9.88599
-39.2157	312.2132	9.90552
-39.2143	316.054	9.92505
-39.2127	315.903	9.94458
-39.21056	312.452	9.96411
-39.2098	319.675	9.98364
-39.2078	319.151	10.0032
-39.2072	315.384	10.0227
-39.2066	317.248	10.0422
-39.2036	324.127	10.0618
-39.2016	318.862	10.0813
-39.1997	321.812	10.10083
-39.1979	324.848	10.1204
-39.1965	324.8042	10.1399
-39.194	320.321	10.1594
-39.1928	330.225	10.179
-39.1924	325.48	10.1985
-39.1892	324.939	10.218
-39.1887	332.091	10.2375
-39.1868	331.756	10.25708
-39.1854	322.252	10.2766
-39.1835	331.526	10.2961
-39.1814	332.252	10.3157
-39.18021	328.327	10.3352
-39.1781	333.649	10.3547
-39.1775	337.244	10.3743
-39.17495	329.719	10.3938
-39.1735	335.543	10.41333
-39.1727	338.937	10.4329
-39.1712	333.754	10.4524
-39.1678	337.62	10.4719
-39.1672	341.8	10.4915
-39.1658	339.111	10.511
-39.1639	335.672	10.5305
-39.1622	342.697	10.55
-39.1609	343.18	10.56958
-39.16003	340.69	10.5891
-39.1577	343.181	10.6086
-39.1561	347.52	10.6282
-39.1544	341.865	10.6477
-39.1523	346.89	10.6672
-39.15	351.577	10.6868
-39.1492	346.145	10.7063
-39.1484	342.8999	10.72583
-39.146	355.467	10.7454
-39.14558	347.335	10.7649
-39.1425	347.865	10.7844
-39.1415	355.884	10.804
-39.13979	353.16	10.8235
-39.13858	346.843	10.843
-39.1368	357.932	10.8625
-39.1348	352.948	10.88208
-39.1328	351.412	10.9016
-39.13158	359.686	10.9211
-39.1305	361.487	10.9407
-39.1279	353.385	10.9602
-39.12648	359.911	10.9797
-39.1249	361.998	10.9993
-39.123	358.349	11.0188
-39.1212	361.786	11.03833
-39.1209	364.5112	11.0579
-39.11797	359.611	11.0774
-39.1168	360.929	11.0969
-39.1157	367.794	11.1165
-39.1126	363.271	11.136
-39.1119	364.129	11.1555
-39.11	368.8775	11.175
-39.1084	369.834	11.19458
-39.1062	364.123	11.2141
-39.1058	369.342	11.2336
-39.1044	371.761	11.2532
-39.1026	369.932	11.2727
-39.0998	368.838	11.2922
-39.0994	376.848	11.3118
-39.0965	369.394	11.3313
-39.0955	373.187	11.35083
-39.0934	378.96	11.3704
-39.0932	374.19	11.3899
-39.0905	370.312	11.4094
-39.08873	380.446	11.429
-39.0884	377.192	11.4485
-39.0866	374.238	11.468
-39.0844	381.4501	11.4875
-39.083	382.475	11.50708
-39.0809	374.043	11.5266
-39.0802	384.614	11.5461
-39.0779	383.263	11.5657
-39.0774	378.561	11.5852
-39.07428	386.6	11.6047
-39.0724	390.962	11.6243
-39.0719	381.67	11.6438
-39.0705	384.035	11.66333
-39.0686	390.343	11.6829
-39.0675	387.143	11.7024
-39.065	388.0961	11.7219
-39.0635	392.239	11.7415
-39.0615	391.298	11.761
-39.0598	387.342	11.7805
-39.0583	394.376	11.8
-39.0563	394.351	11.81958
-39.0543	390.902	11.8391
-39.0539	394.816	11.8586
-39.05262	398.571	11.8782
-39.0505	393.213	11.8977
-39.0473	394.959	11.9172
-39.0478	402.367	11.9368
-39.0457	398.73	11.9563
-39.0439	396.485	11.97583
-39.0422	404.9346	11.9954
-39.0406	396.647	12.0149
-39.0388	400.069	12.0344
-39.0377	406.881	12.054
-39.035	404.257	12.0735
-39.03458	397.805	12.093
-39.0328	407.933	12.1125
-39.0301	405.533	12.13208
-39.0281	402.876	12.1516
-39.0262	407.7453	12.1711
-39.0255	409.448	12.1907
-39.0248	404.936	12.2102
-39.023	409.198	12.2297
-39.0195	413.173	12.2493
-39.0185	407.051	12.2688
-39.0177	413.204	12.28833
-39.0158	415.223	12.3079
-39.015	412.069	12.3274
-39.0127	409.609	12.3469
-39.011	416.2988	12.3665
-39.0105	414.144	12.386
-39.007	415.808	12.4055
-39.0065	418.219	12.425
-39.004	418.456	12.44458
-39.0033	414.917	12.4641
-39.0016	421.648	12.4836
-38.9987	423.811	12.5032
-38.9981	417.657	12.5227
-38.9963	417.126	12.5422
-38.9944	427.355	12.5618
-38.993	420.151	12.5813
-38.9923	422.543	12.60083
-38.9902	427.264	12.6204
-38.988	425.4	12.6399
-38.9871	420.6911	12.6594
-38.9851	431.203	12.679
-38.9833	424.155	12.6985
-38.9822	423.411	12.718
-38.981	432.54	12.7375
-38.9791	432.969	12.75708
-38.9762	424.886	12.7766
-38.9761	433.4184	12.7961
-38.9729	432.997	12.8157
-38.9701	427.8	12.8352
-38.9704	432.631	12.8547
-38.9693	435.862	12.8743
-38.9665	430.7233	12.8938
-38.9668	432.5	12.91333
-38.9641	439.394	12.9329
-38.9634	433.319	12.9524
-38.9609	434.52	12.9719
-38.9597	439.967	12.9915
-38.9574	440.15	13.011
-38.9546	435.863	13.0305
-38.95388	441.895	13.05
-38.9523	441.794	13.06958
-38.9521	440.817	13.0891
-38.948	439.829	13.1086
-38.9482	444.868	13.1282
-38.9455	438.235	13.1477
-38.9427	445.249	13.1672
-38.943	449.556	13.1868
-38.9406	443.762	13.2063
-38.9396	443.06	13.22583
-38.93845	452.013	13.2454
-38.9353	445.529	13.2649
-38.9356	445.097	13.2844
-38.9331	451.437	13.304
-38.9311	450.013	13.3235
-38.9296	443.581	13.343
-38.9277	454.052	13.3625
-38.9266	451.868	13.38208
-38.9241	447.559	13.4016
-38.9238	454.816	13.4211
-38.9225	455.883	13.4407
-38.9205	449.076	13.4602
-38.9193	454.413	13.4797
-38.91708	459.349	13.4993
-38.9151	453.957	13.5188
-38.9133	457.403	13.53833
-38.9117	459.993	13.5579
-38.9103	458.336	13.5774
-38.9091	455.793	13.5969
-38.9062	463.662	13.6165
-38.9051	459.822	13.636
-38.9047	460.139	13.6555
-38.902	463.784	13.675
-38.9009	466.741	13.69458
-38.8981	457.597	13.7141
-38.8978	465.717	13.7336
-38.89587	467.45	13.7532
-38.89362	462.947	13.7727
-38.8918	463.944	13.7922
-38.8902	471.252	13.8118
-38.8895	462.885	13.8313
-38.8875	466.252	13.85083
-38.8863	473.855	13.8704
-38.8839	468.031	13.8899
-38.88253	463.618	13.9094
-38.8809	474.865	13.929
-38.8794	470.558	13.9485
-38.8783	468.294	13.968
-38.8778	475.707	13.9875
-38.8749	475.0708	14.00708
-38.8733	467.445	14.0266
-38.87167	475.849	14.0461
-38.87	476.526	14.0657
-38.8681	471.022	14.0852
-38.865	477.187	14.1047
-38.8648	479.285	14.1243
-38.86264	475.501	14.1438
-38.8618	473.325	14.16333
-38.8596	481.319	14.1829
-38.85804	477.076	14.2024
-38.8566	479.863	14.2219
-38.85532	480.5444	14.2415
-38.8533	481.385	14.261
-38.852	476.659	14.2805
-38.8506	485.045	14.3
-38.8491	485.243	14.31958
-38.8464	479.26	14.3391
-38.8446	480.552	14.3586
-38.8436	489.289	14.3782
-38.8424	481.689	14.3977
-38.8402	484.4371	14.4172
-38.839	488.644	14.4368
-38.8371	483.801	14.4563
-38.8351	483.052	14.47583
-38.8347	492.822	14.4954
-38.8319	485.256	14.5149
-38.8311	484.85	14.5344
-38.8276	493.042	14.554
-38.82695	489.8703	14.5735
-38.8261	484.774	14.593
-38.8232	494.106	14.6125
-38.82196	491.9115	14.63208
-38.82	488.073	14.6516
-38.8185	495.329	14.6711
-38.8171	494.019	14.6907
-38.8154	489.447	14.7102
-38.8134	495.152	14.7297
-38.8116	498.983	14.7493
-38.81102	490.395	14.7688
-38.8098	496.03	14.78833
-38.8081	500.369	14.8079
-38.8052	497.039	14.8274
-38.8046	495.074	14.8469
-38.8024	502.021	14.8665
-38.8008	499.007	14.886
-38.8001	498.37	14.9055
-38.7962	499.476	14.925
-38.7956	503.584	14.94458
-38.7953	495.655	14.9641
-38.7932	503.739	14.9836
-38.7908	504.381	15.0032
-38.7898	500.05	15.0227
-38.7888	498.18	15.0422
-38.7866	509.224	15.0618
-38.7852	501.762	15.0813
-38.7834	502.466	15.10083
-38.7811	510.99	15.1204
-38.7794	504.833	15.1399
-38.7782	503.285	15.1594
-38.7778	509.539	15.179
-38.7759	505.722	15.1985
-38.7735	502.5354	15.218
-38.7717	512.644	15.2375
-38.7703	508.7229	15.25708
-38.7692	503.774	15.2766
-38.7674	510.34	15.2961
-38.7646	511.848	15.3157
-38.7645	507.226	15.3352
-38.7621	510.515	15.3547
-38.76125	511.92	15.3743
-38.7596	509.236	15.3938
-38.75605	511.196	15.41333
-38.7553	515.709	15.4329
-38.7541	511.386	15.4524
-38.7525	512.534	15.4719
-38.7509	515.9068	15.4915
-38.7493	514.862	15.511
-38.7485	509.29	15.5305
-38.7451	518.242	15.55
-38.7439	518.557	15.56958
-38.7425	515.625	15.5891
-38.741	516.292	15.6086
-38.7389	520.491	15.6282
-38.738	510.562	15.6477
-38.73579	516.2	15.6672
-38.734	522.551	15.6868
-38.7327	516.375	15.7063
-38.7318	514.19	15.72583
-38.7299	524.232	15.7454
-38.7274	517.835	15.7649
-38.7264	516.0675	15.7844
-38.725	522.877	15.804
-38.723	519.805	15.8235
-38.7221	515.415	15.843
-38.7203	523.238	15.8625
-38.7177	521.817	15.88208
-38.7167	516.3446	15.9016
-38.7143	525.501	15.9211
-38.7134	524.156	15.9407
-38.7105	517.854	15.9602
-38.7099	520.629	15.9797
-38.708	526.469	15.9993
-38.7071	520.533	16.0188
-38.7038	523.518	16.03833
-38.7039	523.375	16.0579
-38.7013	523.793	16.0774
-38.7006	519.044	16.0969
-38.69838	528.288	16.1165
-38.6977	525.234	16.136
-38.6948	522.93	16.1555
-38.69331	524.914	16.175
-38.6914	531.222	16.19458
-38.6904	521.205	16.2141
-38.6888	526.243	16.2336
-38.6864	529.924	16.2532
-38.6857	525.0943	16.2727
-38.6834	524.897	16.2922
-38.6825	530.969	16.3118
-38.68	524.01	16.3313
-38.6792	524.515	16.35083
-38.6767	533.102	16.3704
-38.6763	526.678	16.3899
-38.6737	522.1004	16.4094
-38.6726	531.975	16.429
-38.671	527.473	16.4485
-38.6702	525.207	16.468
-38.6676	531.967	16.4875
-38.667	528.304	16.50708
-38.6646	524.47	16.5266
-38.6632	528.978	16.5461
-38.6607	533.078	16.5657
-38.6596	525.664	16.5852
-38.6576	531.4776	16.6047
-38.6574	531.745	16.6243
-38.6546	528.3667	16.6438
-38.653	526.784	16.66333
-38.65155	534.401	16.6829
-38.65049	530.3114	16.7024
-38.6487	528.442	16.7219
-38.6469	530.154	16.7415
-38.6442	531.361	16.761
-38.6426	527.202	16.7805
-38.6422	534.29	16.8
-38.6405	532.229	16.81958
-38.6374	527.044	16.8391
-38.6356	529.974	16.8586
-38.635	534.936	16.8782
-38.6333	528.477	16.8977
-38.6332	529.577	16.9172
-38.6297	534.251	16.9368
-38.6274	528.36	16.9563
-38.6279	526.368	16.97583
-38.6252	535.274	16.9954
-38.6238	529.564	17.0149
-38.6217	528.799	17.0344
-38.6211	535.55	17.054
-38.6177	529.205	17.0735
-38.61721	524.675	17.093
-38.6151	533.042	17.1125
-38.6139	532.8797	17.13208
-38.6113	527.224	17.1516
-38.6115	534.343	17.1711
-38.6087	532.612	17.1907
-38.607	529.272	17.2102
-38.6047	529.614	17.2297
-38.6035	535.012	17.2493
-38.6021	527.475	17.2688
-38.60117	532.315	17.28833
-38.5994	531.944	17.3079
-38.5973	531.337	17.3274
-38.5956	525.839	17.3469
-38.5922	533.8479	17.3665
-38.5918	530.589	17.386
-38.5904	530.492	17.4055
-38.5902	529.934	17.425
-38.5871	532.077	17.44458
-38.587	524.526	17.4641
-38.5847	532.02	17.4836
-38.58289	534.669	17.5032
-38.5816	528.53	17.5227
-38.5788	528.477	17.5422
-38.57893	534.404	17.5618
-38.5758	527.709	17.5813
-38.5753	528.394	17.60083
-38.5733	534.0141	17.6204
-38.5719	528.226	17.6399
-38.56942	526.257	17.6594
-38.5684	533.162	17.679
-38.5661	530.565	17.6985
-38.5653	524.5296	17.718
-38.5631	533.6	17.7375
-38.5619	529.8197	17.75708
-38.5594	525.231	17.7766
-38.5591	529.665	17.7961
-38.5578	532.8476	17.8157
-38.5555	525.719	17.8352
-38.5541	528.999	17.8547
-38.55188	529.435	17.8743
-38.5499	528.184	17.8938
-38.5486	526.249	17.91333
-38.5471	532.713	17.9329
-38.5462	527.1001	17.9524
-38.5444	525.723	17.9719
-38.5423	528.377	17.9915
-38.5408	531.024	18.011
-38.5395	521.98	18.0305
-38.5382	529.794	18.05
-38.5364	530.111	18.06958
-38.5346	525.611	18.0891
-38.5331	527.496	18.1086
-38.5303	530.094	18.1282
-38.5285	522.497	18.1477
-38.5275	526.819	18.1672
-38.5263	530.981	18.1868
-38.5245	524.451	18.2063
-38.5224	522.2312	18.22583
-38.5211	531.4129	18.2454
-38.5202	525.089	18.2649
-38.5177	523.217	18.2844
-38.5155	529.806	18.304
-38.5148	525.272	18.3235
-38.5129	524.028	18.343
-38.5116	529.6	18.3625
-38.5107	526.553	18.38208
-38.5097	521.197	18.4016
-38.5069	528.181	18.4211
-38.5049	526.207	18.4407
-38.5025	523.156	18.4602
-38.5023	523.706	18.4797
-38.50079	529.369	18.4993
-38.4975	523.705	18.5188
-38.4967	525.924	18.53833
-38.4948	526.368	18.5579
-38.494	524.851	18.5774
-38.4913	520.664	18.5969
-38.4901	528.125	18.6165
-38.4888	525.36	18.636
-38.48711	522.717	18.6555
-38.486	523.552	18.675
-38.4829	527.872	18.69458
-38.4818	519.971	18.7141
-38.4794	524.425	18.7336
-38.4793	526.591	18.7532
-38.4774	521.83	18.7727
-38.4736	523.307	18.7922
-38.4733	526.812	18.8118
-38.4728	521.06	18.8313
-38.4706	521.978	18.85083
-38.4691	528.792	18.8704
-38.4686	521.393	18.8899
-38.4665	519.533	18.9094
-38.4643	525.649	18.929
-38.4634	522.109	18.9485
-38.4594	518.7215	18.968
-38.4591	526.69	18.9875
-38.4575	522.872	19.00708
-38.4561	520.329	19.0266
-38.4539	523.219	19.0461
-38.4518	525.685	19.0657
-38.451	519.147	19.0852
-38.4503	523.0202	19.1047
-38.4475	524.611	19.1243
-38.4455	521.626	19.1438
-38.4444	518.563	19.16333
-38.4433	525.019	19.1829
-38.4408	523.096	19.2024
-38.4394	521.848	19.2219
-38.4368	522.04	19.2415
-38.4374	524.593	19.261
-38.4348	517.365	19.2805
-38.4322	524.445	19.3
-38.4315	524.115	19.31958
-38.4302	518.503	19.3391
-38.4284	520.797	19.3586
-38.4273	525.952	19.3782
-38.4243	519.311	19.3977
-38.42297	519.6524	19.4172
-38.4232	526.744	19.4368
-38.4199	517.833	19.4563
-38.4183	519.783	19.47583
-38.4178	525.919	19.4954
-38.41608	518.921	19.5149
-38.4141	517.3642	19.5344
-38.413	526.764	19.554
-38.4111	519.954	19.5735
-38.4086	518.659	19.593
-38.40749	521.982	19.6125
-38.4052	522.908	19.63208
-38.4042	518.174	19.6516
-38.4033	523.272	19.6711
-38.4017	520.7948	19.6907
-38.3991	520.96	19.7102
-38.3973	519.056	19.7297
-38.395	524.815	19.7493
-38.3942	517.79	19.7688
-38.392	519.616	19.78833
-38.3908	523.144	19.8079
-38.3889	521.472	19.8274
-38.389	515.328	19.8469
-38.3868	522.439	19.8665
-38.3843	520.483	19.886
-38.3833	517.534	19.9055
-38.3814	519.246	19.925
-38.37941	520.712	19.94458
-38.3778	515.376	19.9641
-38.37619	520.6217	19.9836
-38.3741	524.423	20.0032
-38.3733	518.1	20.0129

Data Header:			0.254_hd_uprint_typeiv_4545_r0			Time:	33.6423	s	4/13/2019 7:26:16 PM
Data Acquisition:	Timed
Station Name:	ft40.cfg
Test File Name:	monotonic_0.2540_typeiv_hd_4545_uprint.tst
Displacement	Force	Running Time
mm	N	s
-38.3743	515.38	20.0227
-38.3728	516.391	20.0325
-38.3714	516.432	20.0422
-38.371	521.558	20.052
-38.3689	523.344	20.0618
-38.3693	520.771	20.0715
-38.3684	516.86	20.0813
-38.368	511.507	20.0911
-38.367	515.562	20.10083
-38.3652	522.2312	20.1106
-38.3645	522.967	20.1204
-38.3639	520.698	20.1301
-38.3636	516.289	20.1399
-38.3628	513.918	20.1497
-38.3609	517.009	20.1594
-38.3606	519.822	20.1692
-38.3598	521.52	20.179
-38.3591	522.395	20.1887
-38.3582	517.915	20.1985
-38.3569	516.022	20.2083
-38.357	515.618	20.218
-38.3554	518.7215	20.2278
-38.3552	522.386	20.2375
-38.3537	521.0658	20.2473
-38.3543	518.923	20.25708
-38.3534	517.547	20.2668
-38.3519	516.293	20.2766
-38.351	518.87	20.2864
-38.3503	518.183	20.2961
-38.3488	522.404	20.3059
-38.3495	520.319	20.3157
-38.3493	516.645	20.3254
-38.3466	517.179	20.3352
-38.3467	514.689	20.345
-38.3442	518.34	20.3547
-38.3458	521.308	20.3645
-38.34309	518.514	20.3743
-38.3432	518.989	20.384
-38.3418	516.986	20.3938
-38.3409	515.728	20.4036
-38.3405	515.121	20.41333
-38.34063	517.225	20.4231
-38.3384	522.362	20.4329
-38.3371	519.453	20.4426
-38.3373	516.117	20.4524
-38.3369	515.022	20.4622
-38.3354	516.507	20.4719
-38.3347	519.023	20.4817
-38.334	519.4411	20.4915
-38.3332	521.322	20.5012
-38.3312	519.445	20.511
-38.3315	516.07	20.5208
-38.3305	514.507	20.5305
-38.3308	515.462	20.5403
-38.3285	517.41	20.55
-38.3277	522.196	20.5598
-38.32793	520.549	20.56958
-38.3264	513.979	20.5793
-38.3256	514.012	20.5891
-38.32428	515.967	20.5989
-38.3244	517.5943	20.6086
-38.3234	522.093	20.6184
-38.3232	520.008	20.6282
-38.3215	519.104	20.6379
-38.3213	514.76	20.6477
-38.3204	511.496	20.6575
-38.32029	515.73	20.6672
-38.31823	520.73	20.677
-38.3185	523.112	20.6868
-38.3171	516.889	20.6965
-38.3161	514.472	20.7063
-38.3166	513.543	20.7161
-38.3159	514.966	20.72583
-38.3135	520.9837	20.7356
-38.3136	520.633	20.7454
-38.3121	519.871	20.7551
-38.3119	515.739	20.7649
-38.3112	511.362	20.7747
-38.3099	512.707	20.7844
-38.3091	518.384	20.7942
-38.3071	521.5127	20.804
-38.3077	518.198	20.8137
-38.307	515.623	20.8235
-38.305	512.4079	20.8333
-38.3057	515.288	20.843
-38.3028	514.293	20.8528
-38.3028	517.612	20.8625
-38.3022	519.36	20.8723
-38.3027	518.133	20.88208
-38.2999	512.911	20.8918
-38.2999	513.537	20.9016
-38.2989	515.153	20.9114
-38.2977	518.982	20.9211
-38.29689	518.685	20.9309
-38.29628	517.478	20.9407
-38.2956	516.081	20.9504
-38.2945	515.3847	20.9602
-38.2952	515.736	20.97
-38.2925	512.799	20.9797
-38.2923	518.392	20.9895
-38.29137	519.387	20.9993
-38.2905	516.378	21.009
-38.29108	515.27	21.0188
-38.2891	511.784	21.0286
-38.2881	516.663	21.03833
-38.2872	519.37	21.0481
-38.2876	517.433	21.0579
-38.2862	518.565	21.0676
-38.2856	515.346	21.0774
-38.2842	513.74	21.0872
-38.2838	512.134	21.0969
-38.2831	513.966	21.1067
-38.2813	520.86	21.1165
-38.2803	520.299	21.1262
-38.2809	516.526	21.136
-38.2803	512.9538	21.1458
-38.2787	510.575	21.1555
-38.2787	515.61	21.1653
-38.2773	516.632	21.175
-38.27673	517.673	21.1848
-38.27549	517.663	21.19458
-38.2738	514.872	21.2043
-38.2738	512.365	21.2141
-38.2723	511.142	21.2239
-38.2729	515.311	21.2336
-38.27158	520.283	21.2434
-38.2705	519.415	21.2532
-38.2702	514.207	21.2629
-38.2697	511.577	21.2727
-38.2684	512.862	21.2825
-38.2672	516.654	21.2922
-38.2668	518.358	21.302
-38.2657	517.778	21.3118
-38.2648	517.955	21.3215
-38.2646	512.309	21.3313
-38.2642	509.934	21.3411
-38.26218	513.11	21.35083
-38.2604	517.791	21.3606
-38.2599	520.776	21.3704
-38.2604	515.081	21.3801
-38.2583	512.078	21.3899
-38.2583	511.678	21.3997
-38.2577	512.768	21.4094
-38.2555	515.779	21.4192
-38.256	516.507	21.429
-38.256	517.726	21.4387
-38.2542	515.94	21.4485
-38.2536	509.659	21.4583
-38.2531	511.862	21.468
-38.2516	515.624	21.4778
-38.2516	519.02	21.4875
-38.2496	519.134	21.4973
-38.24807	513.911	21.50708
-38.2484	512.258	21.5168
-38.2484	511.791	21.5266
-38.2469	513.876	21.5364
-38.247	514.949	21.5461
-38.2457	518.267	21.5559
-38.2454	518.389	21.5657
-38.2436	513.898	21.5754
-38.2432	511.48	21.5852
-38.2425	512.399	21.595
-38.2412	515.3	21.6047
-38.2407	517.148	21.6145
-38.2397	515.613	21.6243
-38.239	514.472	21.634
-38.2378	513.828	21.6438
-38.2369	511.28	21.6536
-38.2361	511.1528	21.66333
-38.2356	514.0636	21.6731
-38.2337	517.371	21.6829
-38.2338	517.408	21.6926
-38.2337	513.431	21.7024
-38.2339	509.263	21.7122
-38.2306	511.428	21.7219
-38.2301	515.268	21.7317
-38.2296	515.707	21.7415
-38.22929	517.953	21.7512
-38.229	513.137	21.761
-38.2279	511.975	21.7708
-38.2268	509.849	21.7805
-38.2269	508.913	21.7903
-38.2244	516.743	21.8
-38.2235	519.35	21.8098
-38.2226	517.271	21.81958
-38.2229	511.984	21.8293
-38.2213	510.483	21.8391
-38.2215	512.267	21.8489
-38.2203	514.381	21.8586
-38.2203	518.813	21.8684
-38.2183	517.792	21.8782
-38.2169	515.072	21.8879
-38.2167	510.004	21.8977
-38.215	506.8884	21.9075
-38.2151	512.807	21.9172
-38.21365	517.979	21.927
-38.2137	518.962	21.9368
-38.2125	514.536	21.9465
-38.2125	509.114	21.9563
-38.2101	509.667	21.9661
-38.2102	513.543	21.97583
-38.2097	515.502	21.9856
-38.2085	516.01	21.9954
-38.2085	515.472	22.0051
-38.2064	512.151	22.0149
-38.2067	507.512	22.0247
-38.2058	510.064	22.0344
-38.2052	514.498	22.0442
-38.20372	519.499	22.054
-38.2031	514.844	22.0637
-38.20182	510.108	22.0735
-38.201	509.6153	22.0833
-38.2008	510.626	22.093
-38.2002	514.426	22.1028
-38.1988	514.766	22.1125
-38.1968	514.963	22.1223
-38.1979	514.05	22.13208
-38.1964	509.256	22.1418
-38.1968	509.7146	22.1516
-38.1956	510.3681	22.1614
-38.194	515.499	22.1711
-38.1933	515.44	22.1809
-38.1935	511.997	22.1907
-38.19133	512.979	22.2004
-38.1898	510.911	22.2102
-38.1903	510.465	22.22
-38.1893	510.411	22.2297
-38.18742	512.527	22.2395
-38.1871	514.675	22.2493
-38.1864	513.327	22.259
-38.18504	509.182	22.2688
-38.1845	508.12	22.2786
-38.1844	510.486	22.28833
-38.1832	513.9472	22.2981
-38.1819	515.232	22.3079
-38.1817	513.925	22.3176
-38.1811	512.271	22.3274
-38.17971	510.166	22.3372
-38.1801	507.537	22.3469
-38.1788	510.269	22.3567
-38.1778	513.145	22.3665
-38.1765	516.677	22.3762
-38.1759	512.6178	22.386
-38.1752	507.074	22.3958
-38.17506	507.975	22.4055
-38.1728	511.624	22.4153
-38.174	513.8017	22.425
-38.1723	516.475	22.4348
-38.1711	513.397	22.44458
-38.1709	512.096	22.4543
-38.1704	508.027	22.4641
-38.1697	507.652	22.4739
-38.1674	512.327	22.4836
-38.1672	515.68	22.4934
-38.1662	517.306	22.5032
-38.1659	510.3432	22.5129
-38.1652	506.632	22.5227
-38.1638	509.312	22.5325
-38.1626	510.777	22.5422
-38.1621	516.251	22.552
-38.1609	514.187	22.5618
-38.1608	513.113	22.5715
-38.1608	510.875	22.5813
-38.159	505.586	22.5911
-38.1581	510.509	22.60083
-38.1571	515.0578	22.6106
-38.1562	516.113	22.6204
-38.1557	513.332	22.6301
-38.155	507.76	22.6399
-38.1552	508.796	22.6497
-38.1531	512.067	22.6594
-38.1523	512.114	22.6692
-38.1509	512.829	22.679
-38.1516	514.884	22.6887
-38.1509	512.698	22.6985
-38.1496	508.889	22.7083
-38.1484	508.111	22.718
-38.1483	510.232	22.7278
-38.147	515.1427	22.7375
-38.1462	514.527	22.7473
-38.1452	511.253	22.75708
-38.144	508.707	22.7668
-38.1426	509.126	22.7766
-38.1435	511.98	22.7864
-38.1418	510.125	22.7961
-38.1406	513.449	22.8059
-38.1404	513.857	22.8157
-38.13953	511.253	22.8254
-38.1387	509.181	22.8352
-38.1385	507.62	22.845
-38.137	511.835	22.8547
-38.1352	514.399	22.8645
-38.136	511.43	22.8743
-38.1337	511.957	22.884
-38.13385	508.946	22.8938
-38.1335	508.786	22.9036
-38.1316	509.202	22.91333
-38.1308	509.892	22.9231
-38.1295	514.643	22.9329
-38.1294	514.521	22.9426
-38.1286	509.97	22.9524
-38.1294	507.072	22.9622
-38.1271	507.198	22.9719
-38.1269	512.229	22.9817
-38.1252	513.549	22.9915
-38.1251	513.589	23.0012
-38.1243	512.13	23.011
-38.1236	511.516	23.0208
-38.1239	507.803	23.0305
-38.122	507.712	23.0403
-38.1206	513.051	23.05
-38.1194	517.468	23.0598
-38.12022	514.956	23.06958
-38.1191	508.947	23.0793
-38.1174	507.105	23.0891
-38.1166	508.681	23.0989
-38.1152	512.8916	23.1086
-38.1161	517.44	23.1184
-38.1148	513.714	23.1282
-38.1131	512.181	23.1379
-38.1125	507.518	23.1477
-38.1115	505.758	23.1575
-38.1103	510.973	23.1672
-38.1099	514.952	23.177
-38.1093	516.751	23.1868
-38.1085	511.564	23.1965
-38.1076	506.944	23.2063
-38.1072	508.015	23.2161
-38.10659	510.163	23.22583
-38.1051	515.113	23.2356
-38.1049	513.7	23.2454
-38.10413	514.686	23.2551
-38.1032	511.899	23.2649
-38.1024	506.003	23.2747
-38.1014	509.162	23.2844
-38.0996	511.354	23.2942
-38.09951	515.946	23.304
-38.0974	512.466	23.3137
-38.0976	508.179	23.3235
-38.0979	506.615	23.3333
-38.0967	509.937	23.343
-38.0959	509.887	23.3528
-38.0951	512.688	23.3625
-38.094	514.161	23.3723
-38.0938	511.902	23.38208
-38.0929	509.969	23.3918
-38.0928	506.4826	23.4016
-38.09016	508.989	23.4114
-38.08997	513.362	23.4211
-38.0888	512.863	23.4309
-38.0896	511.576	23.4407
-38.0873	509.455	23.4504
-38.0869	508.97	23.4602
-38.086	510.051	23.47
-38.0854	509.759	23.4797
-38.0837	510.764	23.4895
-38.084	512.8064	23.4993
-38.0828	513.582	23.509
-38.0812	510.34	23.5188
-38.0815	504.053	23.5286
-38.0806	509.7218	23.53833
-38.0785	513.805	23.5481
-38.0786	512.106	23.5579
-38.0776	512.569	23.5676
-38.0763	509.615	23.5774
-38.07563	509.027	23.5872
-38.0753	507.855	23.5969
-38.0735	507.1705	23.6067
-38.0736	513.781	23.6165
-38.0725	515.335	23.6262
-38.0719	513.608	23.636
-38.0702	506.841	23.6458
-38.0709	506.048	23.6555
-38.0701	510.834	23.6653
-38.0686	512.068	23.675
-38.0682	514.602	23.6848
-38.0671	511.714	23.69458
-38.0657	509.01	23.7043
-38.0657	506.428	23.7141
-38.0654	505.9892	23.7239
-38.0648	510.173	23.7336
-38.0631	516.949	23.7434
-38.062	515.356	23.7532
-38.0609	508.639	23.7629
-38.06	504.601	23.7727
-38.0594	506.791	23.7825
-38.05954	510.798	23.7922
-38.0587	513.096	23.802
-38.0577	512.831	23.8118
-38.05687	511.906	23.8215
-38.0556	507.289	23.8313
-38.0549	506.101	23.8411
-38.05444	509.396	23.85083
-38.0537	511.852	23.8606
-38.0528	517.1756	23.8704
-38.0528	510.62	23.8801
-38.05048	507.142	23.8899
-38.051	506.096	23.8997
-38.0488	509.0896	23.9094
-38.049	512.585	23.9192
-38.0477	511.9679	23.929
-38.0465	511.699	23.9387
-38.0464	509.904	23.9485
-38.0454	507.029	23.9583
-38.0444	510.468	23.968
-38.0439	508.47	23.9778
-38.0429	512.59	23.9875
-38.0414	515.001	23.9973
-38.0405	508.9649	24.00708
-38.0399	508.245	24.0168
-38.03973	508.249	24.0266
-38.0397	508.293	24.0364
-38.0374	508.654	24.0461
-38.037	510.576	24.0559
-38.03595	513.881	24.0657
-38.0344	510.774	24.0754
-38.0349	505.879	24.0852
-38.0326	505.645	24.095
-38.0329	510.202	24.1047
-38.0315	512.989	24.1145
-38.0317	512.416	24.1243
-38.0305	511.061	24.134
-38.02969	508.267	24.1438
-38.029	507.375	24.1536
-38.02813	507.947	24.16333
-38.0268	510.3848	24.1731
-38.0258	511.143	24.1829
-38.0266	514.06	24.1926
-38.0241	510.703	24.2024
-38.0241	504.276	24.2122
-38.02277	505.516	24.2219
-38.0217	510.378	24.2317
-38.022	510.313	24.2415
-38.0206	514.539	24.2512
-38.0201	508.666	24.261
-38.0178	508.641	24.2708
-38.0183	506.37	24.2805
-38.0176	504.442	24.2903
-38.0163	510.792	24.3
-38.01614	514.1626	24.3098
-38.0141	512.14	24.31958
-38.0147	507.076	24.3293
-38.0137	501.54	24.3391
-38.0127	507.864	24.3489
-38.011	509.749	24.3586
-38.0117	512.843	24.3684
-38.0092	511.844	24.3782
-38.0092	508.883	24.3879
-38.0074	507.098	24.3977
-38.0072	503.157	24.4075
-38.0079	507.906	24.4172
-38.00742	512.2655	24.427
-38.0053	512.462	24.4368
-38.0043	508.539	24.4465
-38.0019	504.365	24.4563
-38.0028	503.0849	24.4661
-38.0017	508.775	24.47583
-38.0016	511.817	24.4856
-38.0006	511.5	24.4954
-37.9995	510.051	24.5051
-37.9992	507.132	24.5149
-37.998	504.867	24.5247
-37.9975	505.912	24.5344
-37.9962	509.224	24.5442
-37.9955	513.096	24.554
-37.9949	510.48	24.5637
-37.99437	505.836	24.5735
-37.9927	505.775	24.5833
-37.9911	506.637	24.593
-37.9902	509.856	24.6028
-37.9907	509.994	24.6125
-37.98877	509.312	24.6223
-37.9895	510.435	24.63208
-37.9884	508.673	24.6418
-37.9873	505.177	24.6516
-37.987	505.105	24.6614
-37.9858	509.868	24.6711
-37.9855	513.4212	24.6809
-37.9821	509.406	24.6907
-37.9835	509.6153	24.7004
-37.9816	506.385	24.7102
-37.9812	508.292	24.72
-37.981	508.851	24.7297
-37.9791	509.251	24.7395
-37.9796	512.341	24.7493
-37.9779	512.601	24.759
-37.9777	508.1	24.7688
-37.9769	506.023	24.7786
-37.9758	507.5484	24.78833
-37.9763	511.463	24.7981
-37.9746	512.293	24.8079
-37.9735	510.522	24.8176
-37.9732	506.835	24.8274
-37.972	508.135	24.8372
-37.97084	505.917	24.8469
-37.9695	506.29	24.8567
-37.9697	510.868	24.8665
-37.9685	512.555	24.8762
-37.9676	510.074	24.886
-37.9659	504.073	24.8958
-37.9667	504.004	24.9055
-37.9646	507.309	24.9153
-37.9646	511.374	24.925
-37.9634	513.669	24.9348
-37.9631	507.992	24.94458
-37.9621	507.555	24.9543
-37.9609	503.609	24.9641
-37.9601	504.162	24.9739
-37.9597	510.433	24.9836
-37.9587	512.1264	24.9934
-37.95771	512.999	25.0032
-37.9566	507.393	25.0129
-37.9565	502.611	25.0227
-37.956	503.52	25.0325
-37.9556	508.078	25.0422
-37.9544	513.206	25.052
-37.953	510.23	25.0618
-37.9531	507.232	25.0715
-37.9513	506.73	25.0813
-37.9512	503.396	25.0911
-37.9502	506.835	25.10083
-37.9489	509.285	25.1106
-37.9486	512.8208	25.1204
-37.9476	510.286	25.1301
-37.9468	503.955	25.1399
-37.9462	504.691	25.1497
-37.9444	509.225	25.1594
-37.9445	509.23	25.1692
-37.9431	510.401	25.179
-37.9426	510.725	25.1887
-37.9418	508.254	25.1985
-37.9409	506.581	25.2083
-37.9397	506.183	25.218
-37.9391	507.582	25.2278
-37.9385	512.399	25.2375
-37.9367	509.827	25.2473
-37.9364	507.121	25.25708
-37.9351	504.468	25.2668
-37.9356	506.051	25.2766
-37.9339	508.189	25.2864
-37.9338	507.962	25.2961
-37.9325	509.388	25.3059
-37.9316	510.391	25.3157
-37.9304	509.568	25.3254
-37.93	507.234	25.3352
-37.93026	502.813	25.345
-37.9296	506.284	25.3547
-37.9272	510.986	25.3645
-37.9266	508.901	25.3743
-37.9254	509.1824	25.384
-37.9252	505.763	25.3938
[...]
-37.8836	504.011	25.9114
-37.8815	507.684	25.9211
-37.88121	509.743	25.9309
-37.88	509.124	25.9407
-37.8793	505.954	25.9504
-37.8789	504.886	25.9602
-37.877	507.306	25.97
-37.8776	504.672	25.9797
-37.8765	508.458	25.9895
-37.875	508.551	25.9993
-37.8742	509.779	26.009
-37.8733	506.023	26.0188
-37.8723	501.176	26.0286
-37.8712	503.974	26.03833
-37.87162	509.381	26.0481
-37.8692	508.9	26.0579
-37.8701	509.9057	26.0676
-37.86916	504.461	26.0774
-37.8681	503.44	26.0872
-37.8681	502.3812	26.0969
-37.8653	505.364	26.1067
-37.8661	510.014	26.1165
-37.8644	509.275	26.1262
-37.864	508.419	26.136
-37.8638	504.179	26.1458
-37.8625	500.134	26.1555
-37.8606	506.396	26.1653
-37.8606	511.719	26.175
-37.8602	510.126	26.1848
-37.8587	508.26	26.19458
-37.8582	504.227	26.2043
-37.8576	502.414	26.2141
-37.8568	503.84	26.2239
-37.8545	507.794	26.2336
-37.8546	510.8689	26.2434
-37.8533	509.99	26.2532
-37.8516	505.003	26.2629
-37.8516	502.033	26.2727
-37.851	501.952	26.2825
-37.8511	507.473	26.2922
-37.849	509.712	26.302
-37.8479	509.1	26.3118
-37.8494	506.565	26.3215
-37.8474	504.966	26.3313
-37.8462	502.616	26.3411
-37.8462	505.814	26.35083
-37.845	507.9848	26.3606
-37.843	511.185	26.3704
-37.8427	508.037	26.3801
-37.8427	503.134	26.3899
-37.8418	502.948	26.3997
-37.8412	503.6109	26.4094
-37.8396	507.708	26.4192
-37.8391	507.662	26.429
-37.83884	506.134	26.4387
-37.8374	507.372	26.4485
-37.8374	505.775	26.4583
-37.8356	503.797	26.468
-37.8347	503.503	26.4778
-37.83411	507.95	26.4875
-37.8333	509.623	26.4973
-37.8329	505.758	26.50708
-37.8321	505.18	26.5168
-37.8298	502.454	26.5266
-37.8312	504.606	26.5364
-37.8294	506.379	26.5461
-37.82827	508.439	26.5559
-37.8279	507.252	26.5657
-37.8269	506.319	26.5754
-37.8276	502.855	26.5852
-37.8256	501.49	26.595
-37.8259	504.763	26.6047
-37.8233	508.275	26.6145
-37.823	508.791	26.6243
-37.82333	507.407	26.634
-37.8206	503.2366	26.6438
-37.8204	503.884	26.6536
-37.8184	504.9194	26.66333
-37.8186	505.948	26.6731
-37.81871	507.862	26.6829
-37.8189	508.921	26.6926
-37.81575	505.876	26.7024
-37.8154	501.078	26.7122
-37.8145	501.91	26.7219
-37.815	505.257	26.7317
-37.8135	509.682	26.7415
-37.8124	510.49	26.7512
-37.8118	503.5	26.761
-37.8107	504.64	26.7708
-37.8098	502.226	26.7805
-37.8084	502.615	26.7903
-37.8089	506.869	26.8
-37.8079	510.414	26.8098
-37.8064	509.065	26.81958
-37.8061	501.79	26.8293
-37.8059	498.471	26.8391
-37.8042	502.509	26.8489
-37.8026	506.572	26.8586
-37.8024	511.137	26.8684
-37.8021	507.8168	26.8782
-37.8011	503.436	26.8879
-37.8003	501.944	26.8977
-37.7991	501.681	26.9075
-37.798	505.662	26.9172
-37.797	508.634	26.927
-37.7972	508.478	26.9368
-37.797	507.2164	26.9465
-37.7968	502.134	26.9563
-37.7947	499.4787	26.9661
-37.794	506.198	26.97583
-37.7925	510.383	26.9856
-37.7921	507.056	26.9954
-37.7898	506.57	27.0051
-37.7924	503.399	27.0149
-37.7907	502.78	27.0247
-37.7888	501.1918	27.0344
-37.7882	505.396	27.0442
-37.787	509.001	27.054
-37.786	507.941	27.0637
-37.7858	503.244	27.0735
-37.7848	502.434	27.0833
-37.7839	502.207	27.093
-37.7826	506.254	27.1028
-37.783	506.842	27.1125
-37.7814	507.5972	27.1223
-37.7809	505.814	27.13208
-37.77993	503.2789	27.1418
-37.7794	503.089	27.1516
-37.7777	500.993	27.1614
-37.7785	505.629	27.1711
-37.7766	510.557	27.1809
-37.776	505.422	27.1907
-37.7759	505.82	27.2004
-37.77475	502.06	27.2102
-37.7727	503.967	27.22
-37.7736	505.593	27.2297
-37.7709	504.243	27.2395
-37.7723	507.157	27.2493
-37.7702	508.07	27.259
-37.7695	504.225	27.2688
-37.768	500.8819	27.2786
-37.7669	501.475	27.28833
-37.76598	506.194	27.2981
-37.7658	510.521	27.3079
-37.7655	507.456	27.3176
-37.7645	503.253	27.3274
-37.7636	501.904	27.3372
-37.7621	502.815	27.3469
-37.7623	503.485	27.3567
-37.7606	507.927	27.3665
-37.7601	508.357	27.3762
-37.7601	506.874	27.386
-37.7583	500.699	27.3958
-37.75848	500.506	27.4055
-37.7562	502.259	27.4153
-37.7576	508.528	27.425
-37.7547	509.342	27.4348
-37.7555	503.005	27.44458
-37.7531	504.036	27.4543
-37.7523	502.429	27.4641
-37.7519	501.343	27.4739
-37.7504	505.1	27.4836
-37.7502	506.553	27.4934
-37.7503	510.019	27.5032
-37.7486	505.509	27.5129
-37.7492	498.948	27.5227
-37.7485	501.453	27.5325
-37.7455	504.176	27.5422
-37.7462	510.544	27.552
-37.7442	506.822	27.5618
-37.7436	503.7713	27.5715
-37.7431	503.701	27.5813
-37.7425	501.034	27.5911
-37.7421	503.96	27.60083
-37.74057	505.514	27.6106
-37.7398	507.97	27.6204
-37.7391	507.466	27.6301
-37.74	502.4838	27.6399
-37.7371	500.596	27.6497
-37.73645	502.9025	27.6594
-37.7359	506.919	27.6692
-37.7347	507.672	27.679
-37.7333	504.858	27.6887
-37.7331	504.307	27.6985
-37.7331	504.9711	27.7083
-37.7316	502.163	27.718
-37.7312	502.771	27.7278
-37.73	505.945	27.7375
-37.729	507.882	27.7473
-37.729	504.249	27.75708
-37.728	503.582	27.7668
-37.7268	502.041	27.7766
-37.7251	505.317	27.7864
-37.725	503.487	27.7961
-37.7241	505.479	27.8059
-37.7231	506.157	27.8157
-37.7233	505.415	27.8254
-37.7225	503.561	27.8352
-37.7217	498.343	27.845
-37.7205	503.019	27.8547
-37.7189	507.168	27.8645
-37.7187	506.84	27.8743
-37.7186	506.846	27.884
-37.7164	501.9166	27.8938
-37.7164	501.62	27.9036
-37.7149	502.635	27.91333
-37.715	503.5885	27.9231
-37.7138	508.743	27.9329
-37.7131	506.552	27.9426
-37.7108	503.989	27.9524
-37.7113	499.066	27.9622
-37.7116	499.0672	27.9719
-37.7085	505.132	27.9817
-37.7079	507.32	27.9915
-37.7074	507.319	28.0012
-37.7073	503.501	28.011
-37.70702	499.911	28.0208
-37.7063	501.2012	28.0305
-37.70536	502.694	28.0403
-37.7038	506.946	28.05
-37.7023	509.056	28.0598
-37.7023	505.475	28.06958
-37.7012	504.379	28.0793
-37.70129	497.5748	28.0891
-37.6997	499.953	28.0989
-37.6992	506.669	28.1086
-37.69809	507.988	28.1184
-37.6974	506.486	28.1282
-37.69735	502.491	28.1379
-37.6962	499.382	28.1477
-37.696	501.11	28.1575
-37.6932	503.59	28.1672
-37.6928	506.08	28.177
-37.6937	508.136	28.1868
-37.6917	504.36	28.1965
-37.69128	499.27	28.2063
-37.6903	499.485	28.2161
-37.6889	503.376	28.22583
-37.6894	506.139	28.2356
-37.6885	505.925	28.2454
-37.6874	504.486	28.2551
-37.6871	502.723	28.2649
-37.6862	500.2305	28.2747
-37.6852	502.816	28.2844
-37.6837	502.6431	28.2942
-37.6827	506.497	28.304
-37.6822	507.501	28.3137
-37.6807	500.946	28.3235
-37.6812	500.574	28.3333
-37.6792	500.244	28.343
-37.679	504.467	28.3528
-37.6785	504.9429	28.3625
-37.6782	504.581	28.3723
-37.6786	503.9227	28.38208
-37.6761	503.906	28.3918
-37.6747	500.615	28.4016
-37.674	500.074	28.4114
-37.6734	502.905	28.4211
-37.6723	505.913	28.4309
-37.6719	506.014	28.4407
-37.6696	502.583	28.4504
-37.6693	498.817	28.4602
-37.669	500.316	28.47
-37.6681	501.13	28.4797
-37.6672	504.105	28.4895
-37.6659	506.683	28.4993
-37.6664	507.248	28.509
-37.6647	503.011	28.5188
-37.664	498.133	28.5286
-37.6623	499.761	28.53833
-37.6625	503.644	28.5481
-37.6617	506.905	28.5579
-37.6623	506.123	28.5676
-37.6601	499.631	28.5774
-37.6594	499.571	28.5872
-37.6593	500.891	28.5969
-37.6582	500.496	28.6067
-37.6559	506.685	28.6165
-37.6565	505.487	28.6262
-37.655	505.436	28.636
-37.6549	497.591	28.6458
-37.6537	496.134	28.6555
-37.6521	501.223	28.6653
-37.6512	506.208	28.675
-37.6514	506.989	28.6848
-37.65	503.978	28.69458
-37.6501	498.545	28.7043
-37.649	499.558	28.7141
-37.6475	500.052	28.7239
-37.6477	502.469	28.7336
-37.6459	506.267	28.7434
-37.645	505.4006	28.7532
-37.6452	502.082	28.7629
-37.644	496.241	28.7727
-37.6435	498.753	28.7825
-37.6423	504.199	28.7922
-37.6413	506.71	28.802
-37.641	505.036	28.8118
-37.6398	501.635	28.8215
-37.639	498.862	28.8313
-37.6383	500.549	28.8411
-37.6382	501.271	28.85083
-37.6368	500.979	28.8606
-37.6365	506.258	28.8704
-37.6351	505.174	28.8801
-37.63483	499.1925	28.8899
-37.63353	498.677	28.8997
-37.6318	499.033	28.9094
-37.6317	504.629	28.9192
-37.6307	504.0636	28.929
-37.6303	501.12	28.9387
-37.6295	501.217	28.9485
-37.62891	498.009	28.9583
-37.62851	499.256	28.968
-37.6275	498.844	28.9778
-37.6267	503.068	28.9875
-37.62553	506.157	28.9973
-37.6246	501.58	29.00708
-37.6242	500.242	29.0168
-37.623	496.662	29.0266
-37.6228	499.507	29.0364
-37.6215	503.236	29.0461
-37.6204	501.533	29.0559
-37.6194	504.947	29.0657
-37.6187	501.153	29.0754
-37.6182	498.852	29.0852
-37.6172	498.784	29.095
-37.6163	497.402	29.1047
-37.615	503.958	29.1145
-37.6143	505.336	29.1243
-37.6136	501.287	29.134
-37.6138	498.09	29.1438
-37.6112	497.901	29.1536
-37.6116	499.559	29.16333
-37.6109	500.24	29.1731
-37.6106	503.886	29.1829
-37.6084	504.369	29.1926
-37.6083	501.79	29.2024
-37.6068	498.231	29.2122
-37.6061	496.659	29.2219
-37.605	499.482	29.2317
-37.605	504.869	29.2415
-37.6038	505.882	29.2512
-37.6029	498.773	29.261
-37.6017	497.975	29.2708
-37.6024	497.031	29.2805
-37.5999	496.972	29.2903
-37.6002	504.681	29.3
-37.6001	501.684	29.3098
-37.5986	505.475	29.31958
-37.5974	498.297	29.3293
-37.5966	493.397	29.3391
-37.597	498.015	29.3489
-37.59523	500.256	29.3586
-37.59494	504.914	29.3684
-37.5937	500.836	29.3782
-37.5929	496.124	29.3879
-37.5921	496.385	29.3977
-37.5912	497.898	29.4075
-37.5894	499.911	29.4172
-37.59042	503.3	29.427
-37.5895	504.25	29.4368
-37.5879	501.557	29.4465
-37.5873	495.355	29.4563
-37.5862	495.502	29.4661
-37.5857	499.732	29.47583
-37.5837	503.021	29.4856
-37.5838	503.387	29.4954
-37.5824	499.342	29.5051
-37.5813	497.289	29.5149
-37.5812	497.85	29.5247
-37.581	498.393	29.5344
-37.58012	498.566	29.5442
-37.58	502.0994	29.554
-37.5785	503.074	29.5637
-37.5779	499.909	29.5735
-37.57655	496.479	29.5833
-37.5744	496.469	29.593
-37.5747	500.613	29.6028
-37.574	500.219	29.6125
-37.5733	501.634	29.6223
-37.5724	498.584	29.63208
-37.5725	497.461	29.6418
-37.5712	497.21	29.6516
-37.57053	494.672	29.6614
-37.5688	498.981	29.6711
-37.5683	502.441	29.6809
-37.5672	502.3	29.6907
-37.5671	499.714	29.7004
-37.5655	494.87	29.7102
-37.5654	498.748	29.72
-37.5643	499.612	29.7297
-37.5635	499.049	29.7395
-37.5623	503.245	29.7493
-37.5614	500.705	29.759
-37.5614	498.146	29.7688
-37.5611	494.3559	29.7786
-37.5584	494.669	29.78833
-37.5584	499.582	29.7981
-37.5575	502.833	29.8079
-37.5567	501.687	29.8176
-37.5555	496.071	29.8274
-37.5562	494.525	29.8372
-37.5542	497.4552	29.8469
-37.5543	498.054	29.8567
-37.5533	500.876	29.8665
-37.5513	502.193	29.8762
-37.5506	499.823	29.886
-37.5509	494.136	29.8958
-37.5494	491.608	29.9055
-37.5479	495.078	29.9153
-37.5489	501.425	29.925
-37.5465	501.656	29.9348
-37.546	496.853	29.94458
-37.5458	494.222	29.9543
-37.54604	492.695	29.9641
-37.544	494.547	29.9739
-37.543	498.43	29.9836
-37.5422	498.809	29.9934
-37.5406	500.272	30.0032
-37.5405	495.636	30.0129
-37.5388	491.863	30.0227
-37.5387	493.782	30.0325
-37.5387	497.704	30.0422
-37.5365	503.042	30.052
-37.5375	499.216	30.0618
-37.5355	495.044	30.0715
-37.5347	493.43	30.0813
-37.5349	494.016	30.0911
-37.5321	495.628	30.10083
-37.5318	496.387	30.1106
-37.5322	498.565	30.1204
-37.532	499.515	30.1301
-37.5303	492.375	30.1399
-37.5291	493.199	30.1497
-37.5275	492.503	30.1594
-37.5279	496.213	30.1692
-37.5256	498.864	30.179
-37.5246	494.455	30.1887
-37.5242	493.423	30.1985
-37.5242	494.808	30.2083
-37.5235	492.055	30.218
-37.5217	493.064	30.2278
-37.5216	495.146	30.2375
-37.521	497.232	30.2473
-37.5188	497.083	30.25708
-37.5199	492.779	30.2668
-37.5184	489.359	30.2766
-37.5174	492.446	30.2864
-37.517	493.906	30.2961
-37.5166	495.017	30.3059
-37.5146	495.641	30.3157
-37.5153	493.606	30.3254
-37.5133	490.4996	30.3352
-37.5134	487.868	30.345
-37.5114	490.867	30.3547
-37.5105	495.572	30.3645
-37.5106	496.232	30.3743
-37.5095	495.9227	30.384
-37.5082	488.089	30.3938
-37.5082	488.901	30.4036
-37.5073	490.0556	30.41333
-37.5065	490.995	30.4231
-37.5054	496.277	30.4329
-37.5052	493.894	30.4426
-37.5048	492.42	30.4524
-37.503	486.668	30.4622
-37.5023	485.045	30.4719
-37.5013	489.242	30.4817
-37.5006	494.398	30.4915
-37.4999	494.107	30.5012
-37.4997	487.407	30.511
-37.4981	484.785	30.5208
-37.497	488.248	30.5305
-37.4968	488.683	30.5403
-37.4948	491.664	30.55
-37.495	491.358	30.5598
-37.4954	490.209	30.56958
-37.4936	485.957	30.5793
-37.4928	481.03	30.5891
-37.4907	483.16	30.5989
-37.4903	488.824	30.6086
-37.4903	490.649	30.6184
-37.4889	486.425	30.6282
-37.4888	480.812	30.6379
-37.4873	476.398	30.6477
-37.487	478.325	30.6575
-37.48502	477.1	30.6672
-37.4807	-149.842	30.677
-37.4804	-45.72113	30.6868
-37.4808	-35.849	30.6965
-37.4817	-32.4576	30.7063
-37.4795	-47.1343	30.7161
-37.479	-49.4531	30.72583
-37.4793	-37.3499	30.7356
-37.4782	-39.02182	30.7454
-37.4771	-42.55159	30.7551
-37.4774	-46.9095	30.7649
-37.4764	-45.3597	30.7747
-37.4755	-44.424	30.7844
-37.4756	-44.0922	30.7942
-37.47393	-41.2845	30.804
-37.4747	-39.6488	30.8137
-37.4717	-45.43	30.8235
-37.47168	-45.4519	30.8333
-37.4708	-46.9835	30.843
-37.47	-43.9205	30.8528
-37.4697	-42.0662	30.8625
-37.46806	-44.0514	30.8723
-37.4678	-43.3011	30.88208
-37.46767	-43.9191	30.8918
-37.4657	-47.7878	30.9016
-37.466	-46.1146	30.9114
-37.4641	-45.8199	30.9211
-37.4639	-40.8539	30.9309
-37.4626	-40.1449	30.9407
-37.4615	-43.30867	30.9504
-37.4606	-45.2278	30.9602
-37.4611	-46.5693	30.97
-37.4602	-43.6573	30.9797
-37.4589	-41.1492	30.9895
-37.4592	-40.4632	30.9993
-37.4575	-42.1085	31.009
-37.4563	-44.1623	31.0188
-37.4548	-48.3402	31.0286
-37.4554	-45.6442	31.03833
-37.4534	-42.3347	31.0481
-37.453	-36.5995	31.0579
-37.452	-39.4152	31.0676
-37.4525	-45.3701	31.0774
-37.4507	-48.1876	31.0872
-37.4501	-45.0973	31.0969
-37.4496	-44.8216	31.1067
-37.4484	-38.6121	31.1165
-37.4476	-42.9636	31.1262
-37.4464	-39.5701	31.136
-37.4462	-47.1627	31.1458
-37.4446	-48.5918	31.1555
-37.4442	-44.5275	31.1653
-37.4439	-39.3789	31.175
-37.4421	-39.06229	31.1848
-37.4421	-41.7661	31.19458
-37.4421	-46.8139	31.2043
-37.43969	-45.9773	31.2141
-37.4382	-45.8853	31.2239
-37.4384	-42.1389	31.2336
-37.4374	-41.3027	31.2434
-37.4373	-41.7721	31.2532
-37.4368	-42.386	31.2629
-37.4344	-49.0647	31.2727
-37.434	-47.105	31.2825
-37.4346	-42.3557	31.2922
-37.43362	-38.8106	31.302
-37.4318	-40.1388	31.3118
-37.4316	-44.6934	31.3215
-37.4307	-48.213	31.3313
-37.4292	-44.77177	31.3411
-37.4298	-45.5141	31.35083
-37.4291	-45.239	31.3606
-37.42728	-40.3006	31.3704
-37.425	-43.0086	31.3801
-37.4251	-45.3302	31.3899
-37.4255	-45.7375	31.3997
-37.4227	-49.5067	31.4094
-37.4228	-41.3729	31.4192
-37.423	-42.0874	31.429
-37.42067	-43.2957	31.4387
-37.4205	-43.6179	31.4485
-37.4192	-45.6664	31.4583
-37.4198	-44.3048	31.468
-37.4178	-46.0129	31.4778
-37.4183	-42.7726	31.4875
-37.4165	-39.76902	31.4973
-37.4158	-41.6746	31.50708
-37.4156	-43.7361	31.5168
-37.414	-47.8762	31.5266
-37.4131	-45.6985	31.5364
-37.413	-40.8653	31.5461
-37.4122	-43.7598	31.5559
-37.4109	-41.4835	31.5657
-37.4113	-44.3271	31.5754
-37.4099	-45.8734	31.5852
-37.4086	-46.2608	31.595
-37.4082	-47.1217	31.6047
-37.4072	-42.7313	31.6145
-37.4052	-39.5437	31.6243
-37.40527	-42.76	31.634
-37.4052	-46.6243	31.6438
-37.4033	-48.257	31.6536
-37.403	-45.17408	31.66333
-37.4022	-43.8242	31.6731
-37.3997	-38.9376	31.6829
-37.4017	-41.5842	31.6926
-37.3993	-42.9519	31.7024
-37.3983	-46.1462	31.7122
-37.3992	-49.1204	31.7219
-37.39666	-46.2049	31.7317
-37.3959	-39.4497	31.7415
-37.3953	-38.2948	31.7512
-37.3956	-45.3089	31.761
-37.3937	-48.44088	31.7708
-37.3928	-49.6289	31.7805
-37.3924	-44.4478	31.7903
-37.3917	-41.2219	31.8
-37.39	-41.92902	31.8098
-37.389	-40.2241	31.81958
-37.3897	-44.4862	31.8293
-37.3883	-48.9196	31.8391
-37.3863	-44.1212	31.8489
-37.38744	-42.7411	31.8586
-37.3865	-38.2913	31.8684
-37.3847	-42.6112	31.8782
-37.3836	-46.98811	31.8879
-37.3822	-47.9214	31.8977
-37.3832	-46.694	31.9075
-37.3816	-41.9872	31.9172
-37.3796	-42.4435	31.927
-37.3806	-41.5925	31.9368
-37.3801	-42.2507	31.9465
-37.37817	-47.5172	31.9563
-37.3771	-45.9584	31.9661
-37.3764	-45.9941	31.97583
-37.3759	-42.2295	31.9856
-37.3751	-40.0583	31.9954
-37.374	-43.4865	32.0051
-37.3734	-44.28315	32.0149
-37.3734	-46.7177	32.0247
-37.3725	-45.9873	32.0344
-37.3709	-43.6679	32.0442
-37.371	-43.2891	32.054
-37.3698	-40.2561	32.0637
-37.3685	-41.8386	32.0735
-37.3674	-46.916	32.0833
-37.3672	-47.4186	32.093
-37.3665	-43.1803	32.1028
-37.3648	-42.06567	32.1125
-37.3641	-42.7676	32.1223
-37.3639	-42.1202	32.13208
-37.36298	-43.5215	32.1418
-37.3624	-43.8779	32.1516
-37.3616	-46.2697	32.1614
-37.3601	-44.4069	32.1711
-37.359	-40.1653	32.1809
-37.3587	-40.5318	32.1907
-37.3585	-42.2118	32.2004
-37.3577	-48.1554	32.2102
-37.3566	-47.98653	32.22
-37.35601	-42.4958	32.2297
-37.3543	-42.95129	32.2395
-37.3546	-39.0621	32.2493
-37.3534	-43.66386	32.259
-37.3524	-44.127	32.2688
-37.3517	-47.4303	32.2786
-37.3504	-49.5224	32.28833
-37.3502	-42.6351	32.2981
-37.3495	-37.5531	32.3079
-37.348	-40.1352	32.3176
-37.3468	-45.7636	32.3274
-37.3466	-49.0159	32.3372
-37.347	-44.782	32.3469
-37.3441	-43.4391	32.3567
-37.3443	-41.2225	32.3665
-37.3444	-40.9741	32.3762
-37.3428	-41.1838	32.386
-37.342	-45.899	32.3958
-37.3412	-47.8809	32.4055
-37.341	-44.9473	32.4153
-37.3411	-40.5233	32.425
-37.3383	-39.1881	32.4348
-37.3381	-43.4632	32.44458
-37.3362	-45.5744	32.4543
-37.3364	-48.9401	32.4641
-37.3354	-43.6517	32.4739
-37.3348	-42.0908	32.4836
-37.3338	-43.2146	32.4934
-37.33321	-40.9969	32.5032
-37.33279	-44.734	32.5129
-37.3308	-48.11195	32.5227
-37.3296	-46.1754	32.5325
-37.3286	-44.87	32.5422
-37.32782	-38.87965	32.552
-37.3284	-40.9392	32.5618
-37.3272	-46.69022	32.5715
-37.3267	-46.2075	32.5813
-37.3245	-48.0748	32.5911
-37.32436	-44.5442	32.60083
-37.3241	-43.3428	32.6106
-37.3231	-42.51561	32.6204
-37.321	-41.5398	32.6301
-37.3216	-45.5616	32.6399
-37.3193	-46.4668	32.6497
-37.3189	-45.7269	32.6594
-37.3193	-43.883	32.6692
-37.3184	-41.5449	32.679
-37.316	-44.294	32.6887
-37.3167	-43.7487	32.6985
-37.3154	-45.5127	32.7083
-37.3152	-45.4719	32.718
-37.3136	-45.9173	32.7278
-37.3139	-43.1813	32.7375
-37.31221	-40.5753	32.7473
-37.311	-41.1033	32.75708
-37.3114	-44.9695	32.7668
-37.31041	-47.8289	32.7766
-37.3098	-47.2831	32.7864
-37.3083	-42.8554	32.7961
-37.30764	-40.781	32.8059
-37.30727	-42.7063	32.8157
-37.3064	-43.2723	32.8254
-37.30611	-44.7688	32.8352
-37.3042	-49.4836	32.845
-37.3038	-46.8699	32.8547
-37.3028	-41.9586	32.8645
-37.3031	-37.9355	32.8743
-37.3011	-40.9957	32.884
-37.3009	-47.2083	32.8938
-37.2988	-48.79	32.9036
-37.2985	-45.6508	32.91333
-37.2971	-42.2052	32.9231
-37.2972	-40.3325	32.9329
-37.2968	-43.1134	32.9426
-37.2955	-42.8633	32.9524
-37.2945	-46.40242	32.9622
-37.2943	-48.2284	32.9719
-37.2943	-44.3442	32.9817
-37.2924	-39.755	32.9915
-37.2918	-39.2928	33.0012
-37.291	-44.31311	33.011
-37.291	-49.4873	33.0208
-37.2887	-46.6174	33.0305
-37.2884	-44.7627	33.0403
-37.2879	-40.7826	33.05
-37.2876	-41.3189	33.0598
-37.2852	-43.66272	33.06958
-37.2846	-45.317	33.0793
-37.2839	-49.9855	33.0891
-37.2833	-47.5473	33.0989
-37.283	-42.551	33.1086
-37.28178	-38.8602	33.1184
-37.281	-42.3857	33.1282
-37.2803	-47.0661	33.1379
-37.2785	-47.7737	33.1477
-37.2781	-44.4487	33.1575
-37.277	-43.7336	33.1672
-37.2771	-43.7028	33.177
-37.2757	-41.484	33.1868
-37.2736	-43.8374	33.1965
-37.2736	-45.9491	33.2063
-37.2734	-46.1938	33.2161
-37.2721	-46.3802	33.22583
-37.2713	-39.329	33.2356
-37.27179	-42.0108	33.2454
-37.2708	-43.4238	33.2551
-37.2698	-47.1663	33.2649
-37.268	-47.5977	33.2747
-37.2666	-45.132	33.2844
-37.2671	-44.7281	33.2942
-37.2661	-43.7683	33.304
-37.2645	-40.9274	33.3137
-37.2649	-43.34605	33.3235
-37.2641	-46.6429	33.3333
-37.2625	-47.6362	33.343
-37.2618	-44.5171	33.3528
-37.2607	-40.49284	33.3625
-37.2602	-42.5597	33.3723
-37.2599	-41.9158	33.38208
-37.258	-45.3097	33.3918
-37.2582	-45.5113	33.4016
-37.2569	-46.9038	33.4114
-37.2564	-46.5441	33.4211
-37.2549	-42.3337	33.4309
-37.2553	-39.3069	33.4407
-37.25404	-42.9598	33.4504
-37.2534	-47.9547	33.4602
-37.2523	-48.0437	33.47
-37.2509	-43.9146	33.4797
-37.2509	-41.5044	33.4895
-37.24934	-39.3508	33.4993
-37.2488	-40.2685	33.509
-37.2486	-43.7046	33.5188
-37.24789	-49.1953	33.5286
-37.2475	-45.4188	33.53833
-37.24641	-42.99	33.5481
-37.2445	-39.4087	33.5579
-37.2435	-39.878	33.5676
-37.2438	-47.3018	33.5774
-37.2423	-48.92495	33.5872
-37.2424	-46.0698	33.5969
-37.2409	-42.7331	33.6067
-37.2415	-40.3223	33.6165
-37.2389	-42.3412	33.6262
-37.2383	-42.46806	33.636