File: data/processed_data_files/tensile/0.254_solid_dimension_typeiv_4545_r(2).dat
MTS793|BTW|ENU|1|2|.|/|:|1|0|0|A

Data Header:			0.254_solid_dimension_typeiv_4545_r0			Time:	20.0188	s	4/13/2019 8:35:16 PM
Data Acquisition:	Timed
Station Name:	ft40.cfg
Test File Name:	monotonic_0.2540_typeiv_solid_4545_dimension.tst
Displacement	Force	Running Time
mm	N	s
-40.0351	-189.997	0.0224609
-40.03437	-192.085	0.0419922
-40.0345	-194.433	0.0615234
-40.03426	-190.545	0.0810547
-40.0317	-185.478	0.100586
-40.02932	-192.72	0.120117
-40.0281	-188.116	0.139648
-40.0265	-185.679	0.15918
-40.0258	-184.423	0.178711
-40.0236	-185.614	0.198242
-40.022	-180.197	0.217773
-40.0206	-183.239	0.237305
-40.0195	-182.174	0.256836
-40.0173	-180.513	0.276367
-40.0152	-175.855	0.295898
-40.0148	-180.389	0.31543
-40.0118	-177.948	0.334961
-40.01152	-173.932	0.354492
-40.0089	-173.5092	0.374023
-40.0075	-174.95	0.393555
-40.0059	-169.728	0.413086
-40.0037	-170.403	0.432617
-40.0019	-172.0645	0.452148
-40.0006	-166.1461	0.47168
-39.9997	-167.238	0.491211
-39.9977	-169.44	0.510742
-39.9958	-163.492	0.530273
-39.9946	-159.992	0.549805
-39.9931	-167.881	0.569336
-39.9907	-162.398	0.588867
-39.9903	-157.568	0.608398
-39.9874	-161.884	0.62793
-39.9869	-160.158	0.647461
-39.9849	-153.947	0.666992
-39.9837	-160.359	0.686523
-39.9815	-154.769	0.706055
-39.979	-151.463	0.725586
-39.9784	-154.624	0.745117
-39.9772	-154.435	0.764648
-39.97506	-145.736	0.78418
-39.9739	-150.278	0.803711
-39.9723	-150.957	0.823242
-39.9708	-147.496	0.842773
-39.9678	-145.026	0.862305
-39.9669	-144.819	0.881836
-39.9663	-141.772	0.901367
-39.963	-143.383	0.920898
-39.9631	-144.113	0.94043
-39.9604	-141.33	0.959961
-39.95821	-136.324	0.979492
-39.9567	-140.582	0.999023
-39.9559	-140.677	1.01855
-39.9539	-134.669	1.03809
-39.9524	-134.44	1.05762
-39.9506	-136.719	1.07715
-39.9501	-132.694	1.09668
-39.9474	-129.132	1.11621
-39.9464	-132.933	1.13574
-39.9448	-129.142	1.15527
-39.943	-125.898	1.1748
-39.9406	-129.97	1.19434
-39.9387	-125.186	1.21387
-39.9386	-119.514	1.2334
-39.93438	-126.08	1.25293
-39.934	-123.262	1.27246
-39.9335	-118.685	1.29199
-39.931	-121.455	1.31152
-39.9285	-119.744	1.33105
-39.9284	-114.15	1.35059
-39.9271	-120.9049	1.37012
-39.9252	-116.863	1.38965
-39.923	-111.421	1.40918
-39.9222	-111.5	1.42871
-39.9195	-115.548	1.44824
-39.9174	-108.762	1.46777
-39.9153	-109.113	1.4873
-39.9148	-108.537	1.50684
-39.91288	-108.806	1.52637
-39.9121	-104.016	1.5459
-39.90847	-105.405	1.56543
-39.9085	-102.2633	1.58496
-39.9071	-100.905	1.60449
-39.9057	-103.15	1.62402
-39.9031	-104.302	1.64355
-39.9015	-96.4804	1.66309
-39.9013	-97.5747	1.68262
-39.8995	-99.7917	1.70215
-39.8967	-94.1403	1.72168
-39.8951	-92.9023	1.74121
-39.8938	-94.9842	1.76074
-39.8907	-92.8728	1.78027
-39.891	-88.1473	1.7998
-39.8898	-94.0823	1.81934
-39.8887	-87.1959	1.83887
-39.8849	-84.387	1.8584
-39.8839	-90.977	1.87793
-39.8823	-86.6803	1.89746
-39.8811	-79.4611	1.91699
-39.8781	-85.5359	1.93652
-39.8772	-83.362	1.95605
-39.8758	-81.00174	1.97559
-39.8736	-79.939	1.99512
-39.8722	-78.8109	2.01465
-39.8714	-73.6967	2.03418
-39.8694	-78.0467	2.05371
-39.868	-77.0714	2.07324
-39.8667	-72.9656	2.09277
-39.8645	-69.2059	2.1123
-39.8636	-74.8636	2.13184
-39.8608	-70.7007	2.15137
-39.8595	-68.8929	2.1709
-39.8577	-69.5853	2.19043
-39.857	-68.3469	2.20996
-39.8551	-63.9909	2.22949
-39.8536	-66.0331	2.24902
-39.85054	-63.6786	2.26855
-39.8494	-61.3217	2.28809
-39.847	-63.019	2.30762
-39.8472	-62.3999	2.32715
-39.8441	-56.8763	2.34668
-39.84285	-55.2611	2.36621
-39.8418	-61.63155	2.38574
-39.8391	-55.4374	2.40527
-39.8383	-52.6077	2.4248
-39.83651	-55.1832	2.44434
-39.8351	-53.1035	2.46387
-39.83437	-48.112	2.4834
-39.8313	-54.8785	2.50293
-39.8304	-47.9187	2.52246
-39.8287	-44.8745	2.54199
-39.8261	-47.488	2.56152
-39.8249	-47.4586	2.58105
-39.823	-39.5364	2.60059
-39.8215	-43.1948	2.62012
-39.8213	-42.9317	2.63965
-39.8192	-40.2567	2.65918
-39.81731	-36.6338	2.67871
-39.8152	-39.1715	2.69824
-39.8144	-33.26825	2.71777
-39.8129	-37.8017	2.7373
-39.8105	-37.9853	2.75684
-39.8088	-34.04467	2.77637
-39.8063	-30.4954	2.7959
-39.8065	-34.0661	2.81543
-39.8032	-32.7041	2.83496
-39.8025	-30.1971	2.85449
-39.8005	-29.5989	2.87402
-39.7997	-30.2573	2.89355
-39.7977	-25.2174	2.91309
-39.7964	-26.01893	2.93262
-39.7951	-26.5787	2.95215
-39.7935	-21.7587	2.97168
-39.7907	-20.9103	2.99121
-39.7893	-24.83152	3.01074
-39.78796	-20.3377	3.03027
-39.78598	-14.2395	3.0498
-39.78492	-21.8077	3.06934
-39.7827	-17.3512	3.08887
-39.7813	-14.6963	3.1084
-39.779	-15.62037	3.12793
-39.7784	-14.7182	3.14746
-39.7767	-7.58649	3.16699
-39.7749	-16.4045	3.18652
-39.7745	-9.83697	3.20605
-39.7717	-8.02602	3.22559
-39.76981	-6.718204	3.24512
-39.7694	-9.372016	3.26465
-39.7674	-2.13786	3.28418
-39.765	-5.2859	3.30371
-39.7634	-2.73522	3.32324
-39.763	-1.68604	3.34277
-39.7599	0.445683	3.3623
-39.7578	-0.909114	3.38184
-39.7561	4.075211	3.40137
-39.7549	3.45995	3.4209
-39.7539	1.769461	3.44043
-39.7518	1.95713	3.45996
-39.7499	8.81396	3.47949
-39.7495	7.79589	3.49902
-39.7483	6.58696	3.51855
-39.7456	10.5427	3.53809
-39.7432	11.4257	3.55762
-39.7423	8.7546	3.57715
-39.7414	13.5845	3.59668
-39.7393	15.7499	3.61621
-39.7385	10.4005	3.63574
-39.73547	20.3102	3.65527
-39.7342	20.2426	3.6748
-39.7325	15.6674	3.69434
-39.7309	18.3233	3.71387
-39.7293	26.5409	3.7334
-39.7271	17.5372	3.75293
-39.7256	24.6157	3.77246
-39.7254	25.5414	3.79199
-39.7238	24.3266	3.81152
-39.7213	25.7878	3.83105
-39.7197	32.6953	3.85059
-39.7183	25.5325	3.87012
-39.7165	30.2715	3.88965
-39.715	33.3684	3.90918
-39.7131	34.7444	3.92871
-39.7097	31.4837	3.94824
-39.7095	38.1264	3.96777
-39.7092	35.2537	3.9873
-39.7066	36.2564	4.00684
-39.7047	37.1394	4.02637
-39.7044	41.6149	4.0459
-39.7017	36.553	4.06543
-39.6992	41.3965	4.08496
-39.6981	44.91114	4.10449
-39.6966	42.4389	4.12402
-39.6954	42.992	4.14355
-39.6935	48.8865	4.16309
-39.6912	49.9085	4.18262
-39.69038	46.1554	4.20215
-39.6881	51.138	4.22168
-39.6881	51.7693	4.24121
-39.6847	49.2215	4.26074
-39.6832	55.66547	4.28027
-39.6825	55.9539	4.2998
-39.6815	49.7477	4.31934
-39.6795	59.2677	4.33887
-39.6772	61.1301	4.3584
-39.6752	56.20108	4.37793
-39.6743	59.0329	4.39746
-39.6722	65.4179	4.41699
-39.6704	59.1968	4.43652
-39.66898	63.7281	4.45605
-39.6672	65.4716	4.47559
-39.66584	66.6846	4.49512
-39.6636	65.1861	4.51465
-39.6633	72.2116	4.53418
-39.6623	67.56929	4.55371
-39.6594	68.0547	4.57324
-39.6581	71.2121	4.59277
-39.6553	75.58017	4.6123
-39.6549	70.8338	4.63184
-39.6519	75.7046	4.65137
-39.6516	77.385	4.6709
-39.64941	76.5507	4.69043
-39.6482	78.4464	4.70996
-39.6468	82.32943	4.72949
-39.6443	80.1145	4.74902
-39.6433	81.0076	4.76855
-39.6408	85.5247	4.78809
-39.6394	83.3346	4.80762
-39.6386	82.5037	4.82715
-39.6369	87.0751	4.84668
-39.6353	89.9062	4.86621
-39.6328	85.70388	4.88574
-39.6317	90.34375	4.90527
-39.6296	91.3513	4.9248
-39.6287	90.6141	4.94434
-39.6268	94.1265	4.96387
-39.6258	98.3798	4.9834
-39.6233	89.96283	5.00293
-39.6239	97.8913	5.02246
-39.6201	100.045	5.04199
-39.6178	97.6172	5.06152
-39.6165	98.4037	5.08105
-39.6156	104.346	5.10059
-39.6144	100.233	5.12012
-39.6126	103.258	5.13965
-39.6106	105.296	5.15918
-39.6095	105.936	5.17871
-39.60667	104.964	5.19824
-39.6056	112.698	5.21777
-39.6047	109.3067	5.2373
-39.6014	108.1963	5.25684
-39.6014	110.164	5.27637
-39.599	114.459	5.2959
-39.5972	111.91	5.31543
-39.5961	114.693	5.33496
-39.594	115.8	5.35449
-39.5932	116.393	5.37402
-39.5904	115.6348	5.39355
-39.59005	121.697	5.41309
-39.5885	121.228	5.43262
-39.587	117.381	5.45215
-39.584	123.971	5.47168
-39.5826	125.273	5.49121
-39.5808	121.815	5.51074
-39.5789	125.275	5.53027
-39.578	131.244	5.5498
-39.5754	124.025	5.56934
-39.5739	131.129	5.58887
-39.5735	132.148	5.6084
-39.572	128.067	5.62793
-39.57	132.573	5.64746
-39.56778	138.238	5.66699
-39.5662	130.139	5.68652
-39.563	134.664	5.70605
-39.5632	138.707	5.72559
-39.5617	137.729	5.74512
-39.5609	137.092	5.76465
-39.5573	143.9731	5.78418
-39.5573	140.721	5.80371
-39.5555	142.127	5.82324
-39.55323	145.1837	5.84277
-39.551	147.02	5.8623
-39.5508	143.0179	5.88184
-39.5488	149.32	5.90137
-39.5474	149.915	5.9209
-39.546	147.937	5.94043
-39.5445	149.365	5.95996
-39.5416	153.264	5.97949
-39.5401	153.349	5.99902
-39.5391	151.745	6.01855
-39.5377	156.896	6.03809
-39.5354	155.424	6.05762
-39.5343	152.677	6.07715
-39.5319	159.547	6.09668
-39.5306	161.583	6.11621
-39.5289	157.366	6.13574
-39.527	164.254	6.15527
-39.52578	165.106	6.1748
-39.5246	161.512	6.19434
-39.5213	165.393	6.21387
-39.5215	170.74	6.2334
-39.5193	163.9433	6.25293
-39.5181	170.4798	6.27246
-39.5151	171.359	6.29199
-39.5149	168.75	6.31152
-39.5123	169.932	6.33105
-39.5119	178.0835	6.35059
-39.5106	170.4816	6.37012
-39.5083	172.386	6.38965
-39.5058	177.894	6.40918
-39.5049	178.759	6.42871
-39.5026	175.084	6.44824
-39.50069	181.46	6.46777
-39.49958	178.701	6.4873
-39.4993	180.64	6.50684
-39.4965	182.463	6.52637
-39.4959	186.764	6.5459
-39.4945	181.175	6.56543
-39.4919	185.431	6.58496
-39.49012	190.62	6.60449
-39.4895	188.589	6.62402
-39.4876	186.971	6.64355
-39.4839	191.935	6.66309
-39.48349	192.968	6.68262
-39.4824	189.439	6.70215
-39.48074	195.929	6.72168
-39.4785	194.249	6.74121
-39.477	192.807	6.76074
-39.4767	199.8123	6.78027
-39.4732	202.125	6.7998
-39.4716	193.613	6.81934
-39.4701	201.998	6.83887
-39.4697	205.569	6.8584
-39.4673	200.901	6.87793
-39.4658	202.519	6.89746
-39.4648	210.033	6.91699
-39.4629	202.214	6.93652
-39.46138	206.502	6.95605
-39.46	209.926	6.97559
-39.4576	208.743	6.99512
-39.4555	207.667	7.01465
-39.4548	214.693	7.03418
-39.4534	210.715	7.05371
-39.4511	210.895	7.07324
-39.4495	213.315	7.09277
-39.4468	217.727	7.1123
-39.4461	214.974	7.13184
-39.4449	218.349	7.15137
-39.4443	218.816	7.1709
-39.4419	217.389	7.19043
-39.4398	218.255	7.20996
-39.4379	224.0806	7.22949
-39.4373	222.151	7.24902
-39.43457	220.788	7.26855
-39.4337	225.917	7.28809
-39.432	225.782	7.30762
-39.4316	223.606	7.32715
-39.4286	228.017	7.34668
-39.4263	230.728	7.36621
-39.4251	226.744	7.38574
-39.4232	234.756	7.40527
-39.4208	233.692	7.4248
-39.4191	230.817	7.44434
-39.419	235.202	7.46387
-39.4176	240.61	7.4834
-39.4164	232.216	7.50293
-39.4132	239.4254	7.52246
-39.4124	242.821	7.54199
-39.4104	239.967	7.56152
-39.40897	240.085	7.58105
-39.4067	245.155	7.60059
-39.4057	239.812	7.62012
-39.40387	244.53	7.63965
-39.4028	249.917	7.65918
-39.4008	248.37	7.67871
-39.3995	245.096	7.69824
-39.3973	251.799	7.71777
-39.3974	251.874	7.7373
-39.3937	250.9492	7.75684
-39.3918	250.151	7.77637
-39.3918	256.2	7.7959
-39.3897	252.903	7.81543
-39.38731	257.157	7.83496
-39.386	257.499	7.85449
-39.3846	256.129	7.87402
-39.3828	257.8671	7.89355
-39.382	263.095	7.91309
-39.3792	262.262	7.93262
-39.3783	257.985	7.95215
-39.3765	265.5426	7.97168
-39.3751	267.12	7.99121
-39.37347	262.8559	8.01074
-39.3709	266.731	8.03027
-39.3698	272.51	8.0498
-39.36805	264.277	8.06934
-39.3653	272.171	8.08887
-39.3657	271.489	8.1084
-39.3629	268.8	8.12793
-39.36113	272.363	8.14746
-39.3601	279.611	8.16699
-39.3588	271.0925	8.18652
-39.3569	275.759	8.20605
-39.3558	279.22	8.22559
-39.3534	277.671	8.24512
-39.3522	277.302	8.26465
-39.3495	284.61	8.28418
-39.3489	280.905	8.30371
-39.3465	282.469	8.32324
-39.3447	284.656	8.34277
-39.34478	287.704	8.3623
-39.3419	283.308	8.38184
-39.3399	288.504	8.40137
-39.3396	290.674	8.4209
-39.3374	287.428	8.44043
-39.3363	287.633	8.45996
-39.33408	293.473	8.47949
-39.3329	292.742	8.49902
-39.3302	291.005	8.51855
-39.3296	298.2114	8.53809
-39.3281	294.52	8.55762
-39.3261	291.996	8.57715
-39.3254	299.201	8.59668
-39.3235	302.247	8.61621
-39.3218	296.029	8.63574
-39.3183	303.785	8.65527
-39.3188	305.271	8.6748
-39.3159	302.076	8.69434
-39.3142	304.387	8.71387
-39.3133	309.01	8.7334
-39.3115	301.774	8.75293
-39.3098	310.053	8.77246
-39.308	311.958	8.79199
-39.3065	308.677	8.81152
-39.30563	309.5141	8.83105
-39.3036	316.619	8.85059
-39.3014	310.964	8.87012
-39.2993	312.222	8.88965
-39.2977	315.329	8.90918
-39.2962	316.667	8.92871
-39.295	315.052	8.94824
-39.2933	320.054	8.96777
-39.2921	319.0625	8.9873
-39.2893	317.933	9.00684
-39.2879	321.27	9.02637
-39.2873	324.398	9.0459
-39.285	321.098	9.06543
-39.2844	322.348	9.08496
-39.2814	328.516	9.10449
-39.2798	326.381	9.12402
-39.278	325.776	9.14355
-39.277	330.042	9.16309
-39.2744	329.935	9.18262
-39.2741	326.678	9.20215
-39.2715	336.058	9.22168
-39.2697	332.729	9.24121
-39.2694	330.445	9.26074
-39.2675	336.294	9.28027
-39.2645	339.946	9.2998
-39.2649	331.441	9.31934
-39.2625	339.577	9.33887
-39.2602	341.391	9.3584
-39.25959	338.24	9.37793
-39.2578	341.243	9.39746
-39.2553	348.21	9.41699
-39.2545	337.145	9.43652
-39.2522	344.317	9.45605
-39.2516	348.255	9.47559
-39.2486	345.073	9.49512
-39.2468	343.149	9.51465
-39.246	350.98	9.53418
-39.245	348.764	9.55371
-39.2421	347.5896	9.57324
-39.2407	350.2308	9.59277
-39.23896	353.585	9.6123
-39.2385	352.105	9.63184
-39.2359	355.725	9.65137
-39.2351	356.559	9.6709
-39.2329	353.423	9.69043
-39.2323	355.197	9.70996
-39.23	361.642	9.72949
-39.2275	358.428	9.74902
-39.2264	357.327	9.76855
-39.2246	363.567	9.78809
-39.2229	364.267	9.80762
-39.2217	361.487	9.82715
-39.2194	366.388	9.84668
-39.219	367.592	9.86621
-39.2164	362.255	9.88574
-39.2155	372.086	9.90527
-39.2136	370.248	9.9248
-39.2122	366.213	9.94434
-39.2095	370.682	9.96387
-39.2079	377.453	9.9834
-39.2067	369.251	10.00293
-39.2059	373.801	10.0225
-39.2042	376.148	10.042
-39.2018	374.414	10.0615
-39.2002	375.647	10.0811
-39.1994	380.832	10.1006
-39.198	375.057	10.1201
-39.1954	379.139	10.1396
-39.1938	382.921	10.15918
-39.1927	383.696	10.1787
-39.1918	379.9668	10.1982
-39.1895	384.36	10.2178
-39.188	384.968	10.2373
-39.1858	385.218	10.2568
-39.1848	388.089	10.2764
-39.1827	389.364	10.2959
-39.1818	387.013	10.31543
-39.179	388.676	10.335
-39.1777	394.755	10.3545
-39.1764	390.318	10.374
-39.1751	391.525	10.3936
-39.17292	397.2543	10.4131
-39.1707	396.767	10.4326
-39.1691	391.441	10.4521
-39.168	399.973	10.47168
-39.1671	399.351	10.4912
-39.1646	396.515	10.5107
-39.1634	401.395	10.5303
-39.1613	403.386	10.5498
-39.16037	396.723	10.5693
-39.1577	405.695	10.5889
-39.1571	406.534	10.6084
-39.1551	402.887	10.62793
-39.1527	404.507	10.6475
-39.15131	411.529	10.667
-39.1501	403.888	10.6865
-39.1476	409.218	10.7061
-39.1475	410.202	10.7256
-39.1455	410.809	10.7451
-39.1437	410.113	10.7646
-39.1424	415.866	10.78418
-39.1401	411.653	10.8037
-39.139	411.975	10.8232
-39.1382	415.9639	10.8428
-39.1358	419.969	10.8623
-39.1345	415.84	10.8818
-39.1324	418.532	10.9014
-39.1302	421.188	10.9209
-39.129	418.985	10.94043
-39.12767	419.422	10.96
-39.12532	423.811	10.9795
-39.1241	422.072	10.999
-39.1221	421.342	11.0186
-39.12077	429.161	11.0381
-39.119	424.597	11.0576
-39.118	422.559	11.0771
-39.1175	428.861	11.09668
-39.1149	433.147	11.1162
-39.1117	423.58	11.1357
-39.1118	432.926	11.1553
-39.1097	432.584	11.1748
-39.1084	430.427	11.1943
-39.1069	434.679	11.2139
-39.1054	439.158	11.2334
-39.1019	430.482	11.25293
-39.101	438.075	11.2725
-39.0991	439.703	11.292
-39.0982	439.4303	11.3115
-39.097	437.648	11.3311
-39.0936	445.817	11.3506
-39.093	440.508	11.3701
-39.0905	441.261	11.3896
-39.0894	446.453	11.40918
-39.0877	444.198	11.4287
-39.0868	443.711	11.4482
-39.085	448.4082	11.4678
-39.0839	447.256	11.4873
-39.0821	444.97	11.5068
-39.08	448.295	11.5264
-39.079	452.78	11.5459
-39.0772	449.319	11.56543
-39.0748	450.384	11.585
-39.0733	455.572	11.6045
-39.0723	452.029	11.624
-39.071	453.575	11.6436
-39.0684	458.342	11.6631
-39.0666	456.732	11.6826
-39.0657	452.825	11.7021
-39.06509	462.457	11.72168
-39.0622	459.9335	11.7412
-39.0613	457.057	11.7607
-39.0596	462.882	11.7803
-39.0579	465.962	11.7998
-39.055	459.58	11.8193
-39.0542	466.462	11.8389
-39.0521	465.618	11.8584
-39.0519	464.722	11.87793
-39.0501	467.152	11.8975
-39.0479	471.231	11.917
-39.0459	464.2117	11.9365
-39.0434	468.9639	11.9561
-39.0432	472.897	11.9756
-39.0408	471.71	11.9951
-39.0395	470.219	12.0146
-39.0385	475.135	12.03418
-39.0372	473.0773	12.0537
-39.0344	474.384	12.0732
-39.0338	477.955	12.0928
-39.0325	477.64	12.1123
-39.03019	474.961	12.1318
-39.0279	479.79	12.1514
-39.02663	481.427	12.1709
-39.02343	478.194	12.19043
-39.0231	479.305	12.21
-39.0216	484.168	12.2295
-39.0209	483.624	12.249
-39.0187	480.526	12.2686
-39.0168	488.187	12.2881
-39.0149	484.283	12.3076
-39.0135	484.066	12.3271
-39.0124	489.559	12.34668
-39.0101	490.719	12.3662
-39.0081	483.146	12.3857
-39.0064	493.427	12.4053
-39.0052	493.027	12.4248
-39.0039	489.371	12.4443
-39.0018	492.368	12.4639
-38.99987	498.475	12.4834
-38.9972	489.96	12.50293
-38.9975	494.8616	12.5225
-38.9954	498.582	12.542
-38.9933	495.892	12.5615
-38.9921	496.023	12.5811
-38.9914	503.839	12.6006
-38.9883	496.317	12.6201
-38.9878	498.735	12.6396
-38.9853	502.961	12.65918
-38.9844	503.698	12.6787
-38.9835	501.72	12.6982
-38.98074	504.926	12.7178
-38.9804	505.159	12.7373
-38.978	502.3606	12.7568
-38.97633	506.098	12.7764
-38.9751	508.471	12.7959
-38.9716	506.178	12.81543
-38.9712	507.892	12.835
-38.9687	515.113	12.8545
-38.9679	509.499	12.874
-38.9669	507.685	12.8936
-38.9648	513.565	12.9131
-38.9635	514.548	12.9326
-38.9605	508.769	12.9521
-38.9598	517.395	12.97168
-38.958	513.536	12.9912
-38.9566	513.334	13.0107
-38.954	517.294	13.0303
-38.9518	521.439	13.0498
-38.9519	511.203	13.0693
-38.9504	520.378	13.0889
-38.9479	522.062	13.1084
-38.94614	518.383	13.12793
-38.9455	521.1806	13.1475
-38.944	525.981	13.167
-38.9429	520.047	13.1865
-38.9409	522.879	13.2061
-38.9383	527.965	13.2256
-38.9362	524.888	13.2451
-38.9361	523.377	13.2646
-38.9339	531.912	13.28418
-38.9318	527.986	13.3037
-38.9302	526.295	13.3232
-38.9279	529.345	13.3428
-38.92804	533.259	13.3623
-38.9261	528.726	13.3818
-38.9254	532.986	13.4014
-38.9223	532.552	13.4209
-38.9217	531.195	13.44043
-38.9188	532.931	13.46
-38.9177	536.214	13.4795
-38.9157	534.847	13.499
-38.9133	533.465	13.5186
-38.9129	542.103	13.5381
-38.91087	536.651	13.5576
-38.9097	535.288	13.5771
-38.9069	540.366	13.59668
-38.9062	542.852	13.6162
-38.9046	536.216	13.6357
-38.9018	544.06	13.6553
-38.9005	541.4201	13.6748
-38.89904	540.174	13.6943
-38.8985	543.4328	13.7139
-38.8967	548.906	13.7334
-38.8948	539.448	13.75293
-38.8934	545.167	13.7725
-38.8915	548.546	13.792
-38.8898	545.661	13.8115
-38.8887	545.69	13.8311
-38.887	553.677	13.8506
-38.8846	545.474	13.8701
-38.8837	548.938	13.8896
-38.881	553.095	13.90918
-38.88	550.419	13.9287
-38.8781	547.96	13.9482
-38.8771	554.172	13.9678
-38.8744	552.924	13.9873
-38.87442	550.245	14.0068
-38.8719	553.167	14.0264
-38.871	557.786	14.0459
-38.8691	555.468	14.06543
-38.8676	555.289	14.085
-38.8666	558.774	14.1045
-38.864	555.387	14.124
-38.8621	556.604	14.1436
-38.861	562.374	14.1631
-38.8588	559.62	14.1826
-38.85722	554.517	14.2021
-38.8552	564.422	14.22168
-38.8538	561.723	14.2412
-38.8523	559.1814	14.2607
-38.8505	563.351	14.2803
-38.8491	567.095	14.2998
-38.8476	557.885	14.3193
-38.8452	567.319	14.3389
-38.845	567.151	14.3584
-38.84322	561.745	14.37793
-38.8414	567.255	14.3975
-38.8397	572.813	14.417
-38.8386	564.324	14.4365
-38.8361	567.437	14.4561
-38.8346	571.168	14.4756
-38.8332	568.302	14.4951
-38.8314	567.219	14.5146
-38.8309	572.028	14.53418
-38.8294	568.727	14.5537
-38.8265	568.498	14.5732
-38.8251	573.527	14.5928
-38.8233	573.974	14.6123
-38.8213	569.199	14.6318
-38.8203	572.146	14.6514
-38.8174	575.456	14.6709
-38.8168	571.78	14.69043
-38.8148	572.603	14.71
-38.8136	577.23	14.7295
-38.8126	575.38	14.749
-38.8093	573.546	14.7686
-38.8084	578.647	14.7881
-38.8064	575.229	14.8076
-38.8048	575.41	14.8271
-38.8033	580.331	14.84668
-38.8014	581.548	14.8662
-38.8004	571.893	14.8857
-38.7986	582.07	14.9053
-38.7971	581.285	14.9248
-38.7951	577.646	14.9443
-38.7945	580.4696	14.9639
-38.7922	583.873	14.9834
-38.7913	576.486	15.00293
-38.7898	582.4339	15.0225
-38.78709	584.148	15.042
-38.7857	578.375	15.0615
-38.7837	579.489	15.0811
-38.7824	587.353	15.1006
-38.7807	580.706	15.1201
-38.779	581.162	15.1396
-38.77792	584.639	15.15918
-38.7756	582.827	15.1787
-38.7748	582.347	15.1982
-38.772	586.353	15.2178
-38.77066	583.38	15.2373
-38.7695	581.4726	15.2568
-38.7675	586.241	15.2764
-38.7672	587.916	15.2959
-38.7635	584.661	15.31543
-38.76302	583.446	15.335
-38.7621	590.203	15.3545
-38.7602	585.693	15.374
-38.7586	584.61	15.3936
-38.7562	589.154	15.4131
-38.7546	588.754	15.4326
-38.7545	583.156	15.4521
-38.7501	591.86	15.47168
-38.7501	588.119	15.4912
-38.7486	586.18	15.5107
-38.7472	589.068	15.5303
-38.7447	593.044	15.5498
-38.7432	583.329	15.5693
-38.7412	590.015	15.5889
-38.7401	590.72	15.6084
-38.7385	589.757	15.62793
-38.7371	590.155	15.6475
-38.7348	594.5119	15.667
-38.734	585.888	15.6865
-38.731	589.784	15.7061
-38.7306	592.269	15.7256
-38.7277	589.8736	15.7451
-38.7268	588.273	15.7646
-38.7256	594.626	15.78418
-38.72401	589.4223	15.8037
-38.72245	589.304	15.8232
-38.7192	591.3183	15.8428
-38.7186	592.546	15.8623
-38.7179	590.192	15.8818
-38.7164	591.872	15.9014
-38.7139	593.363	15.9209
-38.7127	590.301	15.94043
-38.7108	592.2	15.96
-38.7089	596.885	15.9795
-38.708	592.447	15.999
-38.7057	589.3089	16.0186
-38.7045	595.338	16.0381
-38.703	591.402	16.0576
-38.70097	590.301	16.0771
-38.6995	594.212	16.09668
-38.6974	595.352	16.1162
-38.6974	587.971	16.1357
-38.6947	596.537	16.1553
-38.6928	593.712	16.1748
-38.6908	589.739	16.1943
-38.6899	593.193	16.2139
-38.6877	597.945	16.2334
-38.6869	587.362	16.25293
-38.68615	591.956	16.2725
-38.68309	594.258	16.292
-38.6808	591.682	16.3115
-38.68084	591.318	16.3311
-38.6775	597.4	16.3506
-38.6762	589.9212	16.3701
-38.6755	591.681	16.3896
-38.673	592.569	16.40918
-38.6716	592.9541	16.4287
-38.67	588.171	16.4482
-38.6687	594.267	16.4678
-38.666	593.033	16.4873
-38.666	590.6828	16.5068
-38.6626	592.788	16.5264
-38.6614	591.952	16.5459
-38.6605	589.794	16.56543
-38.6574	589.689	16.585
-38.6574	594.036	16.6045
-38.655	589.739	16.624
-38.6544	588.884	16.6436
-38.6525	594.454	16.6631
-38.6502	593.156	16.6826
-38.6487	586.718	16.7021
-38.6485	594.116	16.72168
-38.6459	592.327	16.7412
-38.64233	588.649	16.7607
-38.6424	592.302	16.7803
-38.6413	594.18	16.7998
-38.6393	584.653	16.8193
-38.637	594.093	16.8389
-38.6353	592.807	16.8584
-38.6342	589.107	16.87793
-38.6327	588.965	16.8975
-38.6312	597.431	16.917
-38.6284	587.79	16.9365
-38.6266	589.929	16.9561
-38.6265	591.815	16.9756
-38.6256	590.085	16.9951
-38.6232	588.4986	17.0146
-38.6212	593.464	17.03418
-38.62	588.291	17.0537
-38.61816	588.588	17.0732
-38.6167	590.422	17.0928
-38.6146	592.8	17.1123
-38.6117	587.717	17.1318
-38.6114	587.471	17.1514
-38.61	591.182	17.1709
-38.6086	587.712	17.19043
-38.6071	587.285	17.21
-38.60503	590.544	17.2295
-38.604	587.975	17.249
-38.6013	586.581	17.2686
-38.6012	591.548	17.2881
-38.5991	586.776	17.3076
-38.5968	584.974	17.3271
-38.5951	589.719	17.34668
-38.5934	592.7619	17.3662
-38.5921	582.411	17.3857
-38.5908	590.401	17.4053
-38.5891	588.255	17.4248
-38.5872	584.693	17.4443
-38.5859	585.948	17.4639
-38.5843	590.954	17.4834
-38.5821	580.924	17.50293
-38.5806	586.275	17.5225
-38.5788	590.883	17.542
-38.5774	585.065	17.5615
-38.5759	584.369	17.5811
-38.5737	590.3	17.6006
-38.5719	584.312	17.6201
-38.5715	584.4671	17.6396
-38.5703	587.241	17.65918
-38.5682	586.73	17.6787
-38.5659	583.147	17.6982
-38.5638	587.312	17.7178
-38.56263	586.526	17.7373
-38.5616	582.29	17.7568
-38.5594	585.463	17.7764
-38.55727	587.927	17.7959
-38.5566	585.117	17.81543
-38.5543	582.7522	17.835
-38.5522	587.821	17.8545
-38.5528	583.937	17.874
-38.5499	582.356	17.8936
-38.548	585.882	17.9131
-38.5473	584.297	17.9326
-38.5448	579.904	17.9521
-38.5443	586.318	17.97168
-38.5427	585.349	17.9912
-38.53915	580.572	18.0107
-38.5375	584.842	18.0303
-38.5365	589.405	18.0498
-38.5343	578.342	18.0693
-38.5339	584.19	18.0889
-38.5325	584.215	18.1084
-38.5302	581.3418	18.12793
-38.528	581.8537	18.1475
-38.5272	587.162	18.167
-38.5262	577.885	18.1865
-38.5232	581.909	18.2061
-38.5228	584.229	18.2256
-38.5203	582.505	18.2451
-38.5194	578.373	18.2646
-38.5183	585.266	18.28418
-38.5157	580.753	18.3037
-38.5135	579.903	18.3232
-38.512	582.509	18.3428
-38.51009	582.07	18.3623
-38.5081	578.505	18.3818
-38.5085	581.171	18.4014
-38.5055	582.988	18.4209
-38.50346	579.235	18.44043
-38.5023	578.548	18.46
-38.501	582.157	18.4795
-38.5004	581.39	18.499
-38.4978	576.216	18.5186
-38.4969	583.967	18.5381
-38.4952	578.3504	18.5576
-38.493	576.784	18.5771
-38.4905	581.076	18.59668
-38.4898	580.568	18.6162
-38.4877	573.288	18.6357
-38.4857	582.748	18.6553
-38.4843	581.08	18.6748
-38.4821	575.738	18.6943
-38.4808	579.083	18.7139
-38.4799	582.25	18.7334
-38.4778	574.215	18.75293
-38.4768	578.306	18.7725
-38.475	578.106	18.792
-38.4739	575.032	18.8115
-38.47168	577.757	18.8311
-38.4702	582.691	18.8506
-38.4682	575.535	18.8701
-38.4662	576.704	18.8896
-38.4649	578.241	18.90918
-38.4634	578.987	18.9287
-38.4622	575.4881	18.9482
-38.4599	579.593	18.9678
-38.4584	579.009	18.9873
-38.4569	576.312	19.0068
-38.4555	577.019	19.0264
-38.4536	577.03	19.0459
-38.4523	574.825	19.06543
-38.4498	575.372	19.085
-38.4479	579.985	19.1045
-38.4469	573.792	19.124
-38.4459	573.548	19.1436
-38.4442	578.635	19.1631
-38.4426	578.565	19.1826
-38.4399	571.907	19.2021
-38.4389	578.799	19.22168
-38.4383	575.371	19.2412
-38.435	571.8905	19.2607
-38.4346	576.522	19.2803
-38.4321	578.585	19.2998
-38.4312	568.952	19.3193
-38.4292	577.558	19.3389
-38.4279	576.5343	19.3584
-38.4258	573.53	19.37793
-38.4249	573.022	19.3975
-38.4225	579.667	19.417
-38.4197	571.591	19.4365
-38.4192	575.235	19.4561
-38.41827	576.83	19.4756
-38.4164	574.464	19.4951
-38.4141	572.153	19.5146
-38.413	578.499	19.53418
-38.4108	573.309	19.5537
-38.4088	571.426	19.5732
-38.40873	573.79	19.5928
-38.405	574.818	19.6123
-38.4042	570.95	19.6318
-38.4033	572.4632	19.6514
-38.4017	575.638	19.6709
-38.39978	569.828	19.69043
-38.39806	573.459	19.71
-38.3974	575.951	19.7295
-38.3955	572.372	19.749
-38.3935	569.8703	19.7686
-38.3914	576.685	19.7881
-38.39	571.719	19.8076
-38.3892	568.315	19.8271
-38.3861	574.362	19.84668
-38.3859	575.275	19.8662
-38.3839	568.398	19.8857
-38.381	573.516	19.9053
-38.3811	573.728	19.9248
-38.3788	569.809	19.9443
-38.3772	573.692	19.9639
-38.3763	576.602	19.9834
-38.373	567.024	20.00293
-38.3736	567.182	20.0127

Data Header:			0.254_solid_dimension_typeiv_4545_r0			Time:	40.0173	s	4/13/2019 8:35:36 PM
Data Acquisition:	Timed
Station Name:	ft40.cfg
Test File Name:	monotonic_0.2540_typeiv_solid_4545_dimension.tst
Displacement	Force	Running Time
mm	N	s
-38.3723	571.045	20.0225
-38.3706	573.01	20.042
-38.3692	571.0611	20.0615
-38.3674	570.118	20.0811
-38.3661	574.314	20.1006
-38.3642	568.118	20.1201
-38.3617	570.012	20.1396
-38.3613	574.2359	20.15918
-38.3595	570.689	20.1787
-38.3579	567.765	20.1982
-38.3556	573.622	20.2178
-38.3539	570.626	20.2373
-38.3527	567.388	20.2568
-38.3522	570.424	20.2764
-38.351	573.335	20.2959
-38.348	570.452	20.31543
-38.3449	568.994	20.335
-38.3443	573.554	20.3545
-38.3425	568.522	20.374
-38.34127	567.781	20.3936
-38.34	571.9541	20.4131
-38.3385	570.187	20.4326
-38.336	564.694	20.4521
-38.3345	573.94	20.47168
-38.3327	569.72	20.4912
-38.3318	566.8512	20.5107
-38.3301	570.5943	20.5303
-38.3287	573.768	20.5498
-38.3264	564.4	20.5693
-38.3249	573.1767	20.5889
-38.3226	570.154	20.6084
-38.3226	565.957	20.62793
-38.3198	569.508	20.6475
-38.31802	574.919	20.667
-38.3172	565.714	20.6865
-38.315	568.006	20.7061
-38.3142	570.235	20.7256
-38.3125	569.538	20.7451
-38.311	566.351	20.7646
-38.3086	571.838	20.78418
-38.3073	567.845	20.8037
-38.3064	565.406	20.8232
-38.3039	570.917	20.8428
-38.3025	569.289	20.8623
-38.3008	565.425	20.8818
-38.2984	568.7229	20.9014
-38.2967	570.827	20.9209
-38.297	565.5047	20.94043
-38.2942	566.229	20.96
-38.2924	569.262	20.9795
-38.2914	568.18	20.999
-38.2899	565.664	21.0186
-38.2868	570.47	21.0381
-38.28632	566.575	21.0576
-38.2851	563.991	21.0771
-38.2823	570.637	21.09668
-38.2799	570.061	21.1162
-38.2804	560.751	21.1357
-38.2782	568.48	21.1553
-38.275	568.901	21.1748
-38.2743	564.154	21.1943
-38.2725	567.519	21.2139
-38.2711	571.088	21.2334
-38.27	561.782	21.25293
-38.267	568.1698	21.2725
-38.266	570.7	21.292
-38.2651	564.7547	21.3115
-38.26268	564.917	21.3311
-38.2623	570.374	21.3506
-38.2607	565.7196	21.3701
-38.25771	564.513	21.3896
-38.2563	566.013	21.40918
-38.255	566.846	21.4287
-38.2541	565.36	21.4482
-38.2526	568.788	21.4678
-38.2504	564.99	21.4873
-38.2482	562.888	21.5068
-38.2478	566.905	21.5264
-38.2456	568.397	21.5459
-38.2436	562.504	21.56543
-38.2423	563.545	21.585
-38.2401	568.971	21.6045
-38.239	564.461	21.624
-38.2376	564.074	21.6436
-38.2349	567.316	21.6631
-38.2333	565.347	21.6826
-38.233	561.52	21.7021
-38.2317	569.276	21.72168
-38.2289	565.137	21.7412
-38.2273	561.968	21.7607
-38.2254	565.556	21.7803
-38.2238	570.16	21.7998
-38.22295	559.602	21.8193
-38.2216	566.509	21.8389
-38.2196	567.928	21.8584
-38.2181	563.096	21.87793
-38.21682	564.223	21.8975
-38.2143	569.104	21.917
-38.21146	560.713	21.9365
-38.2112	564.783	21.9561
-38.2092	567.6427	21.9756
-38.2067	564.937	21.9951
-38.20575	561.601	22.0146
-38.2043	567.563	22.03418
-38.2045	564.952	22.0537
-38.202	563.139	22.0732
-38.2002	564.733	22.0928
-38.197	565.763	22.1123
-38.1964	563.705	22.1318
-38.1943	564.508	22.1514
-38.1926	566.771	22.1709
-38.191	562.151	22.19043
-38.1898	562.723	22.21
-38.1894	566.245	22.2295
-38.1864	563.584	22.249
-38.1847	558.9928	22.2686
-38.183	565.7	22.2881
-38.1816	563.893	22.3076
-38.1817	560.49	22.3271
-38.1787	565.096	22.34668
-38.1762	564.761	22.3662
-38.1751	557.239	22.3857
-38.17382	566.583	22.4053
-38.1719	564.257	22.4248
-38.1705	559.312	22.4443
-38.1698	562.252	22.4639
-38.1674	569.386	22.4834
-38.1646	558.914	22.50293
-38.1639	563.585	22.5225
-38.1632	565.385	22.542
-38.1612	562.262	22.5615
-38.159	561.946	22.5811
-38.1571	567.626	22.6006
-38.1559	559.304	22.6201
-38.1543	561.1582	22.6396
-38.1516	564.507	22.65918
-38.1505	563.275	22.6787
-38.1489	559.224	22.6982
-38.1487	562.846	22.7178
-38.1472	562.592	22.7373
-38.1442	559.501	22.7568
-38.1424	560.108	22.7764
-38.1415	562.955	22.7959
-38.1391	560.1875	22.81543
-38.138	560.031	22.835
-38.1363	564.7442	22.8545
-38.1338	558.036	22.874
-38.1341	559.983	22.8936
-38.1314	563.92	22.9131
-38.1305	562.742	22.9326
-38.129	557.6076	22.9521
-38.12632	563.452	22.97168
-38.1244	561.594	22.9912
-38.1233	558.913	23.0107
-38.1218	561.312	23.0303
-38.1204	564.714	23.0498
-38.1185	555.605	23.0693
-38.1162	565.461	23.0889
-38.1148	564.628	23.1084
-38.1135	559.898	23.12793
-38.111	561.586	23.1475
-38.1104	565.2428	23.167
-38.109	558.592	23.1865
-38.10677	560.947	23.2061
-38.105	562.529	23.2256
-38.1046	560.345	23.2451
-38.1017	558.215	23.2646
-38.1002	563.268	23.28418
-38.09922	559.532	23.3037
-38.0977	558.026	23.3232
-38.0959	562.092	23.3428
-38.0935	561.429	23.3623
-38.0922	558.058	23.3818
-38.0918	558.174	23.4014
-38.0891	562.085	23.4209
-38.0878	556.771	23.44043
-38.0856	558.625	23.46
-38.0843	561.584	23.4795
-38.083	558.908	23.499
-38.0813	555.658	23.5186
-38.0793	563.499	23.5381
-38.0775	558.8125	23.5576
-38.0762	556.26	23.5771
-38.075	561.817	23.59668
-38.0725	563.19	23.6162
-38.0711	554.6593	23.6357
-38.0704	561.338	23.6553
-38.0674	560.732	23.6748
-38.0671	557.451	23.6943
-38.0644	560.2663	23.7139
-38.063	562.421	23.7334
-38.0623	555.255	23.75293
-38.0595	560.959	23.7725
-38.058	562.938	23.792
-38.0573	558.312	23.8115
-38.0563	556.76	23.8311
-38.0527	563.586	23.8506
-38.0523	557.16	23.8701
-38.0503	558.906	23.8896
-38.0482	561.638	23.90918
-38.047	561.407	23.9287
-38.0459	556.564	23.9482
-38.0434	562.737	23.9678
-38.04108	559.668	23.9873
-38.0405	556.503	24.0068
-38.0384	559.3963	24.0264
-38.0381	562.71	24.0459
-38.0355	558.988	24.06543
-38.034	557.779	24.085
-38.0328	561.703	24.1045
-38.0296	556.501	24.124
-38.0285	557.417	24.1436
-38.0273	560.678	24.1631
-38.02515	559.967	24.1826
-38.0237	553.9939	24.2021
-38.02256	564.031	24.22168
-38.02058	559.125	24.2412
-38.0188	554.138	24.2607
-38.0177	559.518	24.2803
-38.0158	563.509	24.2998
-38.0142	553.565	24.3193
-38.0122	560.429	24.3389
-38.0107	560.34	24.3584
-38.0092	555.077	24.37793
-38.0071	559.349	24.3975
-38.0063	562.716	24.417
-38.0042	553.746	24.4365
-38.0037	558.053	24.4561
-38.0021	559.89	24.4756
-37.9993	558.99	24.4951
-37.9991	556.674	24.5146
-37.9958	561.769	24.53418
-37.9962	557.435	24.5537
-37.993	556.012	24.5732
-37.9914	559.527	24.5928
-37.9904	557.556	24.6123
-37.9892	555.3913	24.6318
-37.98745	557.8443	24.6514
-37.9851	560.828	24.6709
-37.9828	555.979	24.69043
-37.983	556.202	24.71
-37.98082	559.404	24.7295
-37.9776	559.065	24.749
-37.9771	554.608	24.7686
-37.9758	561.178	24.7881
-37.9742	557.25	24.8076
-37.97208	556.257	24.8271
-37.9697	560.094	24.84668
-37.9685	560.356	24.8662
-37.9674	551.233	24.8857
-37.9658	560.6839	24.9053
-37.9641	559.576	24.9248
-37.9612	553.706	24.9443
-37.9604	556.83	24.9639
-37.9594	561.255	24.9834
-37.9584	553.392	25.00293
-37.955	557.054	25.0225
-37.9538	561.293	25.042
-37.9516	556.897	25.0615
-37.9517	557.117	25.0811
-37.94886	561.887	25.1006
-37.9465	555.353	25.1201
-37.9456	555.707	25.1396
-37.9444	558.651	25.15918
-37.9431	558.844	25.1787
-37.9423	555.335	25.1982
-37.9393	558.7959	25.2178
-37.9388	556.687	25.2373
-37.9361	553.897	25.2568
-37.93483	558.2027	25.2764
-37.932	558.216	25.2959
-37.9313	555.655	25.31543
-37.92918	554.934	25.335
-37.9279	560.875	25.3545
-37.92598	555.112	25.374
-37.9255	553.69	25.3936
-37.92337	559.14	25.4131
-37.9218	557.667	25.4326
-37.9191	553.0199	25.4521
-37.9186	559.717	25.47168
-37.9168	555.732	25.4912
-37.915	553.338	25.5107
-37.9138	558.305	25.5303
-37.9112	561.101	25.5498
-37.9103	549.9306	25.5693
-37.9081	558.83	25.5889
-37.9066	559.012	25.6084
-37.9053	553.989	25.62793
-37.9031	554.857	25.6475
-37.9019	560.212	25.667
-37.8992	552.196	25.6865
-37.89893	555.131	25.7061
-37.8969	559.332	25.7256
-37.8965	554.223	25.7451
-37.8942	551.492	25.7646
-37.8928	560.692	25.78418
-37.8898	555.932	25.8037
-37.8888	552.447	25.8232
-37.8871	556.075	25.8428
-37.8852	557.448	25.8623
-37.884	554.246	25.8818
-37.8819	555.815	25.9014
-37.8815	556.232	25.9209
-37.87904	552.85	25.94043
-37.8773	553.3877	25.96
-37.8761	558.914	25.9795
-37.8745	555.127	25.999
-37.8727	549.464	26.0186
-37.8719	559.391	26.0381
-37.8696	554.368	26.0576
-37.8669	552.193	26.0771
-37.8661	556.1236	26.09668
-37.8647	557.764	26.1162
-37.863	550.882	26.1357
-37.8617	557.532	26.1553
-37.8591	554.209	26.1748
-37.8573	551.576	26.1943
-37.8564	555.943	26.2139
-37.8539	560.462	26.2334
-37.853	549.303	26.25293
-37.8521	554.302	26.2725
-37.8497	556.988	26.292
-37.8482	553.779	26.3115
-37.8461	552.248	26.3311
-37.8453	559.5896	26.3506
-37.8449	551.924	26.3701
-37.8416	552.433	26.3896
-37.839	556.341	26.40918
-37.8373	555.373	26.4287
-37.8378	552.652	26.4482
-37.8342	556.555	26.4678
-37.8338	555.678	26.4873
-37.8314	552.829	26.5068
-37.8322	554.181	26.5264
-37.8278	554.928	26.5459
-37.827	553.015	26.56543
-37.82542	552.5882	26.585
-37.8242	557.654	26.6045
-37.8218	552.388	26.624
-37.8207	554.9574	26.6436
-37.8181	559.331	26.6631
-37.8169	556.705	26.6826
-37.8164	549.456	26.7021
-37.814	557.7019	26.72168
-37.8124	554.869	26.7412
-37.8108	552.637	26.7607
-37.8097	555.049	26.7803
-37.8081	558.016	26.7998
-37.8055	549.344	26.8193
-37.8042	557.4021	26.8389
-37.8016	556.776	26.8584
-37.8022	551.6402	26.87793
-37.8	554.617	26.8975
-37.798	559.426	26.917
-37.7963	550.849	26.9365
-37.7946	553.312	26.9561
-37.7929	555.855	26.9756
-37.7906	554.107	26.9951
-37.7894	553.398	27.0146
-37.7881	557.9104	27.03418
-37.7862	553.8479	27.0537
-37.785	550.669	27.0732
-37.7839	555.73	27.0928
-37.781	556.527	27.1123
-37.7808	550.141	27.1318
-37.77808	552.789	27.1514
-37.7768	556.725	27.1709
-37.775	552.99	27.19043
-37.7742	552.833	27.21
-37.77092	554.468	27.2295
-37.7708	553.855	27.249
-37.7679	550.292	27.2686
-37.7661	557.0802	27.2881
-37.7649	551.02	27.3076
-37.764	550.604	27.3271
-37.76202	556.166	27.34668
-37.7593	557.42	27.3662
-37.758	548.49	27.3857
-37.757	555.767	27.4053
-37.7552	555.202	27.4248
-37.754	552.031	27.4443
-37.75267	553.63	27.4639
-37.7502	557.1958	27.4834
-37.75	547.473	27.50293
-37.7484	554.174	27.5225
-37.74522	556.647	27.542
-37.7443	551.73	27.5615
-37.7418	552.308	27.5811
-37.7414	558.976	27.6006
-37.7391	551.628	27.6201
-37.7384	550.969	27.6396
-37.7354	554.496	27.65918
-37.734	553.507	27.6787
-37.7335	552.021	27.6982
-37.731	555.262	27.7178
-37.7304	554.926	27.7373
-37.7272	550.826	27.7568
-37.7261	554.344	27.7764
-37.7246	556.2218	27.7959
-37.723	551.46	27.81543
-37.7222	551.079	27.835
-37.7204	557.639	27.8545
-37.7181	551.794	27.874
-37.7171	551.964	27.8936
-37.7147	555.284	27.9131
-37.7131	554.683	27.9326
-37.7114	547.481	27.9521
-37.7095	557.223	27.97168
-37.70779	552.943	27.9912
-37.7073	548.606	28.0107
-37.704	555.477	28.0303
-37.7032	557.486	28.0498
-37.7011	546.764	28.0693
-37.7003	553.7923	28.0889
-37.6988	555.103	28.1084
-37.69556	551.115	28.12793
-37.6961	553.636	28.1475
-37.6939	558.312	28.167
-37.6923	548.421	28.1865
-37.6896	552.342	28.2061
-37.6885	556.627	28.2256
-37.6875	553.669	28.2451
-37.6857	549.616	28.2646
-37.6842	555.777	28.28418
-37.6826	553.547	28.3037
-37.6808	550.638	28.3232
-37.6797	553.203	28.3428
-37.6766	552.492	28.3623
-37.6762	551.8175	28.3818
-37.6735	553.522	28.4014
-37.67297	556.353	28.4209
-37.6709	550.608	28.44043
-37.6687	552.186	28.46
-37.6687	556.183	28.4795
-37.6651	553.179	28.499
-37.665	546.975	28.5186
-37.6633	555.04	28.5381
-37.6613	552.762	28.5576
-37.65855	550.023	28.5771
-37.6572	554.628	28.59668
-37.656	556.392	28.6162
-37.6558	547.112	28.6357
-37.652	555.648	28.6553
-37.6513	555.344	28.6748
-37.64949	550.556	28.6943
-37.6484	552.76	28.7139
-37.6473	556.805	28.7334
-37.645	547.438	28.75293
-37.6423	552.381	28.7725
-37.6415	555.186	28.792
-37.6394	550.1947	28.8115
-37.639	551.171	28.8311
-37.6367	558.152	28.8506
-37.6344	547.511	28.8701
-37.6332	549.5658	28.8896
-37.6321	553.571	28.90918
-37.6308	552.704	28.9287
-37.6285	548.653	28.9482
-37.6274	553.984	28.9678
-37.62505	553.048	28.9873
-37.6235	550.438	29.0068
-37.6222	552.711	29.0264
-37.6207	552.737	29.0459
-37.61945	549.925	29.06543
-37.61763	549.071	29.085
-37.61525	555.4021	29.1045
-37.615	550.642	29.124
-37.6131	549.919	29.1436
-37.6106	554.62	29.1631
-37.6091	552.797	29.1826
-37.6082	547.02	29.2021
-37.605	554.593	29.22168
-37.6046	552.192	29.2412
-37.6021	549.849	29.2607
-37.6003	553.768	29.2803
-37.5999	555.245	29.2998
-37.5978	546.416	29.3193
-37.5965	553.842	29.3389
-37.5942	552.996	29.3584
-37.592	551.438	29.37793
-37.5915	549.768	29.3975
-37.5891	556.845	29.417
-37.5888	547.689	29.4365
-37.5853	550.641	29.4561
-37.5844	553.331	29.4756
-37.5825	550.813	29.4951
-37.5809	550.286	29.5146
-37.5804	554.2	29.53418
-37.5774	551.284	29.5537
-37.5763	548.51	29.5732
-37.5749	550.589	29.5928
-37.5734	552.678	29.6123
-37.5719	550.396	29.6318
-37.57	550.288	29.6514
-37.568	552.491	29.6709
-37.5662	548.608	29.69043
-37.5647	550.514	29.71
-37.5638	552.66	29.7295
-37.5631	551.48	29.749
-37.5607	546.038	29.7686
-37.5575	554.99	29.7881
-37.5562	551.664	29.8076
-37.5559	546.69	29.8271
-37.5547	552.577	29.84668
-37.5519	554.939	29.8662
-37.5508	546.038	29.8857
-37.54887	554.0946	29.9053
-37.5473	552.812	29.9248
-37.5456	549.793	29.9443
-37.5441	553.465	29.9639
-37.5423	556.166	29.9834
-37.5402	545.591	30.00293
-37.5388	550.563	30.0225
-37.5364	554.503	30.042
-37.5358	550.639	30.0615
-37.53503	548.911	30.0811
-37.5321	554.481	30.1006
-37.5316	549.41	30.1201
-37.5295	549.013	30.1396
-37.5281	552.547	30.15918
-37.5248	551.707	30.1787
-37.52401	548.853	30.1982
-37.5233	553.282	30.2178
-37.5213	552.415	30.2373
-37.5194	547.625	30.2568
-37.51833	550.729	30.2764
-37.51688	551.504	30.2959
-37.5155	550.947	30.31543
-37.5136	548.3949	30.335
-37.5107	552.919	30.3545
-37.5103	549.29	30.374
-37.5088	549.226	30.3936
-37.5066	554.274	30.4131
-37.5049	550.656	30.4326
-37.5037	546.149	30.4521
-37.5013	555.672	30.47168
-37.4993	551.812	30.4912
-37.4977	547.337	30.5107
-37.4966	551.279	30.5303
-37.4946	554.031	30.5498
-37.4949	545.951	30.5693
-37.4917	552.57	30.5889
-37.4901	551.6817	30.6084
-37.4882	548.645	30.62793
-37.487	551.067	30.6475
-37.4859	555.706	30.667
-37.4825	546.153	30.6865
-37.4818	549.515	30.7061
-37.4812	552.634	30.7256
[...]
-36.626	547.665	40.9795
-36.62418	546.407	40.999
-36.623	544.62	41.0186
-36.62236	547.597	41.0381
-36.6189	544.861	41.0576
-36.6183	543.019	41.0771
-36.6162	547.503	41.09668
-36.6151	548.0307	41.1162
-36.6118	538.678	41.1357
-36.611	548.81	41.1553
-36.6094	548.158	41.1748
-36.6084	541.638	41.1943
-36.6068	544.672	41.2139
-36.605	547.621	41.2334
-36.6038	540.757	41.25293
-36.6019	548.147	41.2725
-36.5994	547.605	41.292
-36.5981	544.88	41.3115
-36.5965	542.475	41.3311
-36.5945	549.486	41.3506
-36.594	543.314	41.3701
-36.593	544.509	41.3896
-36.5905	545.076	41.40918
-36.5884	548.197	41.4287
-36.5867	544.02	41.4482
-36.5863	547.281	41.4678
-36.5835	545.2395	41.4873
-36.5819	542.734	41.5068
-36.5808	546.325	41.5264
-36.5794	547.08	41.5459
-36.5785	542.676	41.56543
-36.5759	545.0083	41.585
-36.57391	550.219	41.6045
-36.5721	544.029	41.624
-36.5711	542.81	41.6436
-36.5696	545.906	41.6631
-36.5666	546.091	41.6826
-36.5656	540.9953	41.7021
-36.5647	547.016	41.72168
-36.562	545.497	41.7412
-36.5599	542.998	41.7607
-36.5597	546.952	41.7803
-36.5583	548.9826	41.7998
-36.5567	539.4	41.8193
-36.5552	545.097	41.8389
-36.5527	547.592	41.8584
-36.5514	544.193	41.87793
-36.5501	543.068	41.8975
-36.5488	549.647	41.917
-36.5458	541.357	41.9365
-36.54512	543.706	41.9561
-36.5422	547.472	41.9756
-36.5415	545.479	41.9951
-36.5396	541.4903	42.0146
-36.5376	548.311	42.03418
-36.5364	543.21	42.0537
-36.5352	541.95	42.0732
-36.5328	544.793	42.0928
-36.5313	546.63	42.1123
-36.5309	542.583	42.1318
-36.5288	545.302	42.1514
-36.5273	545.637	42.1709
-36.5256	542.037	42.19043
-36.5253	544.5658	42.21
-36.5218	548.604	42.2295
-36.5205	545.175	42.249
-36.5184	541.5556	42.2686
-36.5166	546.5307	42.2881
-36.5151	544.947	42.3076
-36.5132	540.638	42.3271
-36.5122	544.967	42.34668
-36.5104	547.2348	42.3662
-36.5095	539.55	42.3857
-36.5088	546.746	42.4053
-36.5055	546.659	42.4248
-36.5038	540.293	42.4443
-36.5023	545.481	42.4639
-36.50098	550.3	42.4834
-36.4991	538.999	42.50293
-36.4972	544.242	42.5225
-36.49577	547.248	42.542
-36.4938	543.62	42.5615
-36.4934	543.98	42.5811
-36.4914	550.316	42.6006
-36.4884	541.537	42.6201
-36.4883	542.84	42.6396
-36.4871	547.021	42.65918
-36.4851	544.677	42.6787
-36.4835	542.3186	42.6982
-36.4822	546.664	42.7178
-36.47855	546.332	42.7373
-36.4772	542.137	42.7568
-36.4773	542.911	42.7764
-36.4747	546.727	42.7959
-36.4727	543.8136	42.81543
-36.4712	545.185	42.835
-36.4695	548.199	42.8545
-36.4677	544.3382	42.874
-36.467	542.887	42.8936
-36.4648	547.335	42.9131
-36.46254	547.417	42.9326
-36.4621	539.432	42.9521
-36.4599	545.773	42.97168
-36.4579	544.958	42.9912
-36.4557	541.833	43.0107
-36.455	545.568	43.0303
-36.454	549.057	43.0498
-36.4516	539.456	43.0693
-36.4511	546.189	43.0889
-36.4486	548.112	43.1084
-36.4463	542.213	43.12793
-36.445	543.735	43.1475
-36.4434	550.6214	43.167
-36.4419	542.2	43.1865
-36.4401	544.375	43.2061
-36.4392	545.765	43.2256
-36.4362	545.031	43.2451
-36.4364	544.294	43.2646
-36.43362	548.72	43.28418
-36.4324	543.917	43.3037
-36.4304	543.535	43.3232
-36.4283	544.887	43.3428
-36.4277	547.559	43.3623
-36.4262	542.161	43.3818
-36.4236	545.706	43.4014
-36.4233	547.077	43.4209
-36.4217	543.695	43.44043
-36.4203	541.593	43.46
-36.4175	547.977	43.4795
-36.4162	543.547	43.499
-36.4132	543.558	43.5186
-36.41362	547.555	43.5381
-36.4106	543.465	43.5576
-36.4096	539.724	43.5771
-36.4083	546.586	43.59668
-36.4063	547.885	43.6162
-36.40509	540.356	43.6357
-36.4025	545.219	43.6553
-36.401	546.472	43.6748
-36.3999	543.087	43.6943
-36.3991	544.417	43.7139
-36.3963	549.314	43.7334
-36.3945	539.039	43.75293
-36.3921	545.648	43.7725
-36.392	547.062	43.792
-36.3897	542.657	43.8115
-36.3885	542.919	43.8311
-36.3871	550.335	43.8506
-36.386	542.489	43.8701
-36.3842	544.002	43.8896
-36.3821	546.339	43.90918
-36.3813	545.621	43.9287
-36.3788	542.056	43.9482
-36.3779	546.909	43.9678
-36.3751	545.345	43.9873
-36.3731	541.193	44.0068
-36.3724	542.375	44.0264
-36.3709	547.699	44.0459
-36.3683	542.707	44.06543
-36.36702	543.133	44.085
-36.3662	546.53	44.1045
-36.3643	544.26	44.124
-36.3622	543.339	44.1436
-36.3607	546.279	44.1631
-36.3594	544.899	44.1826
-36.3574	540.1571	44.2021
-36.35664	547.157	44.22168
-36.3541	544.545	44.2412
-36.3534	539.549	44.2607
-36.3497	544.725	44.2803
-36.3493	548.528	44.2998
-36.3476	539.921	44.3193
-36.3459	545.104	44.3389
-36.3453	544.351	44.3584
-36.3427	542.646	44.37793
-36.3428	544.667	44.3975
-36.3392	550.621	44.417
-36.3387	539.891	44.4365
-36.3358	542.723	44.4561
-36.335	547.744	44.4756
-36.3341	546.411	44.4951
-36.3306	541.178	44.5146
-36.32906	546.823	44.53418
-36.3293	544.186	44.5537
-36.3252	542.886	44.5732
-36.3246	543.689	44.5928
-36.3243	546.143	44.6123
-36.3219	542.294	44.6318
-36.3192	545.711	44.6514
-36.3178	545.471	44.6709
-36.317	542.5177	44.69043
-36.3149	541.641	44.71
-36.3135	548.336	44.7295
-36.3115	543.969	44.749
-36.3113	541.38	44.7686
-36.3077	546.047	44.7881
-36.3071	543.3728	44.8076
-36.3049	542.319	44.8271
-36.3037	545.785	44.84668
-36.3015	545.133	44.8662
-36.2995	539.389	44.8857
-36.2989	546.207	44.9053
-36.2978	548.0238	44.9248
-36.29443	540.005	44.9443
-36.2936	542.662	44.9639
-36.29229	549.555	44.9834
-36.29	540.623	45.00293
-36.2901	545.242	45.0225
-36.28738	546.591	45.042
-36.28566	543.278	45.0615
-36.2841	542.707	45.0811
-36.283	548.415	45.1006
-36.2808	540.796	45.1201
-36.2794	542.769	45.1396
-36.2767	546.73	45.15918
-36.277	545.531	45.1787
-36.2746	541.839	45.1982
-36.2728	545.9472	45.2178
-36.2711	544.516	45.2373
-36.26981	542.099	45.2568
-36.2686	544.806	45.2764
-36.2671	545.801	45.2959
-36.2641	541.5658	45.31543
-36.2627	544.384	45.335
-36.2609	546.957	45.3545
-36.2603	542.83	45.374
-36.2579	540.582	45.3936
-36.2566	545.952	45.4131
-36.2556	543.855	45.4326
-36.2536	540.641	45.4521
-36.2515	545.504	45.47168
-36.2497	542.491	45.4912
-36.2487	539.545	45.5107
-36.2481	545.429	45.5303
-36.2448	549.423	45.5498
-36.2426	537.82	45.5693
-36.2427	544.405	45.5889
-36.2403	546.674	45.6084
-36.2393	540.955	45.62793
-36.23674	542.98	45.6475
-36.2344	547.373	45.667
-36.2339	540.216	45.6865
-36.2314	542.928	45.7061
-36.2301	546.918	45.7256
-36.2296	543.4386	45.7451
-36.2278	539.552	45.7646
-36.2256	547.967	45.78418
-36.2244	542.397	45.8037
-36.2225	540.123	45.8232
-36.2205	543.089	45.8428
-36.2206	546.203	45.8623
-36.217	542.097	45.8818
-36.2155	544.251	45.9014
-36.2142	545.019	45.9209
-36.2121	542.277	45.94043
-36.2112	542.834	45.96
-36.2095	545.5097	45.9795
-36.208	541.352	45.999
-36.2071	540.172	46.0186
-36.2042	547.117	46.0381
-36.2029	544.094	46.0576
-36.2009	539.0191	46.0771
-36.2002	543.72	46.09668
-36.1981	544.227	46.1162
-36.1966	539.96	46.1357
-36.19426	544.677	46.1553
-36.1939	544.983	46.1748
-36.1913	540.213	46.1943
-36.1893	543.664	46.2139
-36.1893	549.288	46.2334
-36.18655	537.371	46.25293
-36.1857	543.068	46.2725
-36.1839	546.135	46.292
-36.1827	542.563	46.3115
-36.1802	540.68	46.3311
-36.1784	549.093	46.3506
-36.1764	540.672	46.3701
-36.17522	542.949	46.3896
-36.1743	545.03	46.40918
-36.171	545.14	46.4287
-36.1707	541.342	46.4482
-36.1692	546.973	46.4678
-36.1679	544.596	46.4873
-36.1647	540.677	46.5068
-36.1635	540.947	46.5264
-36.1629	547.363	46.5459
-36.1604	541.494	46.56543
-36.1589	541.749	46.585
-36.1577	543.844	46.6045
-36.1557	542.477	46.624
-36.1545	540.883	46.6436
-36.1525	546.426	46.6631
-36.151	544.457	46.6826
-36.1484	538.648	46.7021
-36.1477	545.522	46.72168
-36.1467	545.56	46.7412
-36.1434	539.838	46.7607
-36.1426	541.844	46.7803
-36.1415	546.714	46.7998
-36.13792	538.974	46.8193
-36.1381	545.873	46.8389
-36.1363	546.336	46.8584
-36.1339	540.5473	46.87793
-36.1324	541.514	46.8975
-36.1309	548.413	46.917
-36.1302	538.576	46.9365
-36.1284	540.882	46.9561
-36.1257	544.737	46.9756
-36.1249	544.85	46.9951
-36.123	540.001	47.0146
-36.1222	546.177	47.03418
-36.12038	541.502	47.0537
-36.1178	542.47	47.0732
-36.1164	544.604	47.0928
-36.1149	546.8576	47.1123
-36.1126	540.388	47.1318
-36.1119	542.667	47.1514
-36.1095	545.038	47.1709
-36.108	542.357	47.19043
-36.1059	539.508	47.21
-36.10379	544.848	47.2295
-36.1027	542.0871	47.249
-36.1015	540.305	47.2686
-36.09898	545.044	47.2881
-36.0986	542.472	47.3076
-36.0969	538.901	47.3271
-36.0952	543.856	47.34668
-36.0942	546.757	47.3662
-36.0921	537.7652	47.3857
-36.0899	543.636	47.4053
-36.0898	544.548	47.4248
-36.0861	541.956	47.4443
-36.0854	542.822	47.4639
-36.0842	547.589	47.4834
-36.0824	537.3125	47.50293
-36.0803	543.4812	47.5225
-36.0798	547.068	47.542
-36.0775	542.173	47.5615
-36.0755	540.689	47.5811
-36.0739	548.604	47.6006
-36.07338	540.299	47.6201
-36.0712	541.635	47.6396
-36.0683	544.087	47.65918
-36.0686	542.94	47.6787
-36.0665	541.106	47.6982
-36.0655	545.0755	47.7178
-36.0626	543.324	47.7373
-36.0619	541.03	47.7568
-36.0597	542.31	47.7764
-36.0571	547.322	47.7959
-36.057	540.419	47.81543
-36.0543	541.847	47.835
-36.0525	543.989	47.8545
-36.0503	541.586	47.874
-36.049	540.778	47.8936
-36.0483	543.124	47.9131
-36.047	542.849	47.9326
-36.0447	538.403	47.9521
-36.04351	543.646	47.97168
-36.0421	542.152	47.9912
-36.0388	536.448	48.0107
-36.03915	542.301	48.0303
-36.0364	546.788	48.0498
-36.0352	535.5564	48.0693
-36.0342	543.241	48.0889
-36.0325	544.779	48.1084
-36.0307	537.801	48.12793
-36.02877	541.359	48.1475
-36.0265	546.426	48.167
-36.0262	539.403	48.1865
-36.0236	542.391	48.2061
-36.02206	544.711	48.2256
-36.0204	542.7926	48.2451
-36.0187	538.965	48.2646
-36.0181	547.248	48.28418
-36.0154	541.425	48.3037
-36.0141	541.272	48.3232
-36.0126	541.319	48.3428
-36.0107	543.427	48.3623
-36.0094	538.825	48.3818
-36.008	543.8606	48.4014
-36.0052	543.695	48.4209
-36.0046	540.225	48.44043
-36.0014	540.958	48.46
-36.0013	545.556	48.4795
-35.9999	542.8053	48.499
-35.9984	539.7973	48.5186
-35.9964	543.44	48.5381
-35.9959	542.506	48.5576
-35.9928	538.718	48.5771
-35.9911	545.531	48.59668
-35.9899	544.966	48.6162
-35.9882	537.925	48.6357
-35.9867	544.235	48.6553
-35.985	545.761	48.6748
-35.9827	539.647	48.6943
-35.9805	539.049	48.7139
-35.9799	547.011	48.7334
-35.9781	538.478	48.75293
-35.9774	542.617	48.7725
-35.9749	545.043	48.792
-35.97324	540.9325	48.8115
-35.9712	539.781	48.8311
-35.9696	547.011	48.8506
-35.9686	537.781	48.8701
-35.9672	540.1781	48.8896
-35.96545	543.154	48.90918
-35.9629	544.731	48.9287
-35.9631	538.044	48.9482
-35.95993	543.719	48.9678
-35.9584	542.328	48.9873
-35.9564	541.842	49.0068
-35.9559	542.758	49.0264
-35.9537	544.636	49.0459
-35.9526	540.278	49.06543
-35.951	542.529	49.085
-35.9485	542.563	49.1045
-35.94714	541.397	49.124
-35.9458	538.738	49.1436
-35.944	544.971	49.1631
-35.9424	542.158	49.1826
-35.9409	538.56	49.2021
-35.9392	543.021	49.22168
-35.9373	542.425	49.2412
-35.9362	537.8634	49.2607
-35.934	543.602	49.2803
-35.9332	545.517	49.2998
-35.9317	538.274	49.3193
-35.93	543.447	49.3389
-35.9272	545.784	49.3584
-35.9267	540.552	49.37793
-35.9252	540.515	49.3975
-35.92342	547.086	49.417
-35.9209	538.62	49.4365
-35.9186	541.08	49.4561
-35.9185	543.654	49.4756
-35.9175	541.322	49.4951
-35.91497	539.015	49.5146
-35.9133	547.03	49.53418
-35.911	541.317	49.5537
-35.9092	539.775	49.5732
-35.9084	541.887	49.5928
-35.9072	544.335	49.6123
-35.9056	540.489	49.6318
-35.90308	542.751	49.6514
-35.9023	542.185	49.6709
-35.901	541.989	49.69043
-35.8989	540.0672	49.71
-35.8977	544.0719	49.7295
-35.8959	539.058	49.749
-35.89402	540.043	49.7686
-35.8921	543.8208	49.7881
-35.89035	542.633	49.8076
-35.8883	537.148	49.8271
-35.8874	542.419	49.84668
-35.88493	543.195	49.8662
-35.883	537.943	49.8857
-35.8816	541.929	49.9053
-35.88015	543.53	49.9248
-35.878	538.198	49.9443
-35.87714	541.018	49.9639
-35.8763	545.933	49.9834
-35.8735	535.549	50.00293
-35.87228	540.426	50.0225
-35.8709	544.308	50.042
-35.8696	539.917	50.0615
-35.86739	536.917	50.0811
-35.8666	545.237	50.1006
-35.8643	538.425	50.1201
-35.86211	540.755	50.1396
-35.8614	542.573	50.15918
-35.8606	542.321	50.1787
-35.8572	536.705	50.1982
-35.8562	544.384	50.2178
-35.8548	539.806	50.2373
-35.8529	539.196	50.2568
-35.8517	538.29	50.2764
-35.8485	545.1618	50.2959
-35.8476	539.852	50.31543
-35.8453	539.561	50.335
-35.8441	543.57	50.3545
-35.8427	539.317	50.374
-35.8413	537.076	50.3936
-35.8392	542.912	50.4131
-35.8382	541.599	50.4326
-35.8366	536.197	50.4521
-35.83588	542.6449	50.47168
-35.8335	541.942	50.4912
-35.8316	537.595	50.5107
-35.8305	540.001	50.5303
-35.8286	544.199	50.5498
-35.82766	537.842	50.5693
-35.8254	541.515	50.5889
-35.8232	543.107	50.6084
-35.8227	537.264	50.62793
-35.8207	539.983	50.6475
-35.8182	545.588	50.667
-35.8161	536.112	50.6865
-35.8153	538.798	50.7061
-35.8142	542.317	50.7256
-35.8127	541.409	50.7451
-35.8106	537.943	50.7646
-35.8098	542.3952	50.78418
-35.8072	538.9	50.8037
-35.8054	537.244	50.8232
-35.804	540.402	50.8428
-35.8032	542.852	50.8623
-35.80101	536.098	50.8818
-35.7993	542.422	50.9014
-35.7983	542.2851	50.9209
-35.7963	539.14	50.94043
-35.7939	537.393	50.96
-35.7926	543.375	50.9795
-35.7911	541.691	50.999
-35.7892	536.778	51.0186
-35.7877	540.034	51.0381
-35.7855	539.676	51.0576
-35.7854	537.141	51.0771
-35.7829	543.386	51.09668
-35.7814	541.416	51.1162
-35.78093	536.524	51.1357
-35.7784	540.969	51.1553
-35.7772	543.163	51.1748
-35.7745	538.952	51.1943
-35.7738	539.486	51.2139
-35.7723	544.002	51.2334
-35.7699	536.221	51.25293
-35.7689	540.214	51.2725
-35.767	542.403	51.292
-35.7655	537.897	51.3115
-35.763	537.24	51.3311
-35.7621	545.65	51.3506
-35.7593	538.021	51.3701
-35.7587	537.5899	51.3896
-35.757	542.639	51.40918
-35.7552	542.509	51.4287
-35.7536	537.4212	51.4482
-35.7511	542.725	51.4678
-35.7509	539.4635	51.4873
-35.7476	536.708	51.5068
-35.74614	538.903	51.5264
-35.745	542.6	51.5459
-35.7437	536.466	51.56543
-35.7432	538.3844	51.585
-35.7419	540.621	51.6045
-35.739	538.82	51.624
-35.73782	534.991	51.6436
-35.7353	541.065	51.6631
-35.7332	538.782	51.6826
-35.73251	535.493	51.7021
-35.7313	539.328	51.72168
-35.7295	539.865	51.7412
-35.727	535.313	51.7607
-35.7252	540.227	51.7803
-35.7244	543.033	51.7998
-35.7223	534.597	51.8193
-35.7208	539.518	51.8389
-35.7202	541.73	51.8584
-35.7183	536.916	51.87793
-35.7162	538.1142	51.8975
-35.715	543.229	51.917
-35.7144	534.747	51.9365
-35.7117	536.98	51.9561
-35.7097	541.091	51.9756
-35.7074	538.434	51.9951
-35.7073	535.861	52.0146
-35.7048	542.4455	52.03418
-35.7019	538.67	52.0537
-35.70163	537.666	52.0732
-35.7004	537.296	52.0928
-35.6985	540.472	52.1123
-35.6963	537.098	52.1318
-35.69458	539.3476	52.1514
-35.6935	538.2	52.1709
-35.69186	537.135	52.19043
-35.6904	536.546	52.21
-35.6888	541.971	52.2295
-35.68716	536.915	52.249
-35.6849	534.379	52.2686
-35.6833	539.037	52.2881
-35.6826	539.1474	52.3076
-35.6801	534.08	52.3271
-35.6791	539.0365	52.34668
-35.6774	539.035	52.3662
-35.67503	533.296	52.3857
-35.6743	537.442	52.4053
-35.6719	538.429	52.4248
-35.6708	532.718	52.4443
-35.669	535.3783	52.4639
-35.6676	542.317	52.4834
-35.6651	533.241	52.50293
-35.6637	536.173	52.5225
-35.6626	539.861	52.542
-35.6613	535.116	52.5615
-35.65942	535.9657	52.5811
-35.6569	541.183	52.6006
-35.6557	532.194	52.6201
-35.65451	535.273	52.6396
-35.6532	538.038	52.65918
-35.6509	537.222	52.6787
-35.6487	532.235	52.6982
-35.6481	538.214	52.7178
-35.646	536.17	52.7373
-35.6445	532.986	52.7568
-35.64341	534.6	52.7764
-35.641	538.177	52.7959
-35.6396	532.949	52.81543
-35.6382	535.724	52.835
-35.6363	535.985	52.8545
-35.6349	532.15	52.874
-35.6338	530.7735	52.8936
-35.6323	536.678	52.9131
-35.6298	534.641	52.9326
-35.6287	529.311	52.9521
-35.6265	535.464	52.97168
-35.6251	536.4422	52.9912
-35.6235	529.765	53.0107
-35.6213	534.99	53.0303
-35.6198	536.376	53.0498
-35.6186	528.652	53.0693
-35.6174	532.44	53.0889
-35.615	536.39	53.1084
-35.61301	529.083	53.12793
-35.6115	529.513	53.1475
-35.6103	536.081	53.167
-35.6083	527.109	53.1865
-35.607	529.5791	53.2061
-35.6055	533.379	53.2256
-35.6039	531.917	53.2451
-35.6026	527.3161	53.2646
-35.6005	532.996	53.28418
-35.5989	528.0564	53.3037
-35.5968	527.001	53.3232
-35.5959	530.198	53.3428
-35.5944	531.491	53.3623
-35.5924	524.703	53.3818
-35.5916	528.728	53.4014
-35.5898	527.99	53.4209
-35.5888	526.513	53.44043
-35.5861	525.171	53.46
-35.5849	527.919	53.4795
-35.5823	523.912	53.499
-35.5801	523.793	53.5186
-35.5798	525.024	53.5381
-35.5771	521.829	53.5576
-35.5764	515.133	53.5771
-35.5708	-41.1906	53.59668
-35.5707	-39.7704	53.6162
-35.5699	-50.109	53.6357
-35.5685	-41.3353	53.6553
-35.5664	-39.55917	53.6748
-35.5664	-44.2101	53.6943
-35.564	-41.6087	53.7139
-35.5612	-38.1749	53.7334
-35.5611	-46.3987	53.75293
-35.5603	-40.9781	53.7725
-35.558	-39.8676	53.792
-35.5552	-43.6373	53.8115
-35.5543	-44.244	53.8311
-35.5525	-36.7972	53.8506
-35.5518	-44.4456	53.8701
-35.5496	-43.1228	53.8896
-35.5486	-40.2251	53.90918
-35.5459	-40.4001	53.9287
-35.5453	-43.12138	53.9482
-35.5429	-39.1609	53.9678
-35.5412	-42.3521	53.9873
-35.5404	-44.33963	54.0068
-35.5381	-41.67804	54.0264
-35.5372	-38.6177	54.0459
-35.53561	-43.0077	54.06543
-35.5337	-42.3895	54.085
-35.5322	-41.5238	54.1045
-35.5308	-42.0827	54.124
-35.5288	-43.9786	54.1436
-35.527	-39.37154	54.1631
-35.5256	-42.30719	54.1826
-35.5236	-45.1566	54.2021
-35.5224	-39.775	54.22168
-35.5198	-39.5967	54.2412
-35.5189	-44.7661	54.2607
-35.5174	-41.8186	54.2803
-35.51651	-37.5867	54.2998
-35.5142	-43.7804	54.3193
-35.5124	-41.3051	54.3389
-35.51025	-38.367	54.3584
-35.5087	-44.2048	54.37793
-35.508	-43.0723	54.3975
-35.5061	-37.1433	54.417
-35.5042	-46.1307	54.4365
-35.5031	-42.8092	54.4561
-35.5007	-40.0706	54.4756
-35.4993	-40.4425	54.4951
-35.4976	-45.7449	54.5146
-35.496	-39.782	54.53418
-35.4942	-43.8806	54.5537
-35.4928	-41.827	54.5732
-35.4911	-41.5039	54.5928
-35.4894	-39.469	54.6123
-35.4884	-44.4778	54.6318
-35.4862	-41.42828	54.6514
-35.4848	-40.4228	54.6709
-35.4826	-44.0185	54.69043
-35.4813	-43.4708	54.71
-35.47974	-38.4353	54.7295
-35.47813	-40.85881	54.749
-35.4776	-44.7603	54.7686
-35.4757	-41.8173	54.7881
-35.474	-41.59	54.8076
-35.473	-45.0735	54.8271
-35.4698	-39.6103	54.84668
-35.4696	-40.5419	54.8662
-35.4673	-46.60474	54.8857
-35.4657	-40.1386	54.9053
-35.4642	-39.1923	54.9248
-35.4626	-45.9662	54.9443
-35.4601	-41.8998	54.9639
-35.4591	-37.1929	54.9834
-35.4572	-45.2039	55.00293
-35.4553	-41.6343	55.0225
-35.4544	-39.7825	55.042
-35.4527	-43.5536	55.0615
-35.4513	-43.6201	55.0811
-35.449	-34.97673	55.1006
-35.4469	-46.43425	55.1201
-35.4462	-44.5025	55.1396
-35.4452	-41.3225	55.15918
-35.4435	-39.4056	55.1787
-35.4408	-43.7233	55.1982
-35.4396	-41.2247	55.2178
-35.4385	-42.8659	55.2373
-35.4351	-43.0037	55.2568
-35.4351	-43.4034	55.2764
-35.4329	-38.90749	55.2959
-35.43137	-44.5223	55.31543
-35.4277	-41.5877	55.335
-35.4275	-40.7037	55.3545
-35.4258	-40.7438	55.374
-35.4244	-44.7707	55.3936
-35.4233	-40.9569	55.4131
-35.4201	-41.1036	55.4326
-35.4203	-45.0083	55.4521
-35.41758	-41.5573	55.47168
-35.4165	-42.66011	55.4912
-35.41539	-45.3634	55.5107
-35.4142	-40.2574	55.5303
-35.4114	-37.9931	55.5498
-35.4091	-47.9385	55.5693
-35.408	-42.3536	55.5889
-35.4072	-38.4484	55.6084
-35.4039	-44.8332	55.62793
-35.4035	-44.23967	55.6475
-35.4023	-37.7432	55.667
-35.3995	-45.809	55.6865
-35.3998	-40.7352	55.7061
-35.3968	-39.1743	55.7256
-35.3951	-42.0289	55.7451
-35.3937	-44.9421	55.7646
-35.3923	-37.3532	55.78418
-35.3903	-43.4976	55.8037
-35.3887	-44.4856	55.8232
-35.38802	-42.61932	55.8428
-35.3862	-37.8148	55.8623
-35.3835	-44.6996	55.8818
-35.38229	-42.9339	55.9014
-35.38015	-43.0736	55.9209
-35.3798	-43.7432	55.94043
-35.3784	-42.4044	55.96
-35.3747	-38.8255	55.9795
-35.37368	-42.3872	55.999
-35.3732	-44.3147	56.0186
-35.371	-38.30698	56.0381
-35.3685	-40.5443	56.0576
-35.367	-45.3298	56.0771
-35.36525	-41.9174	56.09668
-35.3648	-40.5139	56.1162
-35.3616	-46.13649	56.1357
-35.362	-42.5689	56.1553
-35.3586	-40.8786	56.1748
-35.35865	-45.5724	56.1943
-35.3558	-41.8331	56.2139
-35.354	-36.17075	56.2334
-35.353	-46.9628	56.25293
-35.3514	-43.0051	56.2725
-35.35	-39.5887	56.292
-35.3487	-42.4453	56.3115
-35.3474	-46.22213	56.3311
-35.3452	-37.016	56.3506
-35.3431	-44.4296	56.3701
-35.3419	-43.1287	56.3896
-35.3397	-40.4437	56.40918
-35.3379	-41.4087	56.4287
-35.3377	-44.387	56.4385