File: data/processed_data_files/tensile/0.254_hd_dimension_typei_090_r(6).dat
MTS793|BTW|ENU|1|2|.|/|:|1|0|0|A

Data Header:			0.254_hd_dimension_typei_090_r0			Time:	20.0173	s	4/15/2019 3:43:47 PM
Data Acquisition:	Timed
Station Name:	ft40.cfg
Test File Name:	monotonic_0.2540_typei_hd_090_dimension.tst
Displacement	Force	Running Time
mm	N	s
9.97963	-140.789	0.0227051
9.97964	-133.633	0.0422363
9.98043	-137.678	0.0617676
9.981	-140.654	0.0812988
9.98219	-138.925	0.10083
9.98448	-127.566	0.120361
9.98497	-136.249	0.139893
9.9872	-135.416	0.159424
9.98926	-125.231	0.178955
9.99024	-129.562	0.198486
9.9919	-135.82	0.218018
9.99395	-123.0035	0.237549
9.99514	-127.361	0.25708
9.99736	-130.668	0.276611
9.99906	-122.89	0.296143
9.99962	-124.255	0.315674
10.0012	-131.861	0.335205
10.003	-120.533	0.354736
10.005	-117.874	0.374268
10.0061	-126.705	0.393799
10.0081	-120.967	0.41333
10.0092	-115.995	0.432861
10.0106	-120.816	0.452393
10.013	-119.081	0.471924
10.01532	-111.811	0.491455
10.0159	-115.615	0.510986
10.019	-115.73	0.530518
10.01996	-109.263	0.550049
10.0217	-111.745	0.56958
10.0229	-117.013	0.589111
10.0239	-109.992	0.608643
10.0264	-107.303	0.628174
10.0282	-110.081	0.647705
10.0296	-110.399	0.667236
10.0316	-101.552	0.686768
10.03322	-110.4726	0.706299
10.0335	-104.5282	0.72583
10.0357	-97.8348	0.745361
10.0373	-102.788	0.764893
10.0397	-106.42	0.784424
10.0407	-93.5455	0.803955
10.0422	-99.5155	0.823486
10.0432	-103.551	0.843018
10.0455	-94.4403	0.862549
10.0469	-93.48732	0.88208
10.0487	-102.0826	0.901611
10.0503	-90.6779	0.921143
10.0512	-90.8492	0.940674
10.05305	-96.6992	0.960205
10.0554	-88.3078	0.979736
10.0561	-86.7419	0.999268
10.05945	-95.4918	1.0188
10.0599	-89.7756	1.03833
10.0637	-81.8282	1.05786
10.0635	-87.7443	1.07739
10.0656	-87.9073	1.09692
10.0664	-82.2209	1.11646
10.0679	-85.0937	1.13599
10.0702	-87.3476	1.15552
10.0726	-77.4803	1.17505
10.0733	-81.1569	1.19458
10.07508	-83.32679	1.21411
10.0766	-77.31591	1.23364
10.0785	-73.51252	1.25317
10.0806	-81.8409	1.27271
10.0807	-74.77903	1.29224
10.08375	-70.0311	1.31177
10.084	-73.9909	1.3313
10.0861	-76.0015	1.35083
10.0883	-65.9777	1.37036
10.0901	-73.6779	1.38989
10.0906	-70.38858	1.40942
10.0925	-61.6979	1.42896
10.0937	-66.0113	1.44849
10.0965	-73.75766	1.46802
10.0983	-59.9554	1.48755
10.0987	-62.4252	1.50708
10.0997	-67.9756	1.52661
10.1032	-60.1682	1.54614
10.1038	-57.9275	1.56567
10.1051	-67.73481	1.58521
10.1072	-54.6112	1.60474
10.1076	-54.54446	1.62427
10.11	-60.7098	1.6438
10.1123	-56.4986	1.66333
10.1144	-48.8888	1.68286
10.1156	-58.8796	1.70239
10.1174	-55.5919	1.72192
10.1187	-48.9336	1.74146
10.1205	-50.9498	1.76099
10.1209	-52.6627	1.78052
10.1232	-46.00568	1.80005
10.1251	-48.616	1.81958
10.1265	-52.1334	1.83911
10.1283	-43.7252	1.85864
10.1305	-44.0099	1.87817
10.1309	-50.0897	1.89771
10.1326	-46.4452	1.91724
10.1361	-38.6879	1.93677
10.1373	-47.2652	1.9563
10.1378	-43.1858	1.97583
10.1399	-38.6412	1.99536
10.1418	-39.7779	2.01489
10.1434	-45.4018	2.03442
10.1444	-30.9463	2.05396
10.1459	-37.1703	2.07349
10.1494	-39.4959	2.09302
10.1497	-31.2381	2.11255
10.1507	-29.46069	2.13208
10.152	-39.5505	2.15161
10.1543	-28.4053	2.17114
10.1564	-28.8933	2.19067
10.1583	-32.1402	2.21021
10.1589	-26.9398	2.22974
10.1608	-24.0003	2.24927
10.1625	-33.9977	2.2688
10.16499	-26.5195	2.28833
10.1654	-20.2639	2.30786
10.1681	-26.3369	2.32739
10.1694	-26.6361	2.34692
10.172	-18.6233	2.36646
10.1724	-22.2467	2.38599
10.1743	-22.972	2.40552
10.1756	-16.5775	2.42505
10.1783	-16.4404	2.44458
10.1799	-21.1928	2.46411
10.1801	-14.53	2.48364
10.1822	-15.662	2.50317
10.1838	-20.2825	2.52271
10.1851	-13.1034	2.54224
10.1877	-8.80565	2.56177
10.189	-13.8206	2.5813
10.1899	-14.3887	2.60083
10.1915	-5.60939	2.62036
10.1935	-8.93896	2.63989
10.1952	-10.439	2.65942
10.1972	-2.89802	2.67896
10.1987	-5.69924	2.69849
10.2002	-9.94422	2.71802
10.2012	0.900327	2.73755
10.2029	-1.75113	2.75708
10.2054	-5.57837	2.77661
10.2065	3.30594	2.79614
10.2083	6.76558	2.81567
10.2081	-6.89439	2.83521
10.2113	4.50454	2.85474
10.2129	4.80201	2.87427
10.215	2.58698	2.8938
10.217	6.07909	2.91333
10.2173	13.0849	2.93286
10.2201	2.49726	2.95239
10.2218	7.07857	2.97192
10.2222	15.0827	2.99146
10.2235	12.3916	3.01099
10.2258	8.78799	3.03052
10.2279	17.1614	3.05005
10.23039	13.9673	3.06958
10.2316	11.5249	3.08911
10.2323	18.3743	3.10864
10.2344	19.595	3.12817
10.2361	14.7771	3.14771
10.2376	20.4861	3.16724
10.2393	23.4499	3.18677
10.2413	15.8368	3.2063
10.2429	20.119	3.22583
10.2443	28.1097	3.24536
10.2446	22.2732	3.26489
10.2469	20.2993	3.28442
10.2483	31.063	3.30396
10.2508	27.4555	3.32349
10.25226	24.4214	3.34302
10.255	33.07634	3.36255
10.25483	33.3254	3.38208
10.257	23.3657	3.40161
10.2589	36.1544	3.42114
10.26021	36.5591	3.44067
10.2621	31.7732	3.46021
10.26425	36.127	3.47974
10.2655	42.7454	3.49927
10.2665	32.0728	3.5188
10.2683	39.2355	3.53833
10.2699	43.4249	3.55786
10.2716	37.432	3.57739
10.2736	39.5291	3.59692
10.2742	50.0129	3.61646
10.2771	40.4197	3.63599
10.2788	41.2079	3.65552
10.2802	48.4296	3.67505
10.281	50.6871	3.69458
10.2837	44.1484	3.71411
10.2848	51.1776	3.73364
10.2862	50.7659	3.75317
10.2882	47.2107	3.77271
10.2892	52.9744	3.79224
10.2908	55.3988	3.81177
10.2927	50.4327	3.8313
10.2952	51.97324	3.85083
10.296	60.03841	3.87036
10.2973	54.5303	3.88989
10.29924	54.289	3.90942
10.3002	62.7154	3.92896
10.3026	61.3081	3.94849
10.305	57.0136	3.96802
10.30585	65.0106	3.98755
10.3078	64.8899	4.00708
10.3081	59.665	4.02661
10.3102	67.6352	4.04614
10.3131	71.9685	4.06567
10.313	60.28611	4.08521
10.316	70.6183	4.10474
10.3171	71.9724	4.12427
10.3199	68.86898	4.1438
10.3199	70.1058	4.16333
10.3223	78.182	4.18286
10.323	68.0807	4.20239
10.3257	74.9309	4.22192
10.327	79.6395	4.24146
10.3293	77.1177	4.26099
10.3305	73.56041	4.28052
10.3321	85.355	4.30005
10.3333	78.9096	4.31958
10.3351	77.4082	4.33911
10.3365	83.0605	4.35864
10.3384	87.8566	4.37817
10.34092	80.4224	4.39771
10.3408	84.5567	4.41724
10.3441	88.1781	4.43677
10.3453	85.9659	4.4563
10.3469	86.8838	4.47583
10.3473	94.4386	4.49536
10.3505	87.8143	4.51489
10.3525	86.2532	4.53442
10.3527	97.3557	4.55396
10.35496	92.9376	4.57349
10.3556	89.6344	4.59302
10.3572	96.1333	4.61255
10.35853	98.9238	4.63208
10.3612	92.7707	4.65161
10.3633	99.5877	4.67114
10.3642	101.03	4.69067
10.3655	94.47554	4.71021
10.3678	100.853	4.72974
10.3694	108.298	4.74927
10.37154	96.201	4.7688
10.3715	102.641	4.78833
10.37474	108.163	4.80786
10.3757	105.264	4.82739
10.3775	103.965	4.84692
10.3786	114.194	4.86646
10.3803	105.452	4.88599
10.3832	108.993	4.90552
10.3846	114.284	4.92505
10.386	116.231	4.94458
10.3883	107.921	4.96411
10.38931	116.159	4.98364
10.3899	115.3902	5.00317
10.3917	112.476	5.02271
10.39408	116.634	5.04224
10.3956	121.507	5.06177
10.3969	114.83	5.0813
10.3989	120.845	5.10083
10.4005	124.103	5.12036
10.4014	119.849	5.13989
10.4044	118.668	5.15942
10.4056	129.124	5.17896
10.4062	125.0709	5.19849
10.4075	120.154	5.21802
10.4104	128.018	5.23755
10.4117	130.894	5.25708
10.41178	127.198	5.27661
10.4156	132.182	5.29614
10.4167	135.619	5.31567
10.4173	124.733	5.33521
10.41954	134.185	5.35474
10.4217	139.276	5.37427
10.4233	132.769	5.3938
10.4252	134.591	5.41333
10.42563	143.527	5.43286
10.428	134.145	5.45239
10.42985	137.742	5.47192
10.4313	141.418	5.49146
10.4331	141.258	5.51099
10.4346	139.12	5.53052
10.4364	148.883	5.55005
10.438	141.889	5.56958
10.4383	142.079	5.58911
10.4404	148.849	5.60864
10.4423	152.631	5.62817
10.4442	144.809	5.64771
10.4463	150.191	5.66724
10.4471	151.5358	5.68677
10.44939	149.866	5.7063
10.4511	150.644	5.72583
10.4522	158.587	5.74536
10.4537	151.211	5.76489
10.4561	153.249	5.78442
10.4573	158.785	5.80396
10.4589	158.315	5.82349
10.4602	153.638	5.84302
10.4607	164.344	5.86255
10.4632	163.332	5.88208
10.4649	156.496	5.90161
10.467	161.87	5.92114
10.4686	166.269	5.94067
10.47	160.047	5.96021
10.4712	165.655	5.97974
10.4731	171.59	5.99927
10.4745	162.253	6.0188
10.477	166.869	6.03833
10.4782	174.512	6.05786
10.4795	169.06	6.07739
10.482	167.5	6.09692
10.48366	177.567	6.11646
10.4844	171.811	6.13599
10.4865	172.066	6.15552
10.48805	179.814	6.17505
10.4903	179.255	6.19458
10.4913	171.281	6.21411
10.4927	184.431	6.23364
10.4943	180.961	6.25317
10.4965	175.708	6.27271
10.4989	179.348	6.29224
10.499	190.116	6.31177
10.5005	180.575	6.3313
10.5032	185.565	6.35083
10.5043	186.863	6.37036
10.5057	186.29	6.38989
10.50788	184.015	6.40942
10.5088	193.616	6.42896
10.5103	190.057	6.44849
10.5125	186.886	6.46802
10.5137	193.298	6.48755
10.5153	196.256	6.50708
10.5172	188.913	6.52661
10.5187	196.753	6.54614
10.5207	198.2525	6.56567
10.52286	192.627	6.58521
10.5237	194.899	6.60474
10.526	202.778	6.62427
10.5278	196.2196	6.6438
10.5289	200.8466	6.66333
10.5302	208.071	6.68286
10.5324	200.624	6.70239
10.5337	200.138	6.72192
10.536	209.527	6.74146
10.5368	205.816	6.76099
10.5384	202.285	6.78052
10.5398	212.207	6.80005
10.5421	207.275	6.81958
10.5428	205.222	6.83911
10.5455	212.488	6.85864
10.5463	214.698	6.87817
10.5479	207.912	6.89771
10.54937	217.688	6.91724
10.5516	217.329	6.93677
10.5541	213.287	6.9563
10.5547	213.132	6.97583
10.5562	223.261	6.99536
10.5582	215.7804	7.01489
10.5597	219.847	7.03442
10.5617	222.721	7.05396
10.5638	221.489	7.07349
10.5651	217.072	7.09302
10.5668	228.424	7.11255
10.5675	227.639	7.13208
10.56907	220.192	7.15161
10.57012	225.654	7.17114
10.5728	234.061	7.19067
10.5748	224.6787	7.21021
10.5756	229.2173	7.22974
10.5774	235.812	7.24927
10.5794	226.51	7.2688
10.5803	229.513	7.28833
10.5824	240.487	7.30786
10.5843	232.7576	7.32739
10.5859	233.073	7.34692
10.5873	244.8506	7.36646
10.5893	236.053	7.38599
10.5912	235.855	7.40552
10.5918	242.511	7.42505
10.5947	241.923	7.44458
10.5948	237.086	7.46411
10.5979	246.553	7.48364
10.599	244.672	7.50317
10.5994	240.615	7.52271
10.6024	246.176	7.54224
10.6044	253.565	7.56177
10.60525	243.096	7.5813
10.6069	248.1228	7.60083
10.6088	250.6404	7.62036
10.61	249.972	7.63989
10.6121	247.721	7.65942
10.6135	257.432	7.67896
10.6151	253.423	7.69849
10.6166	251.807	7.71802
10.618	256.542	7.73755
10.61955	259.489	7.75708
10.6207	251.46	7.77661
10.6229	262.71	7.79614
10.6251	262.868	7.81567
10.6264	258.145	7.83521
10.6291	261.027	7.85474
10.6298	268.111	7.87427
10.6316	257.966	7.8938
10.6323	263.272	7.91333
10.6346	271.702	7.93286
10.6358	263.513	7.95239
10.6373	262.581	7.97192
10.639	274.695	7.99146
10.6409	267.751	8.01099
10.64254	265.831	8.03052
10.64505	275.828	8.05005
10.6459	273.706	8.06958
10.6477	267.093	8.08911
10.6485	276.04	8.10864
10.6512	276.97	8.12817
10.65218	272.001	8.14771
10.6541	280.593	8.16724
10.6555	279.525	8.18677
10.6568	274.649	8.2063
10.6582	279.166	8.22583
10.6608	287.949	8.24536
10.6621	281.827	8.26489
10.6646	280.299	8.28442
10.6655	286.258	8.30396
10.6673	286.188	8.32349
10.668	281.25	8.34302
10.6697	293.028	8.36255
10.6718	288.807	8.38208
10.6742	285.789	8.40161
10.6755	289.8862	8.42114
10.6763	295.357	8.44067
10.6784	284.708	8.46021
10.6809	293.378	8.47974
10.6815	299.903	8.49927
10.6843	293.855	8.5188
10.685	291.738	8.53833
10.6875	304.269	8.55786
10.6881	293.981	8.57739
10.6895	297.064	8.59692
10.6919	305.921	8.61646
10.69283	300.3624	8.63599
10.695	292.636	8.65552
10.6957	307.996	8.67505
10.6989	306.197	8.69458
10.6999	299.076	8.71411
10.7018	308.132	8.73364
10.70322	310.291	8.75317
10.7044	300.969	8.77271
10.7063	307.611	8.79224
10.7063	314.849	8.81177
10.7099	305.3392	8.8313
10.7116	312.3	8.85083
10.7126	317.49	8.87036
10.7142	310.196	8.88989
10.7161	310.512	8.90942
10.7173	319.909	8.92896
10.72	316.204	8.94849
10.7211	313.296	8.96802
10.7214	319.24	8.98755
10.7242	322.532	9.00708
10.7259	314.194	9.02661
10.7277	324.428	9.04614
10.7292	324.807	9.06567
10.7305	319.18	9.08521
10.7314	319.8909	9.10474
10.7331	332.347	9.12427
10.73491	321.005	9.1438
10.7369	325.625	9.16333
10.7385	334.252	9.18286
10.7406	327.617	9.20239
10.7418	324.59	9.22192
10.7434	338.107	9.24146
10.7438	328.457	9.26099
10.7468	327.398	9.28052
10.7485	340.184	9.30005
10.7504	336.527	9.31958
10.753	326.673	9.33911
10.7535	339.5015	9.35864
10.7545	342.577	9.37817
10.7559	333.509	9.39771
10.75745	341.138	9.41724
10.7606	342.448	9.43677
10.7606	336.156	9.4563
10.7638	340.253	9.47583
10.7654	350.223	9.49536
10.766	340.46	9.51489
10.7684	340.74	9.53442
10.7702	351.11	9.55396
10.7705	345.223	9.57349
10.7732	341.785	9.59302
10.7748	352.631	9.61255
10.77607	351.839	9.63208
10.7772	347.363	9.65161
10.7805	352.249	9.67114
10.7817	357.638	9.69067
10.7822	346.237	9.71021
10.784	356.426	9.72974
10.7849	361.507	9.74927
10.7873	353.246	9.7688
10.7888	351.405	9.78833
10.7907	364.503	9.80786
10.7931	356.603	9.82739
10.7933	357.135	9.84692
10.7948	366.086	9.86646
10.7974	362.013	9.88599
10.7999	355.1683	9.90552
10.8007	370.907	9.92505
10.8022	367.089	9.94458
10.8049	359.625	9.96411
10.80489	370.045	9.98364
10.807	371.883	10.0032
10.8086	362.175	10.0227
10.80989	369.27	10.0422
10.8121	375.816	10.0618
10.8141	367.536	10.0813
10.8155	374.3717	10.10083
10.8166	378.5733	10.1204
10.8183	370.593	10.1399
10.8209	372.883	10.1594
10.8209	384.333	10.179
10.8237	376.2879	10.1985
10.8257	374.1496	10.218
10.827	382.566	10.2375
10.8288	381.707	10.25708
10.8299	376.4765	10.2766
10.8314	385.312	10.2961
10.833	387.064	10.3157
10.8351	380.265	10.3352
10.8356	382.23	10.3547
10.8377	391.452	10.3743
10.839	381.126	10.3938
10.84104	386.969	10.41333
10.8431	395.555	10.4329
10.8451	387.914	10.4524
10.8463	383.513	10.4719
10.8478	398.9415	10.4915
10.8483	391.27	10.511
10.85068	390.783	10.5305
10.8528	400.008	10.55
10.8537	398.333	10.56958
10.8563	388.69	10.5891
10.8578	402.192	10.6086
10.859	401.1275	10.6282
10.8603	394.693	10.6477
10.8631	401.664	10.6672
10.8642	408.721	10.6868
10.8649	397.983	10.7063
10.8679	402.684	10.72583
10.8698	408.663	10.7454
10.8703	402.023	10.7649
10.872	403.941	10.7844
10.87387	411.865	10.804
10.87544	406.58	10.8235
10.8767	405.358	10.843
10.8777	414.996	10.8625
10.88	413.172	10.88208
10.8817	407.3064	10.9016
10.8834	413.859	10.9211
10.8841	417.752	10.9407
10.8865	408.699	10.9602
10.8885	417.586	10.9797
10.8909	421.577	10.9993
10.89136	413.819	11.0188
10.8942	415.362	11.03833
10.89527	428.384	11.0579
10.8972	416.083	11.0774
10.8988	419.314	11.0969
10.9005	425.797	11.1165
10.9008	424.376	11.136
10.9039	416.272	11.1555
10.9042	429.782	11.175
10.9071	425.719	11.19458
10.9077	422.242	11.2141
10.91	431.514	11.2336
10.9115	433.695	11.2532
10.9128	420.708	11.2727
10.91356	433.964	11.2922
10.916	435.598	11.3118
10.9171	428.751	11.3313
10.9194	433.449	11.35083
10.9211	441.02	11.3704
10.9233	429.729	11.3899
10.9238	435.442	11.4094
10.9262	441.794	11.429
10.9283	436.8519	11.4485
10.9299	434.918	11.468
10.9309	444.023	11.4875
10.9336	441.6033	11.50708
10.9339	437.282	11.5266
10.9348	445.09	11.5461
10.9374	445.884	11.5657
10.9386	441.566	11.5852
10.9402	445.826	11.6047
10.94173	450.51	11.6243
10.9435	440.568	11.6438
10.9451	447.685	11.66333
10.9467	455.109	11.6829
10.9496	448.7135	11.7024
10.9496	444.138	11.7219
10.9522	458.428	11.7415
10.95338	452.065	11.761
10.9543	449.942	11.7805
10.9572	459.059	11.8
10.9587	459.358	11.81958
10.9608	450.651	11.8391
10.9621	462.297	11.8586
10.9633	460.873	11.8782
10.9656	452.438	11.8977
10.9667	461.897	11.9172
10.9679	469.267	11.9368
10.97038	454.001	11.9563
10.9711	460.712	11.97583
10.9736	468.982	11.9954
10.9752	464.318	12.0149
10.9767	463.1214	12.0344
10.9785	472.708	12.054
10.9802	463.109	12.0735
10.9809	464.888	12.093
10.9826	475.432	12.1125
10.9847	471.4523	12.13208
10.9858	466.381	12.1516
10.9879	475.576	12.1711
10.9895	476.003	12.1907
10.9908	469.837	12.2102
10.9929	476.875	12.2297
10.9944	479.966	12.2493
10.9955	475.222	12.2688
10.9978	476	12.28833
10.9991	483.234	12.3079
10.99976	476.255	12.3274
11.0028	477.983	12.3469
11.0036	488.729	12.3665
11.0063	485.402	12.386
11.0067	475.782	12.4055
11.0102	489.535	12.425
11.0105	486.803	12.44458
11.013	481.5694	12.4641
11.0137	491.695	12.4836
11.015	492.233	12.5032
11.0168	480.183	12.5227
11.0173	492.282	12.5422
11.0205	495.191	12.5618
11.0216	486.542	12.5813
11.0237	490.55	12.60083
11.02494	500.866	12.6204
11.0263	490.251	12.6399
11.0285	494.154	12.6594
11.0293	500.128	12.679
11.0327	496.725	12.6985
11.0329	493.3266	12.718
11.0349	505.223	12.7375
11.0363	497.274	12.75708
11.0379	495.78	12.7766
11.0396	502.821	12.7961
11.0411	505.789	12.8157
11.0429	500.175	12.8352
11.0453	503.8494	12.8547
11.0459	508.821	12.8743
11.0466	501.862	12.8938
11.0488	504.552	12.91333
11.05146	511.684	12.9329
11.0533	506.655	12.9524
11.0548	506.582	12.9719
11.0557	514.199	12.9915
11.0574	509.1088	13.011
11.0589	507.1366	13.0305
11.0613	518	13.05
11.06213	518.525	13.06958
11.0638	507.248	13.0891
11.0658	519.416	13.1086
11.0679	518.883	13.1282
11.0692	514.495	13.1477
11.0703	520.64	13.1672
11.0727	526.701	13.1868
11.0742	513.327	13.2063
11.075	521.4054	13.22583
11.0773	527.749	13.2454
11.07841	521.893	13.2649
11.0805	520.8667	13.2844
11.0824	532.06	13.304
11.0839	522.7	13.3235
11.0856	523.585	13.343
11.0874	531.293	13.3625
11.0888	532.355	13.38208
11.0911	524.751	13.4016
11.0925	535.52	13.4211
11.0943	533.25	13.4407
11.0949	527.108	13.4602
11.0961	532.424	13.4797
11.0991	540.022	13.4993
11.1005	533.078	13.5188
11.1019	532.965	13.53833
11.1036	538.648	13.5579
11.1052	535.873	13.5774
11.1072	535.488	13.5969
11.1086	542.063	13.6165
11.1093	539.733	13.636
11.1109	534.217	13.6555
11.1131	547.4411	13.675
11.1137	545.537	13.69458
11.117	539.412	13.7141
11.1172	545.581	13.7336
11.119	551.572	13.7532
11.12095	539.377	13.7727
11.12313	548.3277	13.7922
11.1248	552.9834	13.8118
11.1264	544.931	13.8313
11.1283	549.645	13.85083
11.1294	558.249	13.8704
11.1324	544.456	13.8899
11.1321	550.113	13.9094
11.1344	557.591	13.929
11.1355	553.495	13.9485
11.1371	550.54	13.968
11.13935	561.282	13.9875
11.1401	554.266	14.00708
11.1416	554.887	14.0266
11.1439	560.303	14.0461
11.146	564.96	14.0657
11.1472	555.194	14.0852
11.1484	564.016	14.1047
11.1501	564.514	14.1243
11.1517	560.298	14.1438
11.1547	561.827	14.16333
11.1552	571.031	14.1829
11.1568	564.98	14.2024
11.1582	562.242	14.2219
11.1607	569.7052	14.2415
11.162	567.888	14.261
11.1636	563.986	14.2805
11.165	574.138	14.3
11.1651	572.5329	14.31958
11.1685	564.813	14.3391
11.1703	574.293	14.3586
11.1715	576.769	14.3782
11.1721	570.038	14.3977
11.1752	575.297	14.4172
11.17652	583.167	14.4368
11.177	569.526	14.4563
11.1797	577.776	14.47583
11.18187	583.236	14.4954
11.1833	576.644	14.5149
11.1842	575.591	14.5344
11.1863	588.125	14.554
11.1881	578.742	14.5735
11.1897	577.904	14.593
11.1908	587.097	14.6125
11.1933	587.838	14.63208
11.1946	578.7818	14.6516
11.1967	589.578	14.6711
11.19784	587.604	14.6907
11.199	582.541	14.7102
11.201	589.1795	14.7297
11.2016	592.971	14.7493
11.2049	585.177	14.7688
11.2058	590.449	14.78833
11.2068	594.899	14.8079
11.209	591.333	14.8274
11.2103	587.859	14.8469
11.2119	598.651	14.8665
11.214	594.783	14.886
11.2157	591.765	14.9055
11.2166	598.943	14.925
11.2189	598.946	14.94458
11.2208	591.714	14.9641
11.2224	602.936	14.9836
11.2231	605.1319	15.0032
11.2255	594.514	15.0227
11.227	601.631	15.0422
11.2291	608.304	15.0618
11.2299	600.254	15.0813
11.2318	603.99	15.10083
11.2329	612.416	15.1204
11.235	601.533	15.1399
11.2363	603.109	15.1594
11.2378	612.819	15.179
11.241	609.863	15.1985
11.2419	604.939	15.218
11.2434	616.136	15.2375
11.245	610.921	15.25708
11.2462	606.807	15.2766
11.2487	615.433	15.2961
11.2498	619.744	15.3157
11.2514	609.813	15.3352
11.2533	618.74	15.3547
11.2537	619.759	15.3743
11.2562	613.172	15.3938
11.2584	615.22	15.41333
11.259	625.591	15.4329
11.2612	617.486	15.4524
11.2631	618.746	15.4719
11.2646	624.645	15.4915
11.2662	622.027	15.511
11.2681	616.911	15.5305
11.2693	627.268	15.55
11.2703	627.676	15.56958
11.2735	619.236	15.5891
11.2749	628.569	15.6086
11.2764	633.636	15.6282
11.2774	621.055	15.6477
11.2781	628.071	15.6672
11.2801	636.218	15.6868
11.2823	627.445	15.7063
11.2845	628.493	15.72583
11.286	638.076	15.7454
11.2863	630.249	15.7649
11.289	631.253	15.7844
11.2901	643.047	15.804
11.2916	634.084	15.8235
11.2948	631.427	15.843
11.2955	641.274	15.8625
11.2981	640.6377	15.88208
11.29818	632.068	15.9016
11.3006	644.277	15.9211
11.301	642.485	15.9407
11.3046	637.639	15.9602
11.3046	643	15.9797
11.3064	649.04	15.9993
11.3079	639.548	16.0188
11.3096	645.12	16.03833
11.3121	650.422	16.0579
11.3136	644.695	16.0774
11.31518	641.496	16.0969
11.317	652.916	16.1165
11.3175	649.61	16.136
11.3192	647.357	16.1555
11.32109	651.822	16.175
11.3232	654.284	16.19458
11.3246	645.826	16.2141
11.3254	655.857	16.2336
11.3281	657.394	16.2532
11.3298	647.903	16.2727
11.3308	654.219	16.2922
11.33364	663.712	16.3118
11.3339	652.385	16.3313
11.3362	656.067	16.35083
11.3379	665.213	16.3704
11.3389	656.316	16.3899
11.341	655.525	16.4094
11.3424	666.586	16.429
11.3441	660.742	16.4485
11.3458	656.689	16.468
11.3472	670.17	16.4875
11.3497	664.333	16.50708
11.3501	658.77	16.5266
11.3529	668.661	16.5461
11.3534	672.512	16.5657
11.3567	661.401	16.5852
11.3573	670.232	16.6047
11.3602	672.73	16.6243
11.3603	665.968	16.6438
11.36154	669.242	16.66333
11.3637	677.99	16.6829
11.36574	669.12	16.7024
11.366	671.177	16.7219
11.36783	676.629	16.7415
11.3705	675.6449	16.761
11.37146	667.597	16.7805
11.3733	681.226	16.8
11.3752	677.707	16.81958
11.3764	673.713	16.8391
11.37854	678.341	16.8586
11.38	683.964	16.8782
11.3827	674.22	16.8977
11.3841	684.006	16.9172
11.3851	688.529	16.9368
11.3866	678.4068	16.9563
11.3868	679.327	16.97583
11.39042	691.061	16.9954
11.3916	680.631	17.0149
11.3927	682.603	17.0344
11.3943	692.577	17.054
11.3957	685.637	17.0735
11.3979	682.227	17.093
11.39992	694.007	17.1125
11.4006	690.923	17.13208
11.4032	684.883	17.1516
11.404	695.77	17.1711
11.4061	695.333	17.1907
11.4074	686.525	17.2102
11.40943	694.207	17.2297
11.4097	697.863	17.2493
11.4132	689.864	17.2688
11.4144	695.602	17.28833
11.4159	697.669	17.3079
11.4169	692.394	17.3274
11.4185	691.514	17.3469
11.4212	706.421	17.3665
11.4215	698.201	17.386
11.4247	696.394	17.4055
11.4251	702.609	17.425
11.4275	704.947	17.44458
11.4288	696.114	17.4641
11.4292	706.713	17.4836
11.432	709.128	17.5032
11.4334	701.251	17.5227
11.4359	705.002	17.5422
11.4368	711.18	17.5618
11.4381	699.362	17.5813
11.43921	706.453	17.60083
11.4423	715.886	17.6204
11.44369	706.839	17.6399
11.444	702.646	17.6594
11.4465	716.793	17.679
11.4486	709.771	17.6985
11.4508	706.946	17.718
11.4513	718.6236	17.7375
11.4529	713.192	17.75708
11.4547	706.436	17.7766
11.4561	719.162	17.7961
11.4579	717.404	17.8157
11.4606	708.235	17.8352
11.4609	719.085	17.8547
11.46249	721.493	17.8743
11.4642	714.0813	17.8938
11.4668	717.376	17.91333
11.4683	726.0882	17.9329
11.46985	716.239	17.9524
11.4709	718.8476	17.9719
11.4721	726.616	17.9915
11.4737	723.138	18.011
11.4761	716.757	18.0305
11.4779	728.528	18.05
11.4789	726.73	18.06958
11.4804	722.098	18.0891
11.4814	725.854	18.1086
11.4839	731.4173	18.1282
11.48567	720.992	18.1477
11.4872	731.049	18.1672
11.4884	735.511	18.1868
11.4908	724.671	18.2063
11.4919	727.969	18.22583
11.4938	740.808	18.2454
11.4959	728.669	18.2649
11.4979	728.962	18.2844
11.4982	739.909	18.304
11.5005	734.561	18.3235
11.5017	726.742	18.343
11.5045	741.166	18.3625
11.5059	738.186	18.38208
11.5054	732.019	18.4016
11.5088	742.776	18.4211
11.51093	741.801	18.4407
11.5129	730.969	18.4602
11.5139	741.242	18.4797
11.5154	746.869	18.4993
11.5178	735.898	18.5188
11.5183	741.215	18.53833
11.5203	747.025	18.5579
11.5219	738.884	18.5774
11.5234	739.519	18.5969
11.5252	749.4118	18.6165
11.5263	741.551	18.636
11.52782	742.714	18.6555
11.5293	750.621	18.675
11.5305	750.773	18.69458
11.5329	740.51	18.7141
11.5357	753.675	18.7336
11.53646	752.927	18.7532
11.5384	747.68	18.7727
11.5409	747.895	18.7922
11.5407	756.95	18.8118
11.5434	746.808	18.8313
11.54563	754.524	18.85083
11.5463	761.812	18.8704
11.5465	751.8551	18.8899
11.5503	749.3053	18.9094
11.5508	763.14	18.929
11.5532	754.001	18.9485
11.5535	752.919	18.968
11.5556	762.777	18.9875
11.5579	761.529	19.00708
11.5586	752.333	19.0266
11.5618	762.2016	19.0461
11.562	763.134	19.0657
11.5646	754.994	19.0852
11.5651	764.636	19.1047
11.5676	767.615	19.1243
11.5688	756.4585	19.1438
11.5704	761.54	19.16333
11.5725	770.028	19.1829
11.5728	763.156	19.2024
11.576	762.093	19.2219
11.5771	771.55	19.2415
11.5788	763.68	19.261
11.5793	765.373	19.2805
11.5822	775.914	19.3
11.583	769.013	19.31958
11.5849	766.038	19.3391
11.5866	771.346	19.3586
11.5884	775.949	19.3782
11.589	765.516	19.3977
11.59	773.478	19.4172
11.59419	777.026	19.4368
11.59546	771.979	19.4563
11.5973	770.687	19.47583
11.5989	780.132	19.4954
11.5993	770.161	19.5149
11.6012	773.006	19.5344
11.6027	782.41	19.554
11.6037	777.771	19.5735
11.6049	770.233	19.593
11.6088	784.732	19.6125
11.61008	779.3	19.63208
11.6109	774.466	19.6516
11.6125	782.4259	19.6711
11.6144	784.582	19.6907
11.6167	772.518	19.7102
11.6178	785.837	19.7297
11.6188	786.414	19.7493
11.6203	777.801	19.7688
11.6226	783.414	19.78833
11.6233	790.434	19.8079
11.6267	779.922	19.8274
11.6275	781.909	19.8469
11.6285	790.441	19.8665
11.6313	784.268	19.886
11.6321	783.575	19.9055
11.6331	791.0119	19.925
11.6361	786.622	19.94458
11.6379	782.221	19.9641
11.6389	791.881	19.9836
11.6403	792.401	20.0032
11.6414	789.707	20.0129

Data Header:			0.254_hd_dimension_typei_090_r0			Time:	40.0176	s	4/15/2019 3:44:07 PM
Data Acquisition:	Timed
Station Name:	ft40.cfg
Test File Name:	monotonic_0.2540_typei_hd_090_dimension.tst
Displacement	Force	Running Time
mm	N	s
11.64202	786.219	20.0227
11.6439	788.23	20.0422
11.6449	797.833	20.0618
11.6465	787.009	20.0813
11.6483	791.017	20.10083
11.6496	797.738	20.1204
11.6508	791.824	20.1399
11.6525	788.844	20.1594
11.6547	802.602	20.179
11.656	793.569	20.1985
11.6575	792.5163	20.218
11.6585	800.159	20.2375
11.6619	802.1825	20.25708
11.6627	788.994	20.2766
11.6635	800.92	20.2961
11.6671	801.714	20.3157
11.6673	794.331	20.3352
11.6696	800.974	20.3547
11.6716	805.768	20.3743
11.6727	793.09	20.3938
11.6746	801.98	20.41333
11.6761	806.21	20.4329
11.6786	799.759	20.4524
11.6798	798.997	20.4719
11.6811	807.979	20.4915
11.6819	801.213	20.511
11.6845	801.515	20.5305
11.6852	808.156	20.55
11.6872	804.936	20.56958
11.6895	802.201	20.5891
11.691	808.776	20.6086
11.6924	809.368	20.6282
11.6933	801.467	20.6477
11.6959	809.892	20.6672
11.6975	814.295	20.6868
11.6997	806.036	20.7063
11.7016	805.659	20.72583
11.7028	814.32	20.7454
11.7031	806.914	20.7649
11.70466	809.154	20.7844
11.7072	816.34	20.804
11.7092	812.007	20.8235
11.71144	804.658	20.843
11.712	819.201	20.8625
11.7142	814.893	20.88208
11.7153	809.618	20.9016
11.7175	817.634	20.9211
11.7182	819.576	20.9407
11.719	807.615	20.9602
11.7213	818.277	20.9797
11.7244	819.659	20.9993
11.7257	813.61	21.0188
11.7268	817.153	21.03833
11.7287	825.483	21.0579
11.72974	811.641	21.0774
11.7314	815.315	21.0969
11.7333	826.203	21.1165
11.7358	820.01	21.136
11.7362	814.333	21.1555
11.738	824.33	21.175
11.7398	819.3501	21.19458
11.7416	815.263	21.2141
11.7427	823.684	21.2336
11.7455	826.0069	21.2532
11.7462	816.614	21.2727
11.74814	822.841	21.2922
11.7489	826.634	21.3118
11.7507	818.1936	21.3313
11.7519	823.118	21.35083
11.7536	830.838	21.3704
11.7555	823.978	21.3899
11.7571	819.8833	21.4094
11.7583	831.335	21.429
11.7609	824.094	21.4485
11.7619	823.21	21.468
11.7647	832.068	21.4875
11.766	831.726	21.50708
11.7689	819.325	21.5266
11.7688	831.777	21.5461
11.7704	831.142	21.5657
11.7719	824.056	21.5852
11.7734	832.359	21.6047
11.7753	835.775	21.6243
11.7769	821.814	21.6438
11.7783	831.143	21.66333
11.7809	834.088	21.6829
11.7816	828.961	21.7024
11.7835	828.141	21.7219
11.7853	839.775	21.7415
11.7862	828.595	21.761
11.7883	827.92	21.7805
11.7903	835.708	21.8
11.7919	834.565	21.81958
11.79373	829.479	21.8391
11.7946	835.554	21.8586
11.7969	833.568	21.8782
11.7976	830.651	21.8977
11.8	835.121	21.9172
11.8013	840.184	21.9368
11.8038	829.748	21.9563
11.8046	833.368	21.97583
11.8075	840.453	21.9954
11.8081	834.666	22.0149
11.80942	832.664	22.0344
11.8113	841.41	22.054
11.8125	837.896	22.0735
11.8146	832.002	22.093
11.81622	842.524	22.1125
11.8173	838.082	22.13208
11.8193	833.218	22.1516
11.821	841.086	22.1711
11.8227	845.58	22.1907
11.8241	831.497	22.2102
11.82582	840.209	22.2297
11.827	844.548	22.2493
11.8285	836.702	22.2688
11.8308	840.188	22.28833
11.8322	846.5863	22.3079
11.8343	834.781	22.3274
11.8366	839.7713	22.3469
11.8368	846.957	22.3665
11.84	841.236	22.386
11.8406	835.489	22.4055
11.8413	846.8136	22.425
11.8442	841.335	22.44458
11.8449	837.8	22.4641
11.8468	843.437	22.4836
11.8474	847.198	22.5032
11.8497	837.719	22.5227
11.8509	845.567	22.5422
11.854	847.405	22.5618
11.8555	838.326	22.5813
11.8562	841.339	22.60083
11.8586	849.291	22.6204
11.8592	843.573	22.6399
11.8611	839.997	22.6594
11.8632	849.19	22.679
11.86449	845.014	22.6985
11.8657	841.614	22.718
11.8682	848.594	22.7375
11.8712	848.935	22.75708
11.8712	837.632	22.7766
11.8735	848.619	22.7961
11.8744	847.524	22.8157
11.8764	840.842	22.8352
11.8783	847.54	22.8547
11.8792	855.495	22.8743
11.88102	840.154	22.8938
11.8834	845.564	22.91333
11.8842	850.76	22.9329
11.8853	844.805	22.9524
11.8868	844.1759	22.9719
11.88882	855.386	22.9915
11.89104	844.325	23.011
11.8926	844.905	23.0305
11.89424	852.5813	23.05
11.8944	851.194	23.06958
11.8971	842.969	23.0891
11.8995	851.727	23.1086
11.9012	850.049	23.1282
11.9017	845.155	23.1477
11.9038	847.307	23.1672
11.90516	852.961	23.1868
11.9079	846.069	23.2063
11.9085	848.804	23.22583
11.9101	854.4903	23.2454
11.9127	847.084	23.2649
11.9134	845.714	23.2844
11.916	854.289	23.304
11.9166	850.487	23.3235
11.9186	845.304	23.343
11.9199	852.589	23.3625
11.9218	853.491	23.38208
11.9223	843.671	23.4016
11.9251	852.634	23.4211
11.9268	854.8158	23.4407
11.9282	843.989	23.4602
11.9305	852.069	23.4797
11.9307	856.362	23.4993
11.93358	847.157	23.5188
11.9358	849.067	23.53833
11.9355	858.42	23.5579
11.9374	845.857	23.5774
11.9398	849.244	23.5969
11.9423	855.34	23.6165
11.9431	850.762	23.636
11.9446	847.451	23.6555
11.9466	858.9209	23.675
11.9473	851.729	23.69458
11.9498	847.104	23.7141
11.9501	853.76	23.7336
11.952	857.267	23.7532
11.9553	848.932	23.7727
11.9562	854.164	23.7922
11.9582	855.315	23.8118
11.9588	850.008	23.8313
11.9598	849.8219	23.85083
11.962	858.387	23.8704
11.9631	850.077	23.8899
11.966	850.3006	23.9094
11.9681	857.402	23.929
11.96978	854.538	23.9485
11.97054	847.398	23.968
11.9736	857.326	23.9875
11.9741	855.791	24.00708
11.9758	847.608	24.0266
11.977	855.1875	24.0461
11.9789	855.437	24.0657
11.9805	847.971	24.0852
11.9829	853.026	24.1047
11.9837	859.926	24.1243
11.98541	846.421	24.1438
11.9871	850.467	24.16333
11.9887	858.876	24.1829
11.9904	850.554	24.2024
11.9921	849.261	24.2219
11.9931	858.853	24.2415
11.99409	849.934	24.261
11.9963	849.987	24.2805
11.9979	857.732	24.3
11.9994	855.873	24.31958
12.0025	846.7077	24.3391
12.00311	857.4895	24.3586
12.0055	855.352	24.3782
12.0067	849.409	24.3977
12.0086	853.919	24.4172
12.0103	858.25	24.4368
12.0112	850.984	24.4563
12.0124	853.231	24.47583
12.0142	856.632	24.4954
12.01693	853.2	24.5149
12.0174	848.8736	24.5344
12.0189	860.7262	24.554
12.0218	853.32	24.5735
12.023	849.083	24.593
12.025	856.133	24.6125
12.027	856.704	24.63208
12.0271	846.508	24.6516
12.0293	855.806	24.6711
12.0312	855.952	24.6907
12.0328	847.483	24.7102
12.0348	852.497	24.7297
12.0344	858.398	24.7493
12.037	848.731	24.7688
12.03823	851.796	24.78833
12.03997	860.785	24.8079
12.0417	850.594	24.8274
12.0438	848.216	24.8469
12.0448	857.957	24.8665
12.0474	854.166	24.886
12.0492	848.695	24.9055
12.0512	860.068	24.925
12.0518	851.94	24.94458
12.0533	849.036	24.9641
12.0555	855.386	24.9836
12.0566	857.932	25.0032
12.0582	845.918	25.0227
12.0603	855.187	25.0422
12.0621	854.2157	25.0618
12.06376	849.916	25.0813
12.0651	848.9353	25.10083
12.0671	859.441	25.1204
12.0684	851.045	25.1399
12.0703	852.334	25.1594
12.0713	855.692	25.179
12.0727	853.703	25.1985
12.0741	845.924	25.218
12.0768	857.883	25.2375
12.0778	853.417	25.25708
12.0785	847.03	25.2766
12.08126	851.209	25.2961
12.0833	857.114	25.3157
12.0848	845.917	25.3352
12.0858	852.25	25.3547
12.0884	856.532	25.3743
12.0898	847.128	25.3938
12.0911	849.425	25.41333
12.0927	857.067	25.4329
12.0949	847.946	25.4524
12.0953	847.6532	25.4719
12.09779	857.924	25.4915
12.0988	849.904	25.511
12.1009	845.336	25.5305
12.1019	854.175	25.55
12.1033	851.511	25.56958
12.1058	845.099	25.5891
12.1074	855.774	25.6086
12.1098	851.224	25.6282
12.1108	843.541	25.6477
12.1118	851.984	25.6672
12.1137	858.139	25.6868
12.11625	844.8736	25.7063
12.1165	848.7962	25.72583
12.1184	851.526	25.7454
12.11946	848.604	25.7649
12.1219	845.086	25.7844
12.1243	854.299	25.804
12.1248	848.918	25.8235
12.1273	844.883	25.843
12.1293	851.896	25.8625
12.1306	852.932	25.88208
12.1313	840.931	25.9016
12.1339	852.7926	25.9211
12.135	854.106	25.9407
12.1362	844.164	25.9602
12.1367	845.134	25.9797
12.13973	855.014	25.9993
12.1421	843.279	26.0188
12.143	848.159	26.03833
12.1443	855.203	26.0579
12.1465	845.458	26.0774
12.1481	842.938	26.0969
12.1505	855.387	26.1165
12.1516	847.839	26.136
12.1524	842.6601	26.1555
12.15483	854.552	26.175
12.1569	848.871	26.19458
12.1574	840.561	26.2141
12.1595	849.184	26.2336
12.161	851.561	26.2532
12.163	841.6416	26.2727
12.1633	850.838	26.2922
12.1652	848.5769	26.3118
12.1674	842.113	26.3313
12.1696	842.605	26.35083
12.1707	852.083	26.3704
12.1729	845.262	26.3899
12.1747	844.588	26.4094
12.17625	849.1048	26.429
12.1772	847.1076	26.4485
12.17929	841.086	26.468
12.1815	852.063	26.4875
12.1822	847.885	26.50708
12.1841	841.9422	26.5266
12.1857	845.792	26.5461
12.18679	851.835	26.5657
12.1889	837.038	26.5852
12.1897	848.0979	26.6047
12.1928	852.885	26.6243
12.1928	843.337	26.6438
12.1961	840.642	26.66333
12.19678	851.2005	26.6829
12.1989	841.633	26.7024
12.2006	842.236	26.7219
12.2017	851.031	26.7415
12.203	842.646	26.761
12.2058	838.255	26.7805
12.20697	850.469	26.8
12.2085	847.911	26.81958
12.2091	837.468	26.8391
12.2117	847.972	26.8586
12.2129	845.26	26.8782
12.2146	837.59	26.8977
12.21645	845.672	26.9172
12.2188	849.191	26.9368
12.2194	838.363	26.9563
12.2211	843.603	26.97583
12.2229	847.597	26.9954
12.2253	840.969	27.0149
12.2263	837.382	27.0344
12.2286	849.591	27.054
12.22942	842.914	27.0735
12.2307	838.851	27.093
12.2322	844.614	27.1125
12.23472	845.736	27.13208
12.2356	836.222	27.1516
12.2373	847.029	27.1711
12.239	846.64	27.1907
12.2414	837.232	27.2102
12.2432	841.317	27.2297
12.244	849.492	27.2493
12.2455	836.896	27.2688
12.2472	840.872	27.28833
12.2497	847.673	27.3079
12.2507	839.661	27.3274
12.2513	835.599	27.3469
12.2546	849.193	27.3665
12.2562	839.377	27.386
12.2574	836.849	27.4055
12.259	847.468	27.425
12.2606	844.361	27.44458
12.2624	832.482	27.4641
12.2638	844.434	27.4836
12.2646	844.505	27.5032
12.2673	835.554	27.5227
12.2681	842.81	27.5422
12.26985	845.2688	27.5618
12.2721	834.942	27.5813
12.2734	839.4975	27.60083
12.2752	845.948	27.6204
12.2768	837.5072	27.6399
12.278	839.462	27.6594
12.2797	844.827	27.679
12.2812	840.483	27.6985
12.2824	834.376	27.718
12.2844	844.162	27.7375
12.2876	841.656	27.75708
12.28787	837.268	27.7766
12.2884	842.663	27.7961
12.2919	844.07	27.8157
12.2928	832.208	27.8352
12.2949	840.69	27.8547
12.29426	844.775	27.8743
12.2981	836.557	27.8938
12.2997	835.036	27.91333
12.3007	845.198	27.9329
12.3035	835.859	27.9524
12.3048	835.936	27.9719
12.3055	843.341	27.9915
12.3084	839.651	28.011
12.30909	832.084	28.0305
12.3109	844.0741	28.05
12.3127	840.422	28.06958
12.3134	831.063	28.0891
12.3161	842.19	28.1086
12.31745	843.0033	28.1282
12.31921	832.26	28.1477
12.3208	839.981	28.1672
12.3222	842.909	28.1868
12.3239	834.743	28.2063
12.3248	837.257	28.22583
12.3277	843.494	28.2454
12.3277	833.125	28.2649
12.3296	834.739	28.2844
12.3327	843.37	28.304
12.3333	835.51	28.3235
12.3354	834.395	28.343
12.3376	839.497	28.3625
12.3385	839.2002	28.38208
12.3398	831.175	28.4016
12.3425	841.186	28.4211
12.3439	840.259	28.4407
12.3444	833.215	28.4602
12.3472	836.118	28.4797
12.3479	843.932	28.4993
12.3498	830.097	28.5188
12.35235	835.187	28.53833
12.3538	844.214	28.5579
12.3544	836.889	28.5774
12.3567	830.547	28.5969
12.3576	841.972	28.6165
12.3591	834.815	28.636
12.36	832.525	28.6555
12.3632	842.279	28.675
12.3644	838.5863	28.69458
12.366	827.13	28.7141
12.3673	841.302	28.7336
12.3695	841.945	28.7532
12.3715	831.186	28.7727
12.373	836.175	28.7922
12.3741	841.327	28.8118
12.3757	829.601	28.8313
12.3777	835.794	28.85083
12.3791	841.288	28.8704
12.38101	832.039	28.8899
12.3826	833.2005	28.9094
12.3842	842.324	28.929
12.385	833.084	28.9485
12.3877	830.109	28.968
12.3894	839.973	28.9875
12.3897	836.474	29.00708
12.3925	831.375	29.0266
12.3941	834.968	29.0461
12.3952	837.741	29.0657
12.3971	828.444	29.0852
12.3984	836.685	29.1047
12.4011	839.099	29.1243
12.4019	831.044	29.1438
12.4048	830.406	29.16333
12.4051	841.824	29.1829
12.4061	831.708	29.2024
12.4082	830.692	29.2219
12.4108	839.5246	29.2415
12.4119	836.084	29.261
12.4142	827.018	29.2805
12.4151	840.218	29.3
12.4168	833.859	29.31958
12.4175	829.59	29.3391
12.421	837.555	29.3586
12.4216	839.636	29.3782
12.4226	825.7	29.3977
12.4249	834.66	29.4172
12.4266	838.576	29.4368
12.4288	828.762	29.4563
12.428	832.937	29.47583
12.4307	838.385	29.4954
12.4326	828.525	29.5149
12.4343	831.574	29.5344
12.4362	838.8877	29.554
12.4371	833.211	29.5735
12.4397	828.078	29.593
12.44126	837.13	29.6125
12.4426	832.579	29.63208
12.4442	827.637	29.6516
12.4459	835.413	29.6711
12.4483	836.2641	29.6907
12.4491	830.422	29.7102
12.4509	832.219	29.7297
12.4522	837.7738	29.7493
12.45353	826.919	29.7688
12.4552	833.215	29.78833
12.4566	839.414	29.8079
12.4587	832.032	29.8274
12.4606	826.863	29.8469
12.4627	839.114	29.8665
12.4627	830.848	29.886
12.465	826.758	29.9055
12.4668	835.922	29.925
12.4692	836.833	29.94458
12.4711	824.792	29.9641
12.4719	838.5296	29.9836
12.4741	835.746	30.0032
12.4762	827.017	30.0227
12.4765	834.385	30.0422
12.4789	840.305	30.0618
12.48018	826.357	30.0813
12.4814	830.85	30.10083
12.4832	836.714	30.1204
12.4849	830.4212	30.1399
12.4866	830.57	30.1594
12.4879	839.695	30.179
12.49	830.179	30.1985
12.4921	829.315	30.218
12.49241	837.0741	30.2375
12.49471	834.916	30.25708
12.4954	827.633	30.2766
12.4986	835.6142	30.2961
12.501	834.854	30.3157
12.5013	828.963	30.3352
12.5022	832.146	30.3547
12.5043	834.7688	30.3743
12.5059	829.954	30.3938
12.5077	829.924	30.41333
12.5089	838.09	30.4329
12.51065	828.212	30.4524
12.513	829.544	30.4719
12.5145	836.898	30.4915
12.51534	832.532	30.511
12.5179	824.228	30.5305
12.5189	837.034	30.55
12.5208	832.947	30.56958
12.522	827.516	30.5891
12.5238	834.42	30.6086
12.5255	836.366	30.6282
12.5268	823.0733	30.6477
12.5295	833.916	30.6672
12.5297	835.565	30.6868
12.5332	828.154	30.7063
12.5327	829.634	30.72583
12.5359	838.973	30.7454
12.5361	826.421	30.7649
12.53909	830.731	30.7844
12.5406	836.099	30.804
12.5428	830.544	30.8235
12.5431	828.559	30.843
12.54389	839.102	30.8625
12.547	830.606	30.88208
12.5477	826.66	30.9016
12.5496	834.641	30.9211
12.552	834.3869	30.9407
12.5535	828.175	30.9602
12.55454	831.235	30.9797
12.5563	835.595	30.9993
12.5573	826.378	31.0188
12.5596	830.904	31.03833
12.5619	835.581	31.0579
12.5628	829.95	31.0774
12.5645	826.35	31.0969
12.56571	836.693	31.1165
12.5673	829.645	31.136
12.5691	826.889	31.1555
12.5701	834.316	31.175
12.5738	835.962	31.19458
12.5745	824.04	31.2141
12.5764	833.941	31.2336
12.5781	833.113	31.2532
12.57909	826.71	31.2727
12.5811	832.491	31.2922
12.5819	838.908	31.3118
12.58383	822.989	31.3313
12.58534	831.075	31.35083
12.5883	837.188	31.3704
12.5896	828.847	31.3899
12.5907	825.767	31.4094
12.5931	837.033	31.429
12.5934	828.4281	31.4485
12.5955	827.16	31.468
12.597	833.872	31.4875
12.599	831.51	31.50708
12.601	826.1604	31.5266
12.6024	834.003	31.5461
12.60282	833.517	31.5657
12.6061	825.572	31.5852
12.6075	829.258	31.6047
12.6091	835.5434	31.6243
12.6104	827.649	31.6438
12.6124	830.334	31.66333
12.6135	833.371	31.6829
12.6152	828.357	31.7024
12.617	826.703	31.7219
12.618	834.967	31.7415
12.6201	830.99	31.761
12.6213	823.057	31.7805
12.6234	833.315	31.8
12.6244	832.5094	31.81958
12.6265	824.682	31.8391
12.6282	830.983	31.8586
12.6298	836.528	31.8782
12.6316	822.838	31.8977
12.6333	833.4104	31.9172
12.6346	833.298	31.9368
12.6365	825.927	31.9563
12.6378	830.319	31.97583
12.6394	838.8952	31.9954
12.6411	823.799	32.0149
[...]
12.9054	834.6582	35.179
12.9064	825.899	35.1985
12.9079	823.612	35.218
12.9098	834.701	35.2375
12.9105	829.877	35.25708
12.9139	821.333	35.2766
12.9145	833.673	35.2961
12.9166	830.699	35.3157
12.9181	823.318	35.3352
12.91985	827.615	35.3547
12.921	832.669	35.3743
12.9221	824.2243	35.3938
12.9246	829.926	35.41333
12.92568	830.223	35.4329
12.9277	824.88	35.4524
12.9285	823.073	35.4719
12.93065	834.4483	35.4915
12.9324	826.798	35.511
12.9344	823.628	35.5305
12.9354	827.351	35.55
12.9375	830.757	35.56958
12.9389	820.229	35.5891
12.9407	830.771	35.6086
12.9411	831.201	35.6282
12.9433	823.905	35.6477
12.9458	826.161	35.6672
12.9467	834.217	35.6868
12.9488	822.019	35.7063
12.95035	827.568	35.72583
12.95216	833.98	35.7454
12.9536	826.574	35.7649
12.9555	820.842	35.7844
12.9579	833.771	35.804
12.9589	827.476	35.8235
12.9608	822.875	35.843
12.961	833.05	35.8625
12.9634	828.192	35.88208
12.9652	820.814	35.9016
12.9659	831.406	35.9211
12.9687	831.659	35.9407
12.9704	822.453	35.9602
12.9716	830.018	35.9797
12.9728	832.146	35.9993
12.9752	823.832	36.0188
12.9758	826.17	36.03833
12.9783	833.965	36.0579
12.9792	826.4	36.0774
12.9816	827.054	36.0969
12.9823	832.083	36.1165
12.9851	828.779	36.136
12.9863	822.831	36.1555
12.9873	834.037	36.175
12.9903	830.706	36.19458
12.9913	824.183	36.2141
12.99198	827.3042	36.2336
12.9939	832.425	36.2532
12.9961	821.201	36.2727
12.9979	829.853	36.2922
12.9999	832.844	36.3118
13.0003	824.08	36.3313
13.0021	825.428	36.35083
13.0047	836.353	36.3704
13.0055	823.262	36.3899
13.0067	824.662	36.4094
13.0091	833.4389	36.429
13.0109	827.441	36.4485
13.0124	821.695	36.468
13.0139	832.5896	36.4875
13.0157	828.196	36.50708
13.0165	821.51	36.5266
13.0191	832.453	36.5461
13.0203	832.174	36.5657
13.0215	820.296	36.5852
13.0228	829.068	36.6047
13.0243	834.225	36.6243
13.0277	822.638	36.6438
13.0282	827.959	36.66333
13.03	831.638	36.6829
13.0322	824.879	36.7024
13.0326	824.583	36.7219
13.0335	834.711	36.7415
13.0363	825.7077	36.761
13.0379	826.092	36.7805
13.0397	831.297	36.8
13.0424	831.834	36.81958
13.0421	820.2865	36.8391
13.0453	831.049	36.8586
13.0459	831.117	36.8782
13.0486	824.39	36.8977
13.05	824.959	36.9172
13.05129	833.749	36.9368
13.0525	821.087	36.9563
13.0544	828.21	36.97583
13.05479	833.978	36.9954
13.0576	824.7594	37.0149
13.0596	821.831	37.0344
13.0611	836.047	37.054
13.0629	825.357	37.0735
13.0639	821.353	37.093
13.0659	832.641	37.1125
13.0674	829.211	37.13208
13.0679	820.005	37.1516
13.07	832.421	37.1711
13.0725	828.8	37.1907
13.0747	821.8894	37.2102
13.0762	830.549	37.2297
13.0765	832.1	37.2493
13.0784	821.561	37.2688
13.0817	827.059	37.28833
13.0819	834.135	37.3079
13.0838	824.8006	37.3274
13.0864	828.08	37.3469
13.0867	830.638	37.3665
13.0885	825.721	37.386
13.091	822.569	37.4055
13.0931	833.052	37.425
13.0934	828.164	37.44458
13.0954	822.7135	37.4641
13.0973	828.914	37.4836
13.0985	832.832	37.5032
13.0992	820.482	37.5227
13.1023	828.814	37.5422
13.1029	832.317	37.5618
13.1051	824.879	37.5813
13.1063	822.355	37.60083
13.1089	835.171	37.6204
13.1095	824.194	37.6399
13.1125	824.683	37.6594
13.113	833.704	37.679
13.1151	825.88	37.6985
13.1172	817.5578	37.718
13.11713	832.877	37.7375
13.1196	827.661	37.75708
13.1206	823.119	37.7766
13.1233	828.66	37.7961
13.1238	830.723	37.8157
13.1266	819.439	37.8352
13.1285	829.462	37.8547
13.1291	831.1955	37.8743
13.1308	820.662	37.8938
13.1323	826.983	37.91333
13.1348	832.89	37.9329
13.1358	824.277	37.9524
13.13699	824.159	37.9719
13.1397	831.765	37.9915
13.1409	825.839	38.011
13.1414	824.0575	38.0305
13.1447	830.411	38.05
13.1457	828.191	38.06958
13.1478	819.87	38.0891
13.1493	830.207	38.1086
13.1511	830.442	38.1282
13.1515	822.737	38.1477
13.1523	823.214	38.1672
13.1558	832.868	38.1868
13.1578	821.836	38.2063
13.1583	824.859	38.22583
13.1609	830.911	38.2454
13.1622	824.897	38.2649
13.1634	821.355	38.2844
13.1661	833.989	38.304
13.16681	823.387	38.3235
13.1686	821.769	38.343
13.1707	831.102	38.3625
13.1718	829.902	38.38208
13.1731	817.369	38.4016
13.1748	829	38.4211
13.17706	830.458	38.4407
13.1784	823.0578	38.4602
13.1811	828.013	38.4797
13.1809	832.6756	38.4993
13.1832	820.611	38.5188
13.1839	826.446	38.53833
13.1863	832.559	38.5579
13.1877	824.01	38.5774
13.18914	823.152	38.5969
13.1907	830.854	38.6165
13.19312	826.891	38.636
13.1948	821.865	38.6555
13.1957	830.892	38.675
13.1974	827.326	38.69458
13.199	823.31	38.7141
13.2016	828.2113	38.7336
13.2023	830.792	38.7532
13.2051	820.36	38.7727
13.2052	828.593	38.7922
13.2072	831.494	38.8118
13.2086	824.561	38.8313
13.211	822.736	38.85083
13.2122	833.899	38.8704
13.2138	824.846	38.8899
13.2162	824.452	38.9094
13.2177	831.067	38.929
13.2196	828.482	38.9485
13.2199	818.5365	38.968
13.22198	832.709	38.9875
13.2235	828.044	39.00708
13.2242	821.54	39.0266
13.227	830.365	39.0461
13.229	832.401	39.0657
13.2305	819.632	39.0852
13.23212	830.569	39.1047
13.2339	829.993	39.1243
13.2352	823.398	39.1438
13.2377	826.695	39.16333
13.2374	833.773	39.1829
13.2411	821.048	39.2024
13.2414	823.493	39.2219
13.2431	831.197	39.2415
13.2442	826.878	39.261
13.2469	822.239	39.2805
13.2483	829.883	39.3
13.2503	828.181	39.31958
13.2522	822.435	39.3391
13.2528	830.142	39.3586
13.2545	828.232	39.3782
13.2567	822.436	39.3977
13.2575	826.373	39.4172
13.2586	830.538	39.4368
13.2611	819.395	39.4563
13.2624	824.191	39.47583
13.2649	831.317	39.4954
13.26668	824.9679	39.5149
13.2681	819.622	39.5344
13.2697	832.941	39.554
13.2705	823.794	39.5735
13.2726	822.123	39.593
13.2751	829.556	39.6125
13.275	827.299	39.63208
13.2767	816.085	39.6516
13.2789	831.1792	39.6711
13.281	829.103	39.6907
13.2823	820.759	39.7102
13.2843	826.154	39.7297
13.2866	832.152	39.7493
13.286	818.991	39.7688
13.2892	827.931	39.78833
13.2902	829.69	39.8079
13.2914	822.614	39.8274
13.2939	821.722	39.8469
13.29446	833.748	39.8665
13.2973	822.7926	39.886
13.2996	822.05	39.9055
13.3007	830.459	39.925
13.3021	825.801	39.94458
13.3031	820.313	39.9641
13.3058	828.5047	39.9836
13.3067	826.513	40.0032
13.3072	824.8006	40.0129

Data Header:			0.254_hd_dimension_typei_090_r0			Time:	45.5544	s	4/15/2019 3:44:12 PM
Data Acquisition:	Timed
Station Name:	ft40.cfg
Test File Name:	monotonic_0.2540_typei_hd_090_dimension.tst
Displacement	Force	Running Time
mm	N	s
13.3082	819.935	40.0227
13.3095	820.905	40.0325
13.3097	827.182	40.0422
13.31	827.511	40.052
13.3122	831.211	40.0618
13.3142	829.925	40.0715
13.31334	823.216	40.0813
13.3141	819.353	40.0911
13.3155	820.955	40.10083
13.3148	829.136	40.1106
13.3168	834.515	40.1204
13.31725	827.26	40.1301
13.3181	822.031	40.1399
13.3186	821.701	40.1497
13.3197	823.946	40.1594
13.3202	827.429	40.1692
13.3221	830.676	40.179
13.3228	830.424	40.1887
13.3229	828.211	40.1985
13.3241	818.9942	40.2083
13.3252	818.994	40.218
13.3263	824.516	40.2278
13.32583	830.099	40.2375
13.3272	833.342	40.2473
13.3277	825.954	40.25708
13.3285	822.683	40.2668
13.3295	820.299	40.2766
13.3306	820.635	40.2864
13.3315	828.7832	40.2961
13.3319	831.953	40.3059
13.3328	831.162	40.3157
13.334	823.173	40.3254
13.3338	817.1355	40.3352
13.3362	820.74	40.345
13.3356	827.034	40.3547
13.3365	832.916	40.3645
13.33847	829.133	40.3743
13.3391	823.832	40.384
13.33951	824.092	40.3938
13.3403	821.187	40.4036
13.3408	824.552	40.41333
13.3414	829.544	40.4231
13.3431	833.766	40.4329
13.3434	830.302	40.4426
13.3429	820.24	40.4524
13.3452	819.047	40.4622
13.34547	824.721	40.4719
13.34741	829.977	40.4817
13.3479	830.373	40.4915
13.3487	829.561	40.5012
13.3486	824.286	40.511
13.3507	822.366	40.5208
13.3507	821.29	40.5305
13.3521	826.599	40.5403
13.3531	830.996	40.55
13.3532	830.997	40.5598
13.3543	825.393	40.56958
13.3549	821.506	40.5793
13.3537	821.381	40.5891
13.3551	824.676	40.5989
13.3574	828.257	40.6086
13.3574	828.79	40.6184
13.3586	827.85	40.6282
13.3591	824.761	40.6379
13.36	821.883	40.6477
13.3619	818.297	40.6575
13.362	825.5343	40.6672
13.36275	831.936	40.677
13.3633	829.3194	40.6868
13.3653	828.422	40.6965
13.366	820.585	40.7063
13.366	822.138	40.7161
13.3675	825.146	40.72583
13.3678	826.272	40.7356
13.3694	831.385	40.7454
13.36907	829.835	40.7551
13.3704	824.503	40.7649
13.3703	819.645	40.7747
13.372	818.509	40.7844
13.3728	829.077	40.7942
13.37313	831.671	40.804
13.3751	830.525	40.8137
13.3762	824.315	40.8235
13.3759	820.522	40.8333
13.3763	821.61	40.843
13.378	822.802	40.8528
13.3786	829.048	40.8625
13.3793	832.4259	40.8723
13.3806	829.615	40.88208
13.3808	821.296	40.8918
13.3826	818.201	40.9016
13.3826	822.159	40.9114
13.3831	830.4986	40.9211
13.3849	832.458	40.9309
13.3848	828.205	40.9407
13.3857	825.71	40.9504
13.3862	820.253	40.9602
13.38775	821.033	40.97
13.3876	826.994	40.9797
13.3895	830.9527	40.9895
13.3902	833.703	40.9993
13.3899	824.664	41.009
13.392	817.424	41.0188
13.3918	819.4054	41.0286
13.393	825.728	41.03833
13.3935	831.149	41.0481
13.395	830.621	41.0579
13.3946	825.3631	41.0676
13.39642	823.745	41.0774
13.3962	818.856	41.0872
13.3973	823.075	41.0969
13.3989	826.592	41.1067
13.3994	833.161	41.1165
13.4006	831.144	41.1262
13.4005	821.15	41.136
13.4014	820.6048	41.1458
13.4024	822.097	41.1555
13.4033	825.964	41.1653
13.4055	829.522	41.175
13.4049	828.6734	41.1848
13.407	827.773	41.19458
13.4068	823.364	41.2043
13.4082	818.479	41.2141
13.4093	823.646	41.2239
13.41	828.966	41.2336
13.4103	830.601	41.2434
13.4104	828.303	41.2532
13.4109	822.211	41.2629
13.412	820.866	41.2727
13.4137	824.951	41.2825
13.4142	825.008	41.2922
13.4144	828.725	41.302
13.4154	828.8714	41.3118
13.4171	827.102	41.3215
13.4168	821.504	41.3313
13.4188	817.671	41.3411
13.4187	825.667	41.35083
13.41926	829.601	41.3606
13.42036	829.524	41.3704
13.4216	828.62	41.3801
13.42278	822.552	41.3899
13.4234	820.989	41.3997
13.4237	821.617	41.4094
13.4254	823.976	41.4192
13.426	829.772	41.429
13.4261	831.322	41.4387
13.4277	825.577	41.4485
13.4285	817.631	41.4583
13.4291	819.431	41.468
13.4289	826.44	41.4778
13.4307	828.084	41.4875
13.4307	832.389	41.4973
13.4309	826.682	41.50708
13.4338	822.319	41.5168
13.4345	820.44	41.5266
13.435	819.044	41.5364
13.4348	828.039	41.5461
13.4363	832.401	41.5559
13.4367	828.758	41.5657
13.4377	824.404	41.5754
13.4387	816.722	41.5852
13.4392	820.024	41.595
13.4391	827.823	41.6047
13.4407	831.337	41.6145
13.4422	830.402	41.6243
13.4425	824.25	41.634
13.4428	820.809	41.6438
13.4436	818.1618	41.6536
13.4454	823.902	41.66333
13.4453	829.605	41.6731
13.4476	832.056	41.6829
13.4476	826.062	41.6926
13.4485	820.449	41.7024
13.4493	818.216	41.7122
13.4515	824.223	41.7219
13.4501	827.762	41.7317
13.4512	828.567	41.7415
13.4522	828.935	41.7512
13.4526	824.1958	41.761
13.4545	818.7124	41.7708
13.4547	820.933	41.7805
13.4558	822.742	41.7903
13.4566	830.004	41.8
13.45786	830.785	41.8098
13.4581	821.989	41.81958
13.4578	819.929	41.8293
13.4592	819.944	41.8391
13.4604	824.237	41.8489
13.4616	827.947	41.8586
13.46286	827.595	41.8684
13.4639	827.5011	41.8782
13.465	822.765	41.8879
13.4642	819.906	41.8977
13.4664	819.534	41.9075
13.46624	825.718	41.9172
13.4676	831.195	41.927
13.4679	827.797	41.9368
13.469	823.8667	41.9465
13.4696	822.497	41.9563
13.4701	819.248	41.9661
13.4712	821.546	41.97583
13.4723	826.26	41.9856
13.4737	830.23	41.9954
13.4744	828.826	42.0051
13.4742	821.131	42.0149
13.4753	817.547	42.0247
13.4754	822.585	42.0344
13.4758	828.177	42.0442
13.47765	830.358	42.054
13.4775	828.939	42.0637
13.4794	823.696	42.0735
13.4798	820.521	42.0833
13.4815	819.782	42.093
13.4809	822.248	42.1028
13.4835	828.773	42.1125
13.4838	831.178	42.1223
13.4843	828.5083	42.13208
13.4845	818.872	42.1418
13.4849	817.272	42.1516
13.4872	821.807	42.1614
13.4872	827.2254	42.1711
13.4893	830.877	42.1809
13.4897	826.397	42.1907
13.48916	824.041	42.2004
13.4912	819.506	42.2102
13.4901	816.789	42.22
13.4926	825.792	42.2297
13.4933	831.695	42.2395
13.4939	830.723	42.2493
13.4951	825.622	42.259
13.4937	817.201	42.2688
13.4966	819.53	42.2786
13.4978	823.614	42.28833
13.4978	829.598	42.2981
13.4992	831.409	42.3079
13.4997	827.135	42.3176
13.5008	822.459	42.3274
13.5017	816.99	42.3372
13.5013	819.669	42.3469
13.5029	827.559	42.3567
13.5048	831.887	42.3665
13.50479	828.344	42.3762
13.5049	821.631	42.386
13.5067	818.426	42.3958
13.5065	823.013	42.4055
13.5078	826.222	42.4153
13.5079	827.681	42.425
13.5096	830.839	42.4348
13.5106	825.462	42.44458
13.5116	820.101	42.4543
13.5116	819.817	42.4641
13.5129	821.861	42.4739
13.5131	827.566	42.4836
13.5146	829.254	42.4934
13.515	825.482	42.5032
13.5156	821.0343	42.5129
13.5164	819.622	42.5227
13.5183	823.052	42.5325
13.5196	824.207	42.5422
13.5189	827.053	42.552
13.5205	830.212	42.5618
13.5209	823.374	42.5715
13.52162	820.446	42.5813
13.5225	818.4	42.5911
13.5226	822.108	42.60083
13.5244	829.206	42.6106
13.5254	826.747	42.6204
13.5255	826.631	42.6301
13.527	821.824	42.6399
13.5268	819.993	42.6497
13.5293	821.033	42.6594
13.5299	822.782	42.6692
13.5293	829.096	42.679
13.5312	830.31	42.6887
13.5305	822.783	42.6985
13.5321	818.6051	42.7083
13.5339	818.562	42.718
13.5336	826.33	42.7278
13.5345	827.566	42.7375
13.5356	828.572	42.7473
13.5369	826.982	42.75708
13.5373	822.812	42.7668
13.5377	817.189	42.7766
13.5389	819.255	42.7864
13.539	824.899	42.7961
13.5398	832.029	42.8059
13.54117	828.683	42.8157
13.5419	819.902	42.8254
13.5436	817.232	42.8352
13.543	820.7525	42.845
13.5441	822.596	42.8547
13.54537	830.37	42.8645
13.5466	828.299	42.8743
13.5478	825.652	42.884
13.5477	819.859	42.8938
13.5478	815.96	42.9036
13.5498	822.752	42.91333
13.5495	827.94	42.9231
13.5517	831.937	42.9329
13.5523	823.246	42.9426
13.5523	817.406	42.9524
13.5532	817.008	42.9622
13.5541	821.661	42.9719
13.5546	826.306	42.9817
13.556	828.028	42.9915
13.5572	826.148	43.0012
13.5575	823.365	43.011
13.558	814.5968	43.0208
13.5592	816.616	43.0305
13.5598	824.1217	43.0403
13.56	829.959	43.05
13.5619	830.201	43.0598
13.5624	820.032	43.06958
13.5634	817.52	43.0793
13.5642	819.772	43.0891
13.5644	822.032	43.0989
13.566	824.391	43.1086
13.5657	827.579	43.1184
13.5675	825.009	43.1282
13.568	819.26	43.1379
13.5701	815.7829	43.1477
13.569	818.6322	43.1575
13.5701	824.272	43.1672
13.5712	827.299	43.177
13.5718	824.928	43.1868
13.5723	821.308	43.1965
13.5729	818.668	43.2063
13.5742	819.152	43.2161
13.57502	817.442	43.22583
13.5763	824.2644	43.2356
13.5768	827.2182	43.2454
13.5788	825.744	43.2551
13.5785	819.797	43.2649
13.5798	815.327	43.2747
13.5798	820.819	43.2844
13.5804	823.948	43.2942
13.5821	824.231	43.304
13.58317	825.228	43.3137
13.5836	820.326	43.3235
13.5834	816.454	43.3333
13.5849	815.636	43.343
13.58431	815.201	43.3528
13.5878	825.461	43.3625
13.5875	826.385	43.3723
13.58803	823.239	43.38208
13.58947	816.23	43.3918
13.5896	813.704	43.4016
13.591	818.718	43.4114
13.5921	819.622	43.4211
13.5928	825.09	43.4309
13.5926	823.051	43.4407
13.594	816.401	43.4504
13.5948	812.911	43.4602
13.5965	808.1424	43.47
13.6068	-116.391	43.4797
13.60345	-56.5165	43.4895
13.6038	-44.8462	43.4993
13.6041	-52.1297	43.509
13.6035	-43.3044	43.5188
13.6047	-51.5221	43.5286
13.60413	-45.069	43.53833
13.6041	-43.9607	43.5481
13.6033	-41.1609	43.5579
13.6064	-45.6404	43.5676
13.6052	-49.53154	43.5774
13.6068	-54.6599	43.5872
13.6071	-50.2202	43.5969
13.609	-45.4672	43.6067
13.6093	-38.7718	43.6165
13.6099	-43.377	43.6262
13.61047	-50.9075	43.636
13.6119	-51.7575	43.6458
13.6121	-50.6932	43.6555
13.612	-44.6732	43.6653
13.6136	-42.73151	43.675
13.6139	-41.8665	43.6848
13.6146	-44.9794	43.69458
13.6157	-52.1709	43.7043
13.6174	-52.2721	43.7141
13.6168	-48.6535	43.7239
13.6181	-41.5791	43.7336
13.6199	-39.72485	43.7434
13.6207	-45.4236	43.7532
13.6213	-49.356	43.7629
13.6204	-50.1715	43.7727
13.624	-50.5627	43.7825
13.62359	-46.4809	43.7922
13.6239	-43.08511	43.802
13.62441	-39.848	43.8118
13.62566	-46.9025	43.8215
13.6256	-51.9385	43.8313
13.6277	-52.3685	43.8411
13.6277	-46.462	43.85083
13.6295	-41.6357	43.8606
13.6299	-42.0967	43.8704
13.6301	-45.5793	43.8801
13.6308	-46.2137	43.8899
13.63208	-49.0281	43.8997
13.63281	-51.1782	43.9094
13.6345	-46.1739	43.9192
13.6347	-39.6987	43.929
13.6353	-40.4054	43.9387
13.6358	-45.7465	43.9485
13.6368	-54.3644	43.9583
13.6376	-50.9876	43.968
13.6392	-47.8331	43.9778
13.6398	-44.9047	43.9875
13.6398	-41.41613	43.9973
13.64104	-44.8289	44.00708
13.6419	-47.894	44.0168
13.6423	-53.1028	44.0266
13.6439	-51.589	44.0364
13.6444	-43.7166	44.0461
13.6454	-40.2498	44.0559
13.6456	-40.7988	44.0657
13.6476	-49.1318	44.0754
13.6467	-51.6627	44.0852
13.6489	-51.1199	44.095
13.6493	-46.2601	44.1047
13.64979	-39.9212	44.1145
13.6507	-40.3864	44.1243
13.65189	-43.4849	44.134
13.6527	-49.0966	44.1438
13.6533	-56.51244	44.1536
13.6537	-49.5442	44.16333
13.6545	-39.5669	44.1731
13.6563	-39.0752	44.1829
13.6561	-46.947	44.1926
13.65757	-49.7523	44.2024
13.6583	-51.16	44.2122
13.6582	-49.3544	44.2219
13.6605	-45.2434	44.2317
13.6602	-41.0916	44.2415
13.6615	-39.0417	44.2512
13.6615	-46.4765	44.261
13.663	-52.954	44.2708
13.664	-51.9239	44.2805
13.664	-43.8784	44.2903
13.6653	-40.2785	44.3
13.6666	-42.8388	44.3098
13.66676	-47.0585	44.31958
13.668	-50.8506	44.3293
13.6689	-50.4085	44.3391
13.66937	-48.1022	44.3489
13.67	-45.4864	44.3586
13.6713	-40.1448	44.3684
13.6729	-42.8235	44.3782
13.672	-49.8385	44.3879
13.6735	-49.8436	44.3977
13.6741	-50.3902	44.4075
13.6748	-43.0768	44.4172
13.6761	-41.3097	44.427
13.6771	-47.27779	44.4368
13.67822	-44.9255	44.4465
13.6779	-49.3639	44.4563
13.6789	-49.0504	44.4661
13.68047	-48.3602	44.47583
13.6806	-43.4445	44.4856
13.6821	-38.9676	44.4954
13.6828	-46.3586	44.5051
13.6826	-48.5786	44.5149
13.6846	-50.6268	44.5247
13.684	-48.3669	44.5344
13.6852	-41.7566	44.5442
13.6874	-43.9762	44.554
13.68752	-42.8258	44.5637
13.68753	-43.7776	44.5735
13.6889	-50.2392	44.5833
13.6893	-51.1362	44.593
13.691	-49.0173	44.6028
13.6909	-42.5527	44.6125
13.69251	-40.1729	44.6223
13.6933	-45.5951	44.63208
13.69343	-51.1692	44.6418
13.6939	-50.7433	44.6516
13.6956	-49.676	44.6614
13.6958	-44.9939	44.6711
13.6963	-40.5058	44.6809
13.69812	-41.3623	44.6907
13.6979	-45.3635	44.7004
13.6996	-52.9941	44.7102
13.6992	-51.0916	44.72
13.7007	-46.7555	44.7297
13.7014	-39.7349	44.7395
13.7027	-39.9715	44.7493
13.7039	-47.548	44.759
13.7049	-50.2589	44.7688
13.7047	-51.7565	44.7786
13.7065	-50.521	44.78833
13.7063	-41.4522	44.7981
13.707	-40.9067	44.8079
13.7081	-42.6804	44.8176
13.7098	-49.1871	44.8274
13.7108	-54.1995	44.8372
13.7108	-50.0628	44.8469
13.7117	-43.9712	44.8567
13.7125	-39.7707	44.8665
13.71273	-43.7645	44.8762
13.7143	-49.0618	44.886
13.7149	-49.4299	44.8958
13.7156	-52.0243	44.9055
13.71612	-46.0512	44.9153
13.717	-42.6049	44.925
13.7187	-40.2251	44.9348
13.7185	-44.6054	44.94458
13.72	-51.055	44.9543
13.7209	-53.0624	44.9641
13.72121	-46.1475	44.9739
13.722	-42.9509	44.9836
13.7237	-40.2039	44.9934
13.7239	-44.976	45.0032
13.725	-48.7227	45.0129
13.7253	-49.6507	45.0227
13.7268	-51.2439	45.0325
13.7281	-46.6103	45.0422
13.7276	-41.3088	45.052
13.7278	-41.5113	45.0618
13.7291	-47.5164	45.0715
13.7306	-51.0756	45.0813
13.7315	-50.4866	45.0911
13.7318	-44.8629	45.10083
13.733	-44.3406	45.1106
13.7326	-42.9569	45.1204
13.7347	-44.6508	45.1301
13.735	-47.05	45.1399
13.7358	-49.8258	45.1497
13.7367	-51.7112	45.1594
13.7372	-45.3902	45.1692
13.7385	-39.7169	45.179
13.73837	-44.4307	45.1887
13.7403	-46.4565	45.1985
13.74162	-52.0863	45.2083
13.7421	-50.2666	45.218
13.7429	-46.42038	45.2278
13.7431	-45.4586	45.2375
13.7441	-41.987	45.2473
13.7448	-44.0057	45.25708
13.7458	-48.4253	45.2668
13.7466	-52.3168	45.2766
13.7484	-51.2146	45.2864
13.7469	-44.47131	45.2961
13.7489	-41.1697	45.3059
13.7497	-42.5247	45.3157
13.7512	-48.97308	45.3254
13.7523	-51.7465	45.3352
13.75306	-50.2244	45.345
13.7532	-47.4088	45.3547
13.7541	-40.8681	45.3645
13.7549	-39.8058	45.3743
13.7553	-46.4971	45.384
13.7564	-51.6264	45.3938
13.75806	-54.465	45.4036
13.7581	-48.4012	45.41333
13.7588	-41.7517	45.4231
13.7601	-40.1056	45.4329
13.7592	-46.9479	45.4426
13.7608	-49.4668	45.4524
13.7617	-51.8899	45.4622
13.7631	-50.6549	45.4719
13.7634	-45.9405	45.4817
13.7642	-41.7713	45.4915
13.7654	-40.45639	45.5012
13.7665	-47.8145	45.511
13.76774	-54.0534	45.5208
13.7683	-51.83577	45.5305
13.7687	-46.1976	45.5403
13.7686	-39.7828	45.55