File: data/processed_data_files/tensile/0.254_solid_dimension_typei_090_r(4).dat
MTS793|BTW|ENU|1|2|.|/|:|1|0|0|A

Data Header:			0.254_solid_dimension_typei_090_r0			Time:	20.0195	s	4/15/2019 2:21:31 PM
Data Acquisition:	Timed
Station Name:	ft40.cfg
Test File Name:	monotonic_0.2540_typei_solid_090_dimension.tst
Displacement	Force	Running Time
mm	N	s
9.97107	-122.511	0.0224609
9.97181	-116.811	0.0419922
9.97241	-117.251	0.0615234
9.97361	-123.716	0.0810547
9.97646	-117.013	0.100586
9.977416	-112.194	0.120117
9.97885	-117.452	0.139648
9.97952	-113.63	0.15918
9.98339	-108.404	0.178711
9.98463	-114.13	0.198242
9.98636	-113.498	0.217773
9.98832	-104.006	0.237305
9.98888	-106.884	0.256836
9.991188	-109.943	0.276367
9.99347	-104.956	0.295898
9.99416	-101.1689	0.31543
9.99521	-107.496	0.334961
9.99695	-102.176	0.354492
9.99809	-97.8272	0.374023
9.99977	-102.218	0.393555
10.0015	-100.771	0.413086
10.0042	-93.1081	0.432617
10.0054	-100.735	0.452148
10.0071	-96.97068	0.47168
10.0092	-89.0281	0.491211
10.0099	-93.48909	0.510742
10.0115	-98.9225	0.530273
10.014	-86.0609	0.549805
10.0152	-88.8958	0.569336
10.0165	-91.0989	0.588867
10.0178	-84.6649	0.608398
10.02	-83.585	0.62793
10.0237	-93.7558	0.647461
10.0231	-82.0213	0.666992
10.02367	-80.9286	0.686523
10.0278	-85.8493	0.706055
10.0277	-81.7126	0.725586
10.03	-73.74382	0.745117
10.0306	-82.6707	0.764648
10.0327	-79.1515	0.78418
10.0332	-73.3643	0.803711
10.0366	-76.2822	0.823242
10.038	-75.0847	0.842773
10.0393	-71.0961	0.862305
10.0409	-74.0258	0.881836
10.0429	-76.0628	0.901367
10.0448	-66.1977	0.920898
10.0462	-67.8757	0.94043
10.0477	-72.2492	0.959961
10.0502	-67.2809	0.979492
10.0508	-59.928	0.999023
10.0527	-66.4939	1.01855
10.0541	-63.7445	1.03809
10.0557	-59.4534	1.05762
10.0573	-60.6389	1.07715
10.0593	-62.6116	1.09668
10.0601	-51.8938	1.11621
10.0612	-59.5248	1.13574
10.0641	-59.3535	1.15527
10.06512	-51.1823	1.1748
10.0674	-51.4103	1.19434
10.0684	-60.3248	1.21387
10.071	-48.2553	1.2334
10.0726	-48.4972	1.25293
10.0738	-52.7979	1.27246
10.0749	-45.4051	1.29199
10.0765	-43.3006	1.31152
10.0794	-52.46772	1.33105
10.0811	-45.5593	1.35059
10.082	-39.0446	1.37012
10.0829	-45.4396	1.38965
10.0852	-42.95179	1.40918
10.0867	-35.9567	1.42871
10.0888	-39.6163	1.44824
10.0895	-41.8274	1.46777
10.0908	-33.99324	1.4873
10.093	-35.1001	1.50684
10.0957	-36.2486	1.52637
10.0965	-33.51754	1.5459
10.09833	-28.7741	1.56543
10.1005	-35.236	1.58496
10.1015	-28.2274	1.60449
10.103	-23.1772	1.62402
10.1044	-30.1303	1.64355
10.1059	-30.3643	1.66309
10.1071	-18.4807	1.68262
10.109	-27.235	1.70215
10.11068	-26.11553	1.72168
10.1122	-18.258	1.74121
10.114	-19.6983	1.76074
10.1164	-26.6093	1.78027
10.1177	-12.3369	1.7998
10.1193	-16.4886	1.81934
10.1203	-19.3134	1.83887
10.1222	-11.3016	1.8584
10.1244	-9.56607	1.87793
10.1252	-20.0698	1.89746
10.12767	-11.0061	1.91699
10.1287	-7.88203	1.93652
10.1304	-12.5095	1.95605
10.1323	-7.0772	1.97559
10.134	-3.04173	1.99512
10.1347	-9.30964	2.01465
10.137	-6.11849	2.03418
10.1382	1.79954	2.05371
10.1389	-5.15251	2.07324
10.1414	-5.91224	2.09277
10.1441	3.06242	2.1123
10.1463	2.28334	2.13184
10.1475	-2.83492	2.15137
10.1496	5.58291	2.1709
10.1508	5.84409	2.19043
10.1517	3.08309	2.20996
10.1528	6.06215	2.22949
10.1553	13.7304	2.24902
10.1565	4.20321	2.26855
10.1581	12.2637	2.28809
10.1601	16.3662	2.30762
10.1617	11.2186	2.32715
10.1621	8.677907	2.34668
10.1644	23.2273	2.36621
10.1661	16.7206	2.38574
10.167	14.2051	2.40527
10.1699	22.506	2.4248
10.1718	21.5341	2.44434
10.1726	14.65103	2.46387
10.1739	27.30596	2.4834
10.1757	26.923	2.50293
10.1783	20.6845	2.52246
10.1797	27.3682	2.54199
10.18104	31.9837	2.56152
10.1832	23.3937	2.58105
10.1845	29.1378	2.60059
10.1858	35.706	2.62012
10.1866	28.8939	2.63965
10.189	32.8077	2.65918
10.1911	37.32547	2.67871
10.1922	34.4112	2.69824
10.1935	32.34594	2.71777
10.1952	43.36779	2.7373
10.1974	39.4234	2.75684
10.1991	38.0666	2.77637
10.2003	41.28693	2.7959
10.2033	47.5427	2.81543
10.2036	39.55484	2.83496
10.2059	44.811	2.85449
10.2064	50.0442	2.87402
10.2095	46.888	2.89355
10.2105	44.5654	2.91309
10.2124	55.0251	2.93262
10.2135	46.5084	2.95215
10.2156	48.4284	2.97168
10.2163	59.2794	2.99121
10.2175	55.1929	3.01074
10.2201	48.78693	3.03027
10.22168	61.8606	3.0498
10.2233	59.4388	3.06934
10.225	55.8587	3.08887
10.2267	62.231	3.1084
10.2285	63.607	3.12793
10.2298	55.0016	3.14746
10.2307	67.3645	3.16699
10.2333	70.0551	3.18652
10.2349	62.0584	3.20605
10.2362	66.9597	3.22559
10.238	74.2122	3.24512
10.2392	66.9398	3.26465
10.2406	68.6775	3.28418
10.2424	78.242	3.30371
10.2442	72.4521	3.32324
10.24574	74.1298	3.34277
10.2475	77.45417	3.3623
10.2488	79.107	3.38184
10.2508	73.4604	3.40137
10.2518	82.89949	3.4209
10.2538	83.2378	3.44043
10.2558	78.673	3.45996
10.2562	79.9521	3.47949
10.26025	89.49292	3.49902
10.2602	81.9689	3.51855
10.2628	86.493	3.53809
10.2639	92.3435	3.55762
10.2656	88.7036	3.57715
10.2662	84.8962	3.59668
10.2695	99.3507	3.61621
10.2713	90.829	3.63574
10.2713	89.2223	3.65527
10.2736	99.7403	3.6748
10.2745	98.9353	3.69434
10.2764	89.3282	3.71387
10.2787	100.519	3.7334
10.2809	101.598	3.75293
10.2815	95.8969	3.77246
10.2835	103.075	3.79199
10.2849	105.24	3.81152
10.2866	98.0184	3.83105
10.2876	105.151	3.85059
10.2902	112.061	3.87012
10.2919	104.207	3.88965
10.293	107.952	3.90918
10.2957	113.672	3.92871
10.2974	110.124	3.94824
10.2989	108.541	3.96777
10.2994	116.653	3.9873
10.30226	115.331	4.00684
10.302	113.657	4.02637
10.3036	118.306	4.0459
10.3058	121.079	4.06543
10.308	114.098	4.08496
10.3096	122.202	4.10449
10.3117	127.479	4.12402
10.31247	120.193	4.14355
10.31424	119.274	4.16309
10.3158	131.286	4.18262
10.3174	123.793	4.20215
10.3196	126.164	4.22168
10.3207	134.555	4.24121
10.3228	129.508	4.26074
10.3231	124.424	4.28027
10.3261	137.905	4.2998
10.32735	133.5448	4.31934
10.3291	129.518	4.33887
10.3305	139.458	4.3584
10.3321	140.46	4.37793
10.3345	132.745	4.39746
10.3359	139.3295	4.41699
10.3375	145.596	4.43652
10.3395	138.9563	4.45605
10.341	143.2093	4.47559
10.3421	145.451	4.49512
10.3448	140.854	4.51465
10.34616	142.499	4.53418
10.3468	153.298	4.55371
10.3492	147.39	4.57324
10.3497	147.6714	4.59277
10.35058	153.103	4.6123
10.35359	155.622	4.63184
10.3553	147.579	4.65137
10.3566	157.434	4.6709
10.35839	159.2364	4.69043
10.36	153.119	4.70996
10.3617	156.142	4.72949
10.3629	165.347	4.74902
10.3651	154.347	4.76855
10.3673	161.087	4.78809
10.36722	168.966	4.80762
10.3696	161.989	4.82715
10.371	158.468	4.84668
10.3729	172.835	4.86621
10.3745	167.33	4.88574
10.3772	165.958	4.90527
10.3777	173.346	4.9248
10.3801	171.645	4.94434
10.3823	165.4698	4.96387
10.3825	177.343	4.9834
10.3839	178.719	5.00293
10.3872	169.6823	5.02246
10.3872	178.914	5.04199
10.3892	183.788	5.06152
10.39043	174.432	5.08105
10.3927	177.681	5.10059
10.3943	187.001	5.12012
10.3971	178.7785	5.13965
10.397	181.659	5.15918
10.3998	187.365	5.17871
10.4017	186.706	5.19824
10.4027	181.804	5.21777
10.4044	194.548	5.2373
10.4061	191.241	5.25684
10.4074	186.2894	5.27637
10.4079	190.958	5.2959
10.4104	197.902	5.31543
10.4124	189.276	5.33496
10.4137	196.6898	5.35449
10.4159	198.814	5.37402
10.4171	194.709	5.39355
10.4187	194.384	5.41309
10.4207	206.814	5.43262
10.4211	198.085	5.45215
10.4231	200.078	5.47168
10.4251	210.617	5.49121
10.4267	204.258	5.51074
10.4278	199.834	5.53027
10.4301	212.748	5.5498
10.4318	209.1739	5.56934
10.4339	206.075	5.58887
10.4346	213.665	5.6084
10.43685	212.341	5.62793
10.4377	205.962	5.64746
10.4397	215.633	5.66699
10.4408	219.393	5.68652
10.4425	211.551	5.70605
10.445	217.397	5.72559
10.4461	223.2135	5.74512
10.4481	218.247	5.76465
10.4486	217.492	5.78418
10.4504	227.443	5.80371
10.4527	224.247	5.82324
10.4541	221.833	5.84277
10.4553	226.832	5.8623
10.4579	229.126	5.88184
10.4595	222.6805	5.90137
10.4605	232.684	5.9209
10.4635	234.273	5.94043
10.4639	227.635	5.95996
10.4669	231.161	5.97949
10.4677	240.007	5.99902
10.4685	232.494	6.01855
10.4709	237.14	6.03809
10.4731	243.35	6.05762
10.4743	238.218	6.07715
10.4755	237.57	6.09668
10.4782	246.485	6.11621
10.4787	239.5844	6.13574
10.4797	238.044	6.15527
10.482	251.389	6.1748
10.4837	247.674	6.19434
10.4854	240.564	6.21387
10.4858	250.269	6.2334
10.4887	252.277	6.25293
10.49	245.74	6.27246
10.4917	254.163	6.29199
10.4932	254.168	6.31152
10.495	250.092	6.33105
10.49594	253.487	6.35059
10.4992	264.3121	6.37012
10.5001	254.691	6.38965
10.5021	257.379	6.40918
10.5032	262.186	6.42871
10.5051	261.915	6.44824
10.5069	256.491	6.46777
10.5085	267.822	6.4873
10.5101	266.613	6.50684
10.5108	263.276	6.52637
10.5123	266.155	6.5459
10.5147	272.317	6.56543
10.5152	263.299	6.58496
10.51706	272.735	6.60449
10.5185	276.594	6.62402
10.5212	269.714	6.64355
10.5228	269.735	6.66309
10.5236	282.6387	6.68262
10.5263	274.409	6.70215
10.5278	274.761	6.72168
10.5286	283.492	6.74121
10.5308	278.751	6.76074
10.53287	274.866	6.78027
10.5336	288.053	6.7998
10.5356	283.7572	6.81934
10.5377	279.3772	6.83887
10.5395	289.492	6.8584
10.5413	290.768	6.87793
10.5423	282.759	6.89746
10.5441	289.72	6.91699
10.54518	295.058	6.93652
10.5468	288.754	6.95605
10.5498	292.388	6.97559
10.54987	295.97	6.99512
10.55296	291.65	7.01465
10.5536	291.665	7.03418
10.5552	303.8414	7.05371
10.55624	298.554	7.07324
10.5585	298.329	7.09277
10.5604	302.63	7.1123
10.5605	305.108	7.13184
10.5635	296.986	7.15137
10.5646	305.8096	7.1709
10.567	310.002	7.19043
10.5682	303.037	7.20996
10.5707	305.032	7.22949
10.5713	314.9935	7.24902
10.57363	303.732	7.26855
10.57516	310.387	7.28809
10.5761	319.004	7.30762
10.5779	310.84	7.32715
10.5805	309.069	7.34668
10.5812	321.885	7.36621
10.5829	316.101	7.38574
10.5857	315.157	7.40527
10.5866	323.618	7.4248
10.58749	319.139	7.44434
10.5893	314.084	7.46387
10.5909	326.646	7.4834
10.5926	327.777	7.50293
10.5937	318.505	7.52246
10.59586	327.424	7.54199
10.597	331.471	7.56152
10.5992	324.996	7.58105
10.6006	326.654	7.60059
10.6029	335.83	7.62012
10.6042	329.168	7.63965
10.60496	333.524	7.65918
10.6082	334.293	7.67871
10.609	334.2728	7.69824
10.6101	330.7774	7.71777
10.6126	342.374	7.7373
10.6141	340.5	7.75684
10.6153	334.712	7.77637
10.6163	340.521	7.7959
10.619	348.598	7.81543
10.6205	339.267	7.83496
10.6222	346.373	7.85449
10.6236	350.936	7.87402
10.62587	343.136	7.89355
10.6259	344.571	7.91309
10.6283	355.206	7.93262
10.6303	347.463	7.95215
10.6324	347.244	7.97168
10.6336	358.799	7.99121
10.6353	352.3299	8.01074
10.6366	347.365	8.03027
10.6378	360.258	8.0498
10.6402	359.606	8.06934
10.6405	352.535	8.08887
10.6435	363.793	8.1084
10.6447	362.068	8.12793
10.6468	357.337	8.14746
10.6482	363.786	8.16699
10.6502	369.858	8.18652
10.6512	360.869	8.20605
10.6533	366.31	8.22559
10.6537	369.816	8.24512
10.65624	367.264	8.26465
10.6578	365.604	8.28418
10.6595	376.241	8.30371
10.6621	371.219	8.32324
10.6622	372.24	8.34277
10.6637	374.895	8.3623
10.6658	376.976	8.38184
10.66749	369.837	8.40137
10.6688	379.786	8.4209
10.6711	382.538	8.44043
10.6722	374.189	8.45996
10.6752	376.915	8.47949
10.6745	388.007	8.49902
10.6773	378.6684	8.51855
10.6787	381.839	8.53809
10.6802	391.364	8.55762
10.6821	382.678	8.57715
10.6832	380.862	8.59668
10.6858	394.543	8.61621
10.6864	388.447	8.63574
10.6884	385.017	8.65527
10.6899	397.636	8.6748
10.6919	394.563	8.69434
10.69345	386.901	8.71387
10.6947	397.88	8.7334
10.697	402.252	8.75293
10.69792	391.684	8.77246
10.6998	401.671	8.79199
10.701	402.454	8.81152
10.7038	397.722	8.83105
10.7046	401.595	8.85059
10.707	410.912	8.87012
10.7084	401.474	8.88965
10.71	403.466	8.90918
10.713	410.19	8.92871
10.7129	410.1221	8.94824
10.7144	404.492	8.96777
10.7157	416.353	8.9873
10.7178	414.461	9.00684
10.7196	409.85	9.02637
10.7215	414.104	9.0459
10.7236	419.888	9.06543
10.7251	409.266	9.08496
10.7251	419.852	9.10449
10.7289	424.5	9.12402
10.7286	414.013	9.14355
10.7307	416.732	9.16309
10.7327	428.852	9.18262
10.7342	419.83	9.20215
10.7365	419.931	9.22168
10.737	431.112	9.24121
10.7399	422.128	9.26074
10.7405	422.5603	9.28027
10.7429	432.8082	9.2998
10.7433	432.526	9.31934
10.7458	423.322	9.33887
10.7475	436.786	9.3584
10.7494	433.539	9.37793
10.7513	427.622	9.39746
10.7526	435.295	9.41699
10.7538	441.865	9.43652
10.7557	432.794	9.45605
10.7581	438.933	9.47559
10.7592	442.998	9.49512
10.7605	439.652	9.51465
10.7616	439.66	9.53418
10.7642	450.27	9.55371
10.7654	444.377	9.57324
10.7671	440.937	9.59277
10.7674	448.142	9.6123
10.7705	451.68	9.63184
10.7707	441.778	9.65137
10.77252	453.083	9.6709
10.7749	456.228	9.69043
10.7768	448.959	9.70996
10.778	451.824	9.72949
10.7795	461.121	9.74902
10.7819	450.611	9.76855
10.783	454.933	9.78809
10.7847	464.665	9.80762
10.7859	455.317	9.82715
10.7875	453.994	9.84668
10.78891	467.122	9.86621
10.7918	461.392	9.88574
10.7935	457.143	9.90527
10.7955	470.358	9.9248
10.796	464.871	9.94434
10.7977	460.664	9.96387
10.7991	470.46	9.9834
10.8003	474.7197	10.00293
10.8025	464.022	10.0225
10.8038	474.088	10.042
10.8054	475.996	10.0615
10.8074	470.195	10.0811
10.8088	470.8782	10.1006
10.81088	482.307	10.1201
10.8126	474.01	10.1396
10.814	475.944	10.15918
10.8154	482.272	10.1787
10.8175	480.757	10.1982
10.8189	476.321	10.2178
10.8211	488.253	10.2373
10.8228	485.5773	10.2568
10.8234	478.498	10.2764
10.82578	486.8486	10.2959
10.8273	492.058	10.31543
10.8289	481.064	10.335
10.83	489.501	10.3545
10.8316	496.113	10.374
10.8332	487.307	10.3936
10.8354	489.836	10.4131
10.8362	499.755	10.4326
10.83739	489.656	10.4521
10.8399	492.144	10.47168
10.8422	504.678	10.4912
10.8437	494.227	10.5107
10.8446	491.838	10.5303
10.8471	503.522	10.5498
10.8481	502.659	10.5693
10.8501	497.932	10.5889
10.8507	506.843	10.6084
10.8533	504.597	10.62793
10.8548	500.661	10.6475
10.857	507.279	10.667
10.8576	513.645	10.6865
10.858	503.929	10.7061
10.8608	510.093	10.7256
10.8623	513.827	10.7451
10.8652	511.314	10.7646
10.8659	509.078	10.78418
10.8665	520.53	10.8037
10.8688	516.015	10.8232
10.8712	514.217	10.8428
10.8725	520.2262	10.8623
10.875	521.68	10.8818
10.8758	514.215	10.9014
10.8786	525.728	10.9209
10.8786	525.515	10.94043
10.87997	516.358	10.96
10.8827	523.206	10.9795
10.8834	531.46	10.999
10.8849	521.076	11.0186
10.8884	524.161	11.0381
10.8883	533.917	11.0576
10.8902	525.89	11.0771
10.8925	525.485	11.09668
10.8935	536.989	11.1162
10.8948	532.169	11.1357
10.8972	528.24	11.1553
10.8989	542.346	11.1748
10.9007	535.354	11.1943
10.9019	531.944	11.2139
10.9038	539.869	11.2334
10.9055	544.201	11.25293
10.9067	535.965	11.2725
10.9082	542.7973	11.292
10.9096	543.974	11.3115
10.9121	539.068	11.3311
10.9126	541.792	11.3506
10.9145	552.516	11.3701
10.9163	544.996	11.3896
10.9179	546.967	11.40918
10.9198	553.243	11.4287
10.9216	551.965	11.4482
10.9238	545.154	11.4678
10.9257	556.057	11.4873
10.9272	555.872	11.5068
10.9276	548.098	11.5264
10.9294	557.049	11.5459
10.9318	561.106	11.56543
10.9317	551.996	11.585
10.934	559.01	11.6045
10.9364	566.55	11.624
10.9375	553.872	11.6436
10.93905	558.689	11.6631
10.9416	569.451	11.6826
10.9428	563.871	11.7021
10.9452	560.244	11.72168
10.9457	572.931	11.7412
10.9487	565.247	11.7607
10.9476	565.787	11.7803
10.9504	573.431	11.7998
10.953	572.327	11.8193
10.9536	564.86	11.8389
10.956	576.7442	11.8584
10.9576	574.528	11.87793
10.9584	570.033	11.8975
10.9606	575.269	11.917
10.9616	582.97	11.9365
10.9648	574.359	11.9561
10.9658	578.348	11.9756
10.9666	582.313	11.9951
10.9687	579.221	12.0146
10.9703	578.101	12.03418
10.9722	591.688	12.0537
10.9732	584.279	12.0732
10.9751	580.446	12.0928
10.9756	588.557	12.1123
10.9779	589.638	12.1318
10.9793	583.781	12.1514
10.9821	590.92	12.1709
10.9834	594.679	12.19043
10.9854	585.275	12.21
10.9868	593.109	12.2295
10.9876	597.837	12.249
10.9894	588.908	12.2686
10.99103	594.985	12.2881
10.9928	606.585	12.3076
10.9941	591.853	12.3271
10.9969	594.006	12.34668
10.9972	605.89	12.3662
10.9992	601.782	12.3857
11.0017	596.249	12.4053
11.0023	610.076	12.4248
11.0038	603.099	12.4443
11.0066	603.16	12.4639
11.008	609.493	12.4834
11.0096	611.078	12.50293
11.0111	602.498	12.5225
11.012	613.2	12.542
11.01432	613.519	12.5615
11.0153	609.252	12.5811
11.0177	609.194	12.6006
11.0193	620.2666	12.6201
11.0211	614.689	12.6396
11.0215	614.048	12.65918
11.02455	618.954	12.6787
11.0257	618.743	12.6982
11.02702	614.285	12.7178
11.0294	624.821	12.7373
11.0309	624.3783	12.7568
11.0317	614.5011	12.7764
11.0337	625.5365	12.7959
11.0354	629.834	12.81543
11.0361	620.514	12.835
11.0381	626.156	12.8545
11.0406	634.062	12.874
11.0415	623.077	12.8936
11.0434	630.402	12.9131
11.0448	634.436	12.9326
11.0468	627.913	12.9521
11.0489	630.207	12.97168
11.0492	642.066	12.9912
11.0513	631.854	13.0107
11.0523	632.83	13.0303
11.055	641.378	13.0498
11.0573	643.402	13.0693
11.0581	634.741	13.0889
11.0591	642.9682	13.1084
11.0609	641.346	13.12793
11.0638	638.5976	13.1475
11.0644	643.996	13.167
11.0671	650.946	13.1865
11.068	639.348	13.2061
11.0696	645.129	13.2256
11.07105	650.792	13.2451
11.07232	647.036	13.2646
11.0737	645.693	13.28418
11.077	656.107	13.3037
11.0778	653.0318	13.3232
11.0805	648.064	13.3428
11.08078	656.679	13.3623
11.0827	655.796	13.3818
11.0842	650.613	13.4014
11.086	660.927	13.4209
11.0875	662.9906	13.44043
11.0889	652.147	13.46
11.0896	660.809	13.4795
11.0918	666.543	13.499
11.0942	658.718	13.5186
11.094	659.9906	13.5381
11.0976	671.612	13.5576
11.0986	661.315	13.5771
11.1005	666.429	13.59668
11.1019	673.4563	13.6162
11.1037	668.419	13.6357
11.1051	666.402	13.6553
11.1061	678.333	13.6748
11.109	671.878	13.6943
11.1102	667.471	13.7139
11.1119	675.478	13.7334
11.1138	679.509	13.75293
11.1156	670.817	13.7725
11.1167	677.567	13.792
11.1188	680.231	13.8115
11.12	674.669	13.8311
11.1219	678.683	13.8506
11.1234	687.0083	13.8701
11.1247	679.708	13.8896
11.12665	679.22	13.90918
11.1279	688.661	13.9287
11.129	685.816	13.9482
11.131	681.29	13.9678
11.1325	691.261	13.9873
11.1347	691.265	14.0068
11.136	683.1698	14.0264
11.138	692.756	14.0459
11.1389	695.345	14.06543
11.1406	688.714	14.085
11.1437	694.735	14.1045
11.1433	699.377	14.124
11.1461	688.2915	14.1436
11.1481	694.728	14.1631
11.1495	703.512	14.1826
11.1509	697.476	14.2021
11.1525	694.632	14.22168
11.1549	706.353	14.2412
11.1557	696.835	14.2607
11.1574	699.63	14.2803
11.1591	707.429	14.2998
11.1604	706.1731	14.3193
11.1624	700.7287	14.3389
11.16448	711.417	14.3584
11.1648	710.6424	14.37793
11.1667	703.681	14.3975
11.1677	709.159	14.417
11.1702	717.112	14.4365
11.1721	708.42	14.4561
11.1741	712.277	14.4756
11.1744	716.765	14.4951
11.1771	712.326	14.5146
11.1783	712.25	14.53418
11.1789	722.707	14.5537
11.1806	716.117	14.5732
11.18347	712.7265	14.5928
11.1849	723.747	14.6123
11.186	723.48	14.6318
11.1877	715.037	14.6514
11.19	723.761	14.6709
11.1903	729.625	14.69043
11.1926	718.656	14.71
11.1943	726.634	14.7295
11.1962	730.185	14.749
11.1982	722.797	14.7686
11.1995	728.862	14.7881
11.2012	738.457	14.8076
11.2033	725.623	14.8271
11.205	728.423	14.84668
11.2058	738.275	14.8662
11.208	734.544	14.8857
11.20953	730.628	14.9053
11.2105	741.384	14.9248
11.2134	734.9798	14.9443
11.21411	735.427	14.9639
11.2157	741.202	14.9834
11.2168	743.289	15.00293
11.2192	734.278	15.0225
11.2202	742.826	15.042
11.2218	745.069	15.0615
11.224	740.235	15.0811
11.22583	742.71	15.1006
11.228	751.665	15.1201
11.2291	746.505	15.1396
11.22975	744.194	15.15918
11.2333	752.604	15.1787
11.2336	750.508	15.1982
11.2361	746.26	15.2178
11.2368	755.945	15.2373
11.2397	755.062	15.2568
11.2396	745.53	15.2764
11.2417	758.102	15.2959
11.2442	759.325	15.31543
11.2444	751.951	15.335
11.2462	757.154	15.3545
11.2481	764.148	15.374
11.2513	751.434	15.3936
11.25157	761.926	15.4131
11.2535	765.078	15.4326
11.2554	759.173	15.4521
11.2571	760.636	15.47168
11.2582	772.177	15.4912
11.26	760.72	15.5107
11.261	762.1637	15.5303
11.2629	772.1145	15.5498
11.2643	770.206	15.5693
11.2666	764.386	15.5889
11.26768	773.172	15.6084
11.2688	771.601	15.62793
11.2718	769.183	15.6475
11.2727	773.599	15.667
11.2735	779.071	15.6865
11.2754	770.743	15.7061
11.2776	772.5481	15.7256
11.2801	782.227	15.7451
11.2812	774.919	15.7646
11.2832	774.5498	15.78418
11.2843	784.085	15.8037
11.2853	781.315	15.8232
11.2874	774.584	15.8428
11.2883	784.738	15.8623
11.291	784.683	15.8818
11.2927	780.154	15.9014
11.2936	788.903	15.9209
11.2952	791.582	15.94043
11.2969	779.199	15.96
11.2992	791.104	15.9795
11.3004	795.497	15.999
11.3024	788.241	16.0186
11.3037	789.1767	16.0381
11.3054	799.227	16.0576
11.3072	788.201	16.0771
11.3091	791.901	16.09668
11.3108	799.739	16.1162
11.3116	796.171	16.1357
11.3144	792.685	16.1553
11.3145	804.706	16.1748
11.3173	797.192	16.1943
11.3185	795.3421	16.2139
11.3201	802.265	16.2334
11.3225	807.112	16.25293
11.3231	798.175	16.2725
11.324	803.081	16.292
11.3268	806.131	16.3115
11.328	801.8645	16.3311
11.329	805.703	16.3506
11.33158	813.077	16.3701
11.3325	805.473	16.3896
11.3343	804.07	16.40918
11.3365	814.956	16.4287
11.3373	809.296	16.4482
11.33895	806.937	16.4678
11.3404	816.884	16.4873
11.3429	816.689	16.5068
11.3449	808.756	16.5264
11.3464	819.331	16.5459
11.3483	819.231	16.56543
11.3491	813.163	16.585
11.351	820.299	16.6045
11.3531	825.675	16.624
11.3546	811.488	16.6436
11.3557	821.25	16.6631
11.358	828.663	16.6826
11.3595	820.361	16.7021
11.3605	820.996	16.72168
11.3615	830.247	16.7412
11.3642	823.024	16.7607
11.3657	823.646	16.7803
11.3675	831.95	16.7998
11.3691	829.624	16.8193
11.3696	823.782	16.8389
11.3721	833.321	16.8584
11.3748	833.2782	16.87793
11.3756	826.199	16.8975
11.3771	832.763	16.917
11.3787	839.977	16.9365
11.3803	832.826	16.9561
11.3824	833.053	16.9756
11.3834	840.61	16.9951
11.3846	837.039	17.0146
11.3866	836.138	17.03418
11.3889	845.456	17.0537
11.3899	840.8233	17.0732
11.3926	833.829	17.0928
11.3937	847.227	17.1123
11.3946	843.8479	17.1318
11.39685	839.171	17.1514
11.3983	846.04	17.1709
11.3985	852.179	17.19043
11.402	839.098	17.21
11.4023	850.034	17.2295
11.40467	852.163	17.249
11.4052	845.92	17.2686
11.4076	849.82	17.2881
11.4098	857.951	17.3076
11.4107	845.143	17.3271
11.4138	851.801	17.34668
11.4139	857.74	17.3662
11.415	854.446	17.3857
11.41779	851.289	17.4053
11.4188	860.436	17.4248
11.4202	856.204	17.4443
11.4231	854.372	17.4639
11.4232	861.623	17.4834
11.42618	862.686	17.50293
11.4279	856.9248	17.5225
11.4291	861.144	17.542
11.4301	866.804	17.5615
11.433	857.659	17.5811
11.434	862.381	17.6006
11.4366	869.8009	17.6201
11.4369	864.587	17.6396
11.43734	860.314	17.65918
11.4398	873.148	17.6787
11.4417	867.359	17.6982
11.4428	866.205	17.7178
11.4449	874.438	17.7373
11.4469	872.048	17.7568
11.4485	862.822	17.7764
11.4507	877.273	17.7959
11.451	878.016	17.81543
11.4534	869.849	17.835
11.4541	875.242	17.8545
11.4571	883.298	17.874
11.4582	870.457	17.8936
11.459	877.951	17.9131
11.46111	881.745	17.9326
11.4637	875.771	17.9521
11.4646	878.892	17.97168
11.4668	887.731	17.9912
11.4698	878.585	18.0107
11.4699	878.796	18.0303
11.4722	886.499	18.0498
11.4722	885.918	18.0693
11.4741	880.165	18.0889
11.4762	887.237	18.1084
11.4781	888.261	18.12793
11.4792	885.1723	18.1475
11.4805	889.585	18.167
11.4821	891.0625	18.1865
11.4846	886.396	18.2061
11.4868	887.758	18.2256
11.488	897.603	18.2451
11.4896	889.683	18.2646
11.4916	890.815	18.28418
11.492	899.563	18.3037
11.4939	895.931	18.3232
11.4966	889.377	18.3428
11.4969	901.262	18.3623
11.4997	896.805	18.3818
11.50034	895.964	18.4014
11.5029	903.756	18.4209
11.5027	904.474	18.44043
11.5047	890.676	18.46
11.5069	903.7121	18.4795
11.5082	906.88	18.499
11.5115	899.367	18.5186
11.5122	902.2948	18.5381
11.5126	910.617	18.5576
11.5158	899.717	18.5771
11.5157	904.3327	18.59668
11.5178	911.868	18.6162
11.5201	905.148	18.6357
11.5209	906.357	18.6553
11.5236	914.211	18.6748
11.5261	909.319	18.6943
11.52564	904.278	18.7139
11.5281	914.8103	18.7334
11.5308	915.971	18.75293
11.5322	908.737	18.7725
11.5325	910.805	18.792
11.5347	917.618	18.8115
11.5363	912.4079	18.8311
11.5374	916.472	18.8506
11.5399	922.8089	18.8701
11.5403	914.5733	18.8896
11.5423	913.289	18.90918
11.5449	925.335	18.9287
11.5463	916.7691	18.9482
11.5483	916.1485	18.9678
11.5493	925.612	18.9873
11.55126	925.34	19.0068
11.5521	916.746	19.0264
11.5548	926.702	19.0459
11.5562	925.532	19.06543
11.5576	919.992	19.085
11.5587	927.152	19.1045
11.5605	931.403	19.124
11.5623	920.67	19.1436
11.5643	929.479	19.1631
11.5652	936.753	19.1826
11.5676	926.483	19.2021
11.5692	926.868	19.22168
11.571	937.3551	19.2412
11.5725	930.081	19.2607
11.5732	930.251	19.2803
11.5746	937.267	19.2998
11.57694	934.702	19.3193
11.5789	930.097	19.3389
11.5801	937.975	19.3584
11.5826	938.975	19.37793
11.5833	931.071	19.3975
11.5859	939.003	19.417
11.5867	943.713	19.4365
11.5884	937.3844	19.4561
11.5905	937.033	19.4756
11.5916	946.208	19.4951
11.59307	938.076	19.5146
11.59463	939.735	19.53418
11.5968	948.081	19.5537
11.5982	944.361	19.5732
11.6012	937.519	19.5928
11.6014	952.222	19.6123
11.6031	946.6908	19.6318
11.60465	940.495	19.6514
11.6058	950.568	19.6709
11.6075	952.456	19.69043
11.6099	940.301	19.71
11.6116	950.228	19.7295
11.6127	954.248	19.749
11.6146	947.254	19.7686
11.6158	952.018	19.7881
11.6179	956.054	19.8076
11.62	946.984	19.8271
11.6212	949.244	19.84668
11.6228	959.398	19.8662
11.6246	953.309	19.8857
11.6256	949.936	19.9053
11.6281	958.62	19.9248
11.6292	955.345	19.9443
11.6307	952.33	19.9639
11.6326	960.92	19.9834
11.6333	958.822	20.00293
11.6349	959.601	20.0127

Data Header:			0.254_solid_dimension_typei_090_r0			Time:	40.0195	s	4/15/2019 2:21:51 PM
Data Acquisition:	Timed
Station Name:	ft40.cfg
Test File Name:	monotonic_0.2540_typei_solid_090_dimension.tst
Displacement	Force	Running Time
mm	N	s
11.6352	953.937	20.0225
11.6366	958.563	20.042
11.6386	963.1582	20.0615
11.6413	955.506	20.0811
11.6425	959.6225	20.1006
11.6436	967.301	20.1201
11.6458	960.427	20.1396
11.6477	955.876	20.15918
11.6487	970.249	20.1787
11.6499	962.353	20.1982
11.6514	962.21	20.2178
11.6528	970.178	20.2373
11.6559	966.773	20.2568
11.65694	958.786	20.2764
11.6582	972.179	20.2959
11.6605	969.924	20.31543
11.661	963.431	20.335
11.6633	970.22	20.3545
11.6643	974.666	20.374
11.66713	964.139	20.3936
11.66749	970.859	20.4131
11.6693	975.656	20.4326
11.6715	969.097	20.4521
11.6728	971.489	20.47168
11.6744	979.155	20.4912
11.6768	971.53	20.5107
11.6781	968.3421	20.5303
11.6803	979.691	20.5498
11.6813	976.8894	20.5693
11.6831	972.35	20.5889
11.6851	976.195	20.6084
11.6856	981.087	20.62793
11.6868	973.154	20.6475
11.6895	981.43	20.667
11.6907	981.857	20.6865
11.6926	976.87	20.7061
11.695	975.458	20.7256
11.6961	987.058	20.7451
11.6969	976.883	20.7646
11.6997	976.911	20.78418
11.7003	987.909	20.8037
11.7031	984.394	20.8232
11.7044	974.895	20.8428
11.7057	988.821	20.8623
11.7074	985.336	20.8818
11.7098	979.2995	20.9014
11.7102	988.956	20.9209
11.7124	989.672	20.94043
11.7141	977.933	20.96
11.71534	988.68	20.9795
11.7168	991.467	20.999
11.7185	982.139	21.0186
11.7192	985.885	21.0381
11.7222	992.563	21.0576
11.7239	983.835	21.0771
11.7252	986.978	21.09668
11.7263	993.892	21.1162
11.7294	988.089	21.1357
11.72974	986.943	21.1553
11.7315	994.374	21.1748
11.7329	991.134	21.1943
11.735	986.178	21.2139
11.7373	995.913	21.2334
11.7385	995.739	21.25293
11.7394	990.2002	21.2725
11.7428	992.745	21.292
11.743	999.8866	21.3115
11.7447	990.133	21.3311
11.7464	994.243	21.3506
11.7475	999.83	21.3701
11.7493	994.975	21.3896
11.7518	991.929	21.40918
11.7526	1002.44	21.4287
11.7545	995.232	21.4482
11.7553	993.97	21.4678
11.7578	1002.863	21.4873
11.7598	1002.32	21.5068
11.7611	991.349	21.5264
11.7628	1002.46	21.5459
11.7648	1002.68	21.56543
11.7655	994.831	21.585
11.7684	1000.81	21.6045
11.7688	1004.24	21.624
11.7709	993.592	21.6436
11.7728	1001.5	21.6631
11.7741	1009.1	21.6826
11.7763	997.219	21.7021
11.7755	998.783	21.72168
11.7788	1005.23	21.7412
11.781	1001.99	21.7607
11.7816	999.156	21.7803
11.7836	1007.44	21.7998
11.7856	1004.58	21.8193
11.7861	1001.52	21.8389
11.7888	1005.6	21.8584
11.79	1008.56	21.87793
11.7926	998.892	21.8975
11.793	1007.01	21.917
11.7956	1010.29	21.9365
11.7967	1002.91	21.9561
11.799	1002.67	21.9756
11.8004	1013.84	21.9951
11.8028	1002.82	22.0146
11.8038	1005.3	22.03418
11.8046	1013.15	22.0537
11.8068	1007.33	22.0732
11.8081	1000.459	22.0928
11.8103	1015.308	22.1123
11.8112	1009.08	22.1318
11.8125	1004.46	22.1514
11.8146	1013.04	22.1709
11.8163	1013.95	22.19043
11.8184	1002.64	22.21
11.8194	1011.71	22.2295
11.8212	1012.37	22.249
11.82338	1006.53	22.2686
11.824	1009.89	22.2881
11.82628	1017.05	22.3076
11.8284	1006.56	22.3271
11.8295	1007.28	22.34668
11.83077	1018.319	22.3662
11.8328	1010	22.3857
11.834	1009.11	22.4053
11.8355	1013.277	22.4248
11.8369	1014.97	22.4443
11.8391	1007.99	22.4639
11.8404	1016.53	22.4834
11.8433	1015.9	22.50293
11.8445	1009.66	22.5225
11.846	1012.13	22.542
11.8469	1019.35	22.5615
11.8484	1009	22.5811
11.8495	1014.09	22.6006
11.8526	1021.93	22.6201
11.8532	1012.7	22.6396
11.8561	1008.04	22.65918
11.8573	1021.33	22.6787
11.8593	1013.63	22.6982
11.8593	1012.54	22.7178
11.861	1019.66	22.7373
11.8631	1017.63	22.7568
11.865	1007.57	22.7764
11.8669	1021.11	22.7959
11.869	1019.6	22.81543
11.8703	1010.49	22.835
11.8718	1016.72	22.8545
11.8729	1021.48	22.874
11.8748	1012.52	22.8936
11.87571	1017.45	22.9131
11.87799	1021.55	22.9326
11.87987	1013.96	22.9521
11.8816	1015.89	22.97168
11.8826	1021.18	22.9912
11.8835	1015.36	23.0107
11.8863	1013.63	23.0303
11.8886	1023.08	23.0498
11.8889	1019.46	23.0693
11.8912	1014.495	23.0889
11.8918	1019.04	23.1084
11.8943	1022.04	23.12793
11.8959	1013.9	23.1475
11.8983	1020	23.167
11.899	1024.005	23.1865
11.9007	1017.15	23.2061
11.9033	1015.76	23.2256
11.9041	1026.03	23.2451
11.9064	1014.24	23.2646
11.9082	1016.57	23.28418
11.9087	1026.131	23.3037
11.911	1020.06	23.3232
11.9123	1012.17	23.3428
11.9137	1025.05	23.3623
11.9157	1020.26	23.3818
11.9175	1017.07	23.4014
11.9183	1025.1	23.4209
11.9204	1023.38	23.44043
11.9224	1013.71	23.46
11.9236	1022.56	23.4795
11.9255	1026.39	23.499
11.9268	1015.55	23.5186
11.9288	1019.96	23.5381
11.9298	1024.76	23.5576
11.9309	1017.03	23.5771
11.9339	1018.71	23.59668
11.9353	1025.19	23.6162
11.9374	1018.55	23.6357
11.9385	1020.92	23.6553
11.9388	1024.72	23.6748
11.9416	1022.01	23.6943
11.9436	1014.83	23.7139
11.9456	1024.99	23.7334
11.9468	1025.75	23.75293
11.9475	1019.93	23.7725
11.9505	1017.611	23.792
11.9511	1027.921	23.8115
11.9537	1017.42	23.8311
11.9548	1022.05	23.8506
11.9559	1026.89	23.8701
11.9577	1019.81	23.8896
11.9591	1015.37	23.90918
11.9605	1028.52	23.9287
11.9626	1019.52	23.9482
11.9648	1017.4	23.9678
11.9655	1026.04	23.9873
11.9679	1024.36	24.0068
11.9681	1014.07	24.0264
11.97054	1024.22	24.0459
11.9717	1025.36	24.06543
11.9753	1018.36	24.085
11.9752	1023.8	24.1045
11.9775	1025.4	24.124
11.979	1015.97	24.1436
11.9805	1019.333	24.1631
11.9824	1028.66	24.1826
11.9837	1019.41	24.2021
11.9862	1020.72	24.22168
11.9866	1024.26	24.2412
11.9889	1021.63	24.2607
11.9905	1015.423	24.2803
11.9927	1026.42	24.2998
11.9938	1024.5	24.3193
11.9946	1019.27	24.3389
11.9972	1022.93	24.3584
11.9984	1025.51	24.37793
11.9999	1015.63	24.3975
12.0021	1023.15	24.417
12.0035	1028.342	24.4365
12.0046	1019.4	24.4561
12.006	1017.17	24.4756
12.0075	1030.45	24.4951
12.01004	1019.48	24.5146
12.0106	1021.3	24.53418
12.01275	1028.63	24.5537
12.0159	1021.01	24.5732
12.0157	1015.14	24.5928
12.0179	1029.05	24.6123
12.0195	1023.326	24.6318
12.0221	1016.46	24.6514
12.023	1025.23	24.6709
12.0248	1024.76	24.69043
12.0269	1014.85	24.71
12.0275	1023.53	24.7295
12.0299	1025.06	24.749
12.03093	1017.07	24.7686
12.0333	1022.51	24.7881
12.0336	1026.97	24.8076
12.0364	1017.67	24.8271
12.0374	1017.19	24.84668
12.0402	1026.68	24.8662
12.0404	1020.16	24.8857
12.0432	1017.608	24.9053
12.0444	1022.06	24.9248
12.0466	1023.84	24.9443
12.0468	1015.92	24.9639
12.0487	1024.63	24.9834
12.0504	1022.48	25.00293
12.0526	1017.69	25.0225
12.0544	1019.08	25.042
12.0545	1027.77	25.0615
12.0567	1015.93	25.0811
12.0591	1019.24	25.1006
12.0595	1026.022	25.1201
12.0609	1019.3	25.1396
12.0626	1013.48	25.15918
12.065	1025.71	25.1787
12.0673	1017.85	25.1982
12.0679	1017.96	25.2178
12.0711	1025.19	25.2373
12.0713	1020.03	25.2568
12.0731	1011.87	25.2764
12.07492	1023.53	25.2959
12.0771	1022.913	25.31543
12.0786	1015.26	25.335
12.07979	1020.57	25.3545
12.0816	1022.36	25.374
12.08305	1015.65	25.3936
12.0847	1018.61	25.4131
12.0862	1024.48	25.4326
12.0874	1016.43	25.4521
12.0905	1018.91	25.47168
12.091	1020.85	25.4912
12.093	1018.52	25.5107
12.09393	1013.62	25.5303
12.09565	1025.23	25.5498
12.0982	1021.66	25.5693
12.0993	1015.79	25.5889
12.10129	1017.486	25.6084
12.1023	1024.36	25.62793
12.1037	1013.83	25.6475
12.1052	1021.84	25.667
12.1072	1022.86	25.6865
12.109	1015.14	25.7061
12.11	1014.88	25.7256
12.1121	1026.83	25.7451
12.1138	1014.76	25.7646
12.1165	1016.2	25.78418
12.1178	1023.18	25.8037
12.1188	1018.84	25.8232
12.1201	1011.06	25.8428
12.1212	1023.01	25.8623
12.1243	1018.448	25.8818
12.1251	1014.57	25.9014
12.1275	1021.502	25.9209
12.128	1018.63	25.94043
12.13133	1010.99	25.96
12.1319	1018.73	25.9795
12.1328	1022.76	25.999
12.13525	1012.121	26.0186
12.138	1016.31	26.0381
12.138	1019.13	26.0576
12.1401	1015.24	26.0771
12.1414	1012.923	26.09668
12.143	1022.04	26.1162
12.1449	1014.15	26.1357
12.14718	1013.55	26.1553
12.14756	1017.99	26.1748
12.1503	1018.379	26.1943
12.152	1010.93	26.2139
12.15416	1018.92	26.2334
12.1548	1019.96	26.25293
12.1562	1011.92	26.2725
12.1576	1012.601	26.292
12.15965	1021.732	26.3115
12.1611	1010.79	26.3311
12.1618	1015.74	26.3506
12.1651	1020.56	26.3701
12.16575	1012.52	26.3896
12.1683	1011.08	26.40918
12.1699	1022.5	26.4287
12.1713	1014.49	26.4482
12.1729	1008.676	26.4678
12.1752	1019.085	26.4873
12.17647	1017.05	26.5068
12.1771	1007.57	26.5264
12.1791	1019.2	26.5459
12.1815	1017.17	26.56543
12.18187	1008.25	26.585
12.18427	1016.42	26.6045
12.1859	1015.21	26.624
12.1879	1009.87	26.6436
12.1895	1010.77	26.6631
12.191	1020.78	26.6826
12.1916	1010.9	26.7021
12.1942	1011.42	26.72168
12.1954	1015.67	26.7412
12.1969	1014.2	26.7607
12.1991	1009.25	26.7803
12.2005	1018.83	26.7998
12.201	1015.53	26.8193
12.2033	1009.68	26.8389
12.2054	1012.76	26.8584
12.2074	1017.14	26.87793
12.2085	1005.78	26.8975
12.2103	1013.62	26.917
12.2123	1018.16	26.9365
12.21299	1010.01	26.9561
12.2144	1007.39	26.9756
12.2161	1019	26.9951
12.2175	1009.41	27.0146
12.219	1009.931	27.03418
12.2206	1017.85	27.0537
12.2239	1009.67	27.0732
12.2237	1004.88	27.0928
12.2271	1018.33	27.1123
12.228	1013.37	27.1318
12.2296	1005.33	27.1514
12.2318	1015.85	27.1709
12.2322	1014.58	27.19043
12.2336	1005.03	27.21
12.23541	1012.64	27.2295
12.23867	1014.798	27.249
12.2399	1006.23	27.2686
12.241	1012.26	27.2881
12.2423	1015.2	27.3076
12.2436	1006.73	27.3271
12.2467	1008.49	27.34668
12.2483	1017.88	27.3662
12.24939	1009.97	27.3857
12.2507	1007.67	27.4053
12.2519	1011.86	27.4248
12.2542	1013.99	27.4443
12.2559	1004.93	27.4639
12.2575	1013.66	27.4834
12.2592	1014.01	27.50293
12.2595	1005.08	27.5225
12.263	1007.786	27.542
12.2634	1015.36	27.5615
12.2654	1003.02	27.5811
12.2682	1007.66	27.6006
12.2681	1013.82	27.6201
12.2704	1007.31	27.6396
12.2728	1002.98	27.65918
12.2733	1014.54	27.6787
12.2754	1009.28	27.6982
12.2768	1005.89	27.7178
12.2786	1013.59	27.7373
12.2798	1007.57	27.7568
12.2822	1001.66	27.7764
12.2837	1011.65	27.7959
12.2849	1013.55	27.81543
12.2873	1001.55	27.835
12.2878	1009.45	27.8545
12.2903	1010.24	27.874
12.292	1005.18	27.8936
12.2927	1006.4	27.9131
12.2947	1013.88	27.9326
12.2957	1004.65	27.9521
12.2991	1009.21	27.97168
12.2996	1011.3	27.9912
12.3012	1008.54	28.0107
12.304	1002.21	28.0303
12.3052	1013.01	28.0498
12.30656	1008.78	28.0693
12.3074	1005.36	28.0889
12.309	1006.1	28.1084
12.3122	1012.71	28.12793
12.3124	1002.55	28.1475
12.3138	1009.85	28.167
12.3158	1012.66	28.1865
12.3176	1003.4	28.2061
12.3193	1002.62	28.2256
12.32083	1014.94	28.2451
12.3231	1003.53	28.2646
12.3247	1001.92	28.28418
12.325	1013.25	28.3037
12.3279	1006.231	28.3232
12.3285	1001.28	28.3428
12.3309	1010.77	28.3623
12.3322	1008.36	28.3818
12.334	1001.57	28.4014
12.3359	1010.98	28.4209
12.3364	1007.41	28.44043
12.3392	1000.61	28.46
12.3408	1006.44	28.4795
12.3422	1012.22	28.499
12.3439	1002.24	28.5186
12.3451	1005.14	28.5381
12.3454	1008.95	28.5576
12.3483	1004.93	28.5771
12.3491	1003.36	28.59668
12.35158	1011.92	28.6162
12.3537	1005.14	28.6357
12.3542	1002.87	28.6553
12.3564	1008.81	28.6748
12.3579	1007.9	28.6943
12.3601	999.402	28.7139
12.3615	1008.87	28.7334
12.3641	1009.45	28.75293
12.3645	1000.812	28.7725
12.3667	1002.16	28.792
12.36823	1010.97	28.8115
12.3691	1001.538	28.8311
12.3725	1004.352	28.8506
12.3727	1009.74	28.8701
12.3746	1001.5	28.8896
12.3766	999.183	28.90918
12.378	1012.01	28.9287
12.3785	1003.66	28.9482
12.3794	998.849	28.9678
12.3828	1010.16	28.9873
12.385	1006.92	29.0068
12.3855	999.083	29.0264
12.3879	1005.82	29.0459
12.3902	1008.47	29.06543
12.3906	998.87	29.085
12.3919	1007.88	29.1045
12.3938	1006.58	29.124
12.3964	1001.15	29.1436
12.3972	1001.68	29.1631
12.3993	1010.41	29.1826
12.4016	1002.874	29.2021
12.40234	1001.42	29.22168
12.4035	1006.3	29.2412
12.4055	1005.13	29.2607
12.4067	998.005	29.2803
12.409	1008.19	29.2998
12.4103	1004.66	29.3193
12.4116	1000.12	29.3389
12.4134	1003.94	29.3584
12.4146	1008.06	29.37793
12.4166	996.544	29.3975
12.419	1003.26	29.417
12.4199	1009.37	29.4365
12.42084	998.631	29.4561
12.4238	998.714	29.4756
12.4255	1009.49	29.4951
12.4268	1000.45	29.5146
12.42898	1000.561	29.53418
12.4302	1008.15	29.5537
12.4318	1000.35	29.5732
12.4333	997.327	29.5928
12.4352	1008.27	29.6123
12.4361	1004.47	29.6318
12.43869	996.275	29.6514
12.4401	1004.94	29.6709
12.4409	1004.84	29.69043
12.4414	997.03	29.71
12.4451	1001.57	29.7295
12.4462	1006.75	29.749
12.4482	997.663	29.7686
12.4498	1002.33	29.7881
12.4506	1004.92	29.8076
12.4527	999.484	29.8271
12.4541	999.27	29.84668
12.4562	1009.36	29.8662
12.4576	1001.99	29.8857
12.4586	998.7019	29.9053
12.4604	1003.42	29.9248
12.4612	1005.554	29.9443
12.4639	997.339	29.9639
12.4654	1004.95	29.9834
12.467	1004.65	30.00293
12.4688	998.001	30.0225
12.4704	1002.03	30.042
12.4721	1008.18	30.0615
12.4738	997.134	30.0811
12.4759	1000.88	30.1006
12.4777	1007.61	30.1201
12.4792	998.984	30.1396
12.4805	996.719	30.15918
12.4826	1007.09	30.1787
12.48381	1000.16	30.1982
12.4854	997.875	30.2178
12.4873	1006.12	30.2373
12.4876	999.4502	30.2568
12.491	996.411	30.2764
12.49125	1002.9	30.2959
12.493	1005	30.31543
12.4957	995.22	30.335
12.4967	1003.37	30.3545
12.4977	1003.29	30.374
12.5003	999.225	30.3936
12.5014	998.398	30.4131
12.5028	1006.54	30.4326
12.5049	999.042	30.4521
12.5058	999.862	30.47168
12.5084	1004.1	30.4912
12.5097	1002.28	30.5107
12.5109	994.965	30.5303
12.5126	1007.04	30.5498
12.5137	1006.06	30.5693
12.5166	995.342	30.5889
12.5169	1001.12	30.6084
12.5179	1006.07	30.62793
12.52079	997.64	30.6475
12.5224	1002.44	30.667
12.5239	1005.594	30.6865
12.5254	995.792	30.7061
12.528	997.469	30.7256
12.5279	1006.02	30.7451
12.5316	997.782	30.7646
12.5337	995.23	30.78418
12.5338	1007.649	30.8037
12.5354	998.662	30.8232
12.5369	995.008	30.8428
12.539	1003.77	30.8623
12.5405	1003.34	30.8818
12.541	996.224	30.9014
12.5441	1004.65	30.9209
12.54577	1000.29	30.94043
12.5476	995.602	30.96
12.5483	1000.05	30.9795
12.5502	1005.26	30.999
12.5516	996.3891	31.0186
12.5536	1000.24	31.0381
12.5557	1002.98	31.0576
12.5561	999.104	31.0771
12.5583	997.002	31.09668
12.5594	1004.98	31.1162
12.5618	998.755	31.1357
12.563	996.909	31.1553
12.5643	1002.06	31.1748
12.5674	1002.03	31.1943
12.568	992.291	31.2139
12.5692	1002.74	31.2334
12.5709	1005.24	31.25293
12.5733	994.787	31.2725
12.5749	996.686	31.292
12.577	1005.47	31.3115
12.5782	995.147	31.3311
12.5799	997.16	31.3506
12.58	1004.13	31.3701
12.58269	993.784	31.3896
12.5848	998.036	31.40918
12.5868	1005.15	31.4287
12.5866	998.212	31.4482
12.5887	995.388	31.4678
12.5909	1005.79	31.4873
12.5928	1000.26	31.5068
12.5945	996.024	31.5264
12.5956	1001.51	31.5459
12.5974	1002.69	31.56543
12.5987	996.492	31.585
12.6003	1002.78	31.6045
12.602	999.975	31.624
12.6043	996.462	31.6436
12.6052	997.3725	31.6631
12.6075	1005.34	31.6826
12.6082	996.81	31.7021
12.6102	996.75	31.72168
12.6112	1000.79	31.7412
12.6127	1001.4	31.7607
12.6153	994.645	31.7803
12.6163	1003.37	31.7998
12.6193	1002.51	31.8193
12.6207	995.474	31.8389
12.6223	1000.21	31.8584
12.6232	1002.61	31.87793
12.6253	992.026	31.8975
12.6261	998.893	31.917
12.6281	1006.55	31.9365
12.6308	994.067	31.9561
12.6314	995.8493	31.9756
12.6326	1003.24	31.9951
12.6353	996.682	32.0146
12.6355	996.1767	32.03418
[...]
13.301	1000.26	40.00293
13.30144	992.58	40.0127

Data Header:			0.254_solid_dimension_typei_090_r0			Time:	47.9712	s	4/15/2019 2:21:59 PM
Data Acquisition:	Timed
Station Name:	ft40.cfg
Test File Name:	monotonic_0.2540_typei_solid_090_dimension.tst
Displacement	Force	Running Time
mm	N	s
13.3018	987.182	40.0225
13.3037	990.021	40.0322
13.3026	997.253	40.042
13.3052	1001.51	40.0518
13.30518	997.489	40.0615
13.3063	994.123	40.0713
13.3072	990.796	40.0811
13.3076	990.082	40.09082
13.3083	996.192	40.1006
13.3099	995.91	40.1104
13.3109	1000.46	40.1201
13.3116	996.492	40.1299
13.3119	990.4494	40.1396
13.3133	991.196	40.1494
13.3138	993.048	40.15918
13.3141	999.172	40.1689
13.3154	1000.21	40.1787
13.3159	995.348	40.1885
13.3167	995.21	40.1982
13.31823	992.102	40.208
13.3185	992.7663	40.2178
13.3187	994.168	40.2275
13.3201	998.513	40.2373
13.3208	1002.24	40.24707
13.3209	995.1662	40.2568
13.3225	992.872	40.2666
13.3239	989.807	40.2764
13.3243	993.978	40.2861
13.32452	998.1438	40.2959
13.3256	998.144	40.3057
13.32654	997.0332	40.31543
13.3268	995.047	40.3252
13.3286	990.677	40.335
13.3294	990.161	40.3447
13.3292	994.161	40.3545
13.3305	1000.01	40.3643
13.3313	999.401	40.374
13.3324	994.083	40.3838
13.3337	989.7486	40.3936
13.3343	990.973	40.40332
13.3346	992.11	40.4131
13.3349	996.169	40.4229
13.3367	998.891	40.4326
13.33838	997.599	40.4424
13.3375	994.117	40.4521
13.339	987.549	40.4619
13.3393	989.366	40.47168
13.34128	997.07	40.4814
13.3404	1000.38	40.4912
13.3419	999.919	40.501
13.3432	992.223	40.5107
13.3432	989.427	40.5205
13.3453	990.185	40.5303
13.3457	992.75	40.54
13.3466	1000.11	40.5498
13.3473	999.784	40.55957
13.3486	996.534	40.5693
13.348	992.397	40.5791
13.3497	985.551	40.5889
13.3503	992.88	40.5986
13.34976	999.335	40.6084
13.3517	1000.898	40.6182
13.3522	997.025	40.62793
13.3545	990.745	40.6377
13.3548	990.537	40.6475
13.3555	990.929	40.6572
13.3562	995.5351	40.667
13.35668	998.471	40.6768
13.3567	999.769	40.6865
13.3581	993.483	40.6963
13.3589	988.12	40.7061
13.3593	990.292	40.71582
13.3601	994.421	40.7256
13.36202	999.454	40.7354
13.3623	997.955	40.7451
13.3632	993.586	40.7549
13.3628	990.864	40.7646
13.3642	990.635	40.7744
13.3659	993.666	40.78418
13.3667	996.1283	40.7939
13.36622	1000.99	40.8037
13.36863	998.557	40.8135
13.3693	992.576	40.8232
13.3706	991.965	40.833
13.3708	990.111	40.8428
13.3716	997.458	40.8525
13.3723	996.766	40.8623
13.37291	995.934	40.87207
13.374	995.6853	40.8818
13.3755	991.097	40.8916
13.3761	992.138	40.9014
13.3768	991.785	40.9111
13.3764	994.492	40.9209
13.3779	1001.02	40.9307
13.3789	995.634	40.94043
13.378	993.5871	40.9502
13.3806	988.897	40.96
13.3814	991.2511	40.9697
13.3818	996.278	40.9795
13.3827	996.366	40.9893
13.3838	999.579	40.999
13.3843	997.599	41.0088
13.38463	991.035	41.0186
13.3862	989.857	41.02832
13.38681	992.115	41.0381
13.3876	997.336	41.0479
13.3884	1001.57	41.0576
13.3889	997.609	41.0674
13.3896	990.814	41.0771
13.3911	989.173	41.0869
13.3931	992.974	41.09668
13.3931	994.197	41.1064
13.3931	999.044	41.1162
13.3933	997.991	41.126
13.3955	995.4657	41.1357
13.3957	989.031	41.1455
13.3968	987.335	41.1553
13.3981	993.525	41.165
13.3983	999.13	41.1748
13.3992	1000.99	41.18457
13.4009	994.666	41.1943
13.4013	989.315	41.2041
13.4006	989.6496	41.2139
13.4022	990.469	41.2236
13.4023	998.37	41.2334
13.4043	998.013	41.2432
13.4056	998.064	41.25293
13.4065	994.066	41.2627
13.4062	983.87	41.2725
13.4073	990.372	41.2822
13.4084	994.8739	41.292
13.4087	1000.47	41.3018
13.41001	998.575	41.3115
13.4107	990.686	41.3213
13.4113	990.56	41.3311
13.4121	991.676	41.34082
13.4129	992.007	41.3506
13.4137	997.067	41.3604
13.41504	997.151	41.3701
13.41548	996.731	41.3799
13.41726	989.015	41.3896
13.4165	987.819	41.3994
13.4176	992.982	41.40918
13.4194	997.269	41.4189
13.4191	998.916	41.4287
13.4204	995.666	41.4385
13.42116	993.031	41.4482
13.4214	991.374	41.458
13.42218	990.016	41.4678
13.424	992.226	41.4775
13.4247	996.866	41.4873
13.4248	998.535	41.49707
13.4259	994.199	41.5068
13.42702	991.62	41.5166
13.4271	987.91	41.5264
13.4285	993.931	41.5361
13.4298	996.935	41.5459
13.4293	997.15	41.5557
13.43106	998.051	41.56543
13.4316	992.6	41.5752
13.432	992.802	41.585
13.4323	989.75	41.5947
13.4347	991.07	41.6045
13.4339	998.46	41.6143
13.4352	998.9176	41.624
13.4375	994.806	41.6338
13.4375	987.795	41.6436
13.4379	989.153	41.65332
13.4382	994.272	41.6631
13.4396	995.064	41.6729
13.4418	999.887	41.6826
13.4419	995.906	41.6924
13.4423	993.1145	41.7021
13.44353	989.245	41.7119
13.4442	988.513	41.72168
13.4447	993.867	41.7314
13.4455	1000.88	41.7412
13.4465	997.656	41.751
13.4474	994.522	41.7607
13.4475	987.918	41.7705
13.4503	990.256	41.7803
13.4501	994.4071	41.79
13.4509	999.942	41.7998
13.4511	999.032	41.80957
13.4523	997.998	41.8193
13.4536	990.226	41.8291
13.4533	988.224	41.8389
13.4544	990.306	41.8486
13.4563	999.415	41.8584
13.4562	1001.15	41.8682
13.45726	995.7	41.87793
13.4574	990.078	41.8877
13.4585	989.533	41.8975
13.4604	990.538	41.9072
13.4597	996.74	41.917
13.4618	996.371	41.9268
13.4622	997.9	41.9365
13.46211	995.02	41.9463
13.4634	987.126	41.9561
13.4637	992.172	41.96582
13.4652	992.882	41.9756
13.4657	998.253	41.9854
13.4668	1000.28	41.9951
13.4672	991.726	42.0049
13.4681	990.521	42.0146
13.4691	989.969	42.0244
13.4704	990.705	42.03418
13.4709	995.77	42.0439
13.4724	996.89	42.0537
13.4728	998.144	42.0635
13.4726	991.775	42.0732
13.4739	988.988	42.083
13.4739	991.432	42.0928
13.47613	994.087	42.1025
13.47704	998.578	42.1123
13.4777	997.287	42.12207
13.4779	993.613	42.1318
13.4789	993.437	42.1416
13.4793	990.511	42.1514
13.4812	990.342	42.1611
13.4822	994.334	42.1709
13.4823	997.62	42.1807
13.4825	997.962	42.19043
13.483	992.3302	42.2002
13.4844	987.092	42.21
13.4853	991.824	42.2197
13.4864	995.196	42.2295
13.4867	995.41	42.2393
13.4889	999.179	42.249
13.4884	994.925	42.2588
13.4897	991.826	42.2686
13.4894	989.291	42.27832
13.4911	990.986	42.2881
13.4915	997.739	42.2979
13.49289	1000.39	42.3076
13.49396	998.142	42.3174
13.4946	989.943	42.3271
13.4954	987.855	42.3369
13.496	992.289	42.34668
13.4968	993.264	42.3564
13.4969	1000.5	42.3662
13.4982	997.362	42.376
13.49806	992.176	42.3857
13.5002	990.903	42.3955
13.5007	986.438	42.4053
13.50064	993.494	42.415
13.5018	1000.67	42.4248
13.5043	999.779	42.43457
13.5037	994.49	42.4443
13.5048	987.965	42.4541
13.50613	989.084	42.4639
13.506	994.378	42.4736
13.5073	996.323	42.4834
13.5089	999.6297	42.4932
13.5094	996.8725	42.50293
13.5098	992.176	42.5127
13.5096	987.649	42.5225
13.5119	990.27	42.5322
13.511	994.99	42.542
13.5123	1000.63	42.5518
13.5137	997.0448	42.5615
13.514	992.095	42.5713
13.5152	988.32	42.5811
13.516	990.66	42.59082
13.5159	995.028	42.6006
13.517	995.482	42.6104
13.519	997.841	42.6201
13.5196	996.871	42.6299
13.5213	987.856	42.6396
13.5213	990.527	42.6494
13.522	989.809	42.65918
13.5239	996.954	42.6689
13.5225	997.998	42.6787
13.5246	995.297	42.6885
13.52499	992.576	42.6982
13.526	990.265	42.708
13.5276	990.816	42.7178
13.5281	993.862	42.7275
13.5289	994.914	42.7373
13.5301	1001.15	42.74707
13.5295	994.335	42.7568
13.5311	990.542	42.7666
13.5318	989.989	42.7764
13.5327	992.057	42.7861
13.5327	997.351	42.7959
13.5345	996.165	42.8057
13.5351	996.693	42.81543
13.5352	993.997	42.8252
13.5355	989.148	42.835
13.53736	989.5611	42.8447
13.538	991.284	42.8545
13.5386	997.837	42.8643
13.5389	999.454	42.874
13.5409	995.066	42.8838
13.5407	987.973	42.8936
13.5426	987.309	42.90332
13.5434	994.267	42.9131
13.5434	996.394	42.9229
13.5448	1000.05	42.9326
13.5459	994.5705	42.9424
13.5462	992.887	42.9521
13.54752	988.878	42.9619
13.54825	988.183	42.97168
13.5498	995.993	42.9814
13.5504	1000.8	42.9912
13.5509	999.586	43.001
13.5517	992.236	43.0107
13.5532	987.05	43.0205
13.5523	990.893	43.0303
13.5538	991.66	43.04
13.5547	998.963	43.0498
13.556	997.44	43.05957
13.556	994.269	43.0693
13.5569	991.513	43.0791
13.5578	984.615	43.0889
13.5582	990.943	43.0986
13.5587	997.1673	43.1084
13.5595	999.252	43.1182
13.5602	996.073	43.12793
13.5612	989.218	43.1377
13.5623	987.537	43.1475
13.5637	991.828	43.1572
13.5635	994.268	43.167
13.5649	997.408	43.1768
13.5667	997.811	43.1865
13.5668	994.554	43.1963
13.56828	987.522	43.2061
13.568	988.069	43.21582
13.5695	993.196	43.2256
13.5702	998.639	43.2354
13.5705	998.3125	43.2451
13.57161	993.287	43.2549
13.5731	989.509	43.2646
13.5739	988.063	43.2744
13.5743	993.054	43.28418
13.5742	992.5141	43.2939
13.5751	997.793	43.3037
13.5758	995.919	43.3135
13.5767	991.978	43.3232
13.5785	989.878	43.333
13.5792	988.531	43.3428
13.5798	994.489	43.3525
13.5798	996.684	43.3623
13.5816	996.449	43.37207
13.5826	994.412	43.3818
13.5825	988.751	43.3916
13.5851	991.051	43.4014
13.5843	990.615	43.4111
13.5856	990.869	43.4209
13.586	998.449	43.4307
13.5881	997.256	43.44043
13.588	990.6311	43.4502
13.5883	986.808	43.46
13.5895	988.115	43.4697
13.5902	994.763	43.4795
13.5918	994.728	43.4893
13.5916	997.007	43.499
13.5931	993.067	43.5088
13.5933	988.63	43.5186
13.5958	988.544	43.52832
13.5949	988.921	43.5381
13.5962	994.51	43.5479
13.5965	1000.153	43.5576
13.5972	994.824	43.5674
13.5987	990.115	43.5771
13.5998	986.5069	43.5869
13.6007	988.517	43.59668
13.6019	993.431	43.6064
13.6025	998.113	43.6162
13.6032	995.836	43.626
13.6034	993.656	43.6357
13.6053	987.239	43.6455
13.6049	984.576	43.6553
13.6054	992.719	43.665
13.6067	997.177	43.6748
13.6076	999.367	43.68457
13.6075	994.477	43.6943
13.6094	988.008	43.7041
13.6097	988.959	43.7139
13.6113	989.59	43.7236
13.6121	996.888	43.7334
13.6126	996.324	43.7432
13.6137	994.9718	43.75293
13.6135	993.048	43.7627
13.6141	984.419	43.7725
13.61549	989.815	43.7822
13.6164	993.975	43.792
13.6172	997.799	43.8018
13.6182	996.484	43.8115
13.6192	989.302	43.8213
13.6191	988.114	43.8311
13.6201	989.103	43.84082
13.6223	991.395	43.8506
13.621	995.895	43.8604
13.6231	996.483	43.8701
13.6241	995.433	43.8799
13.6247	990.078	43.8896
13.6249	986.591	43.8994
13.6265	990.444	43.90918
13.6274	995.563	43.9189
13.628	997.893	43.9287
13.6278	992.246	43.9385
13.6299	991.335	43.9482
13.6307	989.663	43.958
13.6314	988.889	43.9678
13.631	991.235	43.9775
13.6323	993.652	43.9873
13.6328	997.6673	43.99707
13.6345	995.539	44.0068
13.6354	989.768	44.0166
13.6362	985.858	44.0264
13.6374	989.401	44.0361
13.6376	995.217	44.0459
13.6377	994.849	44.0557
13.6395	994.736	44.06543
13.6406	991.4527	44.0752
13.63982	988.103	44.085
13.641	987.474	44.0947
13.6426	989.258	44.1045
13.6425	997.103	44.1143
13.6451	998.169	44.124
13.6447	992.762	44.1338
13.6465	987.631	44.1436
13.6469	986.407	44.15332
13.6472	991.366	44.1631
13.6489	993.404	44.1729
13.6489	997.88	44.1826
13.6498	995.451	44.1924
13.6508	990.871	44.2021
13.6507	987.746	44.2119
13.6533	985.857	44.22168
13.6535	993.191	44.2314
13.6538	998.376	44.2412
13.65444	995.466	44.251
13.6556	991.429	44.2607
13.6565	985.268	44.2705
13.6574	987.969	44.2803
13.6577	991.258	44.29
13.6589	995.3324	44.2998
13.6595	995.897	44.30957
13.6613	992.7511	44.3193
13.6621	987.3822	44.3291
13.6616	986.0188	44.3389
13.6628	988.663	44.3486
13.66334	995.748	44.3584
13.665	999.199	44.3682
13.666	994.42	44.37793
13.6669	986.902	44.3877
13.6663	986.927	44.3975
13.6679	989.148	44.4072
13.6682	994.326	44.417
13.6693	994.145	44.4268
13.6698	996.18	44.4365
13.6714	993.1283	44.4463
13.6725	985.661	44.4561
13.673	988.8266	44.46582
13.6734	989.898	44.4756
13.6738	995.5799	44.4854
13.6762	995.445	44.4951
13.6761	989.0658	44.5049
13.6767	987.842	44.5146
13.6778	987.615	44.5244
13.6785	988.477	44.53418
13.6799	992.802	44.5439
13.6805	992.649	44.5537
13.6807	995.922	44.5635
13.6825	990.13	44.5732
13.6828	986.673	44.583
13.6832	986.516	44.5928
13.6839	990.893	44.6025
13.6846	996.182	44.6123
13.6846	994.466	44.62207
13.6863	992.525	44.6318
13.68697	988.983	44.6416
13.6878	987.722	44.6514
13.6889	986.677	44.6611
13.69026	991.625	44.6709
13.6916	994.805	44.6807
13.6914	995.6626	44.69043
13.6914	991.185	44.7002
13.6934	985.815	44.71
13.6941	986.375	44.7197
13.6947	992.314	44.7295
13.69617	994.053	44.7393
13.6957	995.341	44.749
13.6967	990.665	44.7588
13.6973	988.477	44.7686
13.6985	986.079	44.77832
13.6991	987.614	44.7881
13.6995	994.581	44.7979
13.7017	996.248	44.8076
13.7019	994.652	44.8174
13.702	987.651	44.8271
13.7036	982.242	44.8369
13.7039	989.991	44.84668
13.7048	992.141	44.8564
13.7059	995.57	44.8662
13.7064	992.991	44.876
13.7078	989.099	44.8857
13.7083	987.864	44.8955
13.7087	983.502	44.9053
13.71069	989.416	44.915
13.711	995.514	44.9248
13.7112	996.209	44.93457
13.7133	991.052	44.9443
13.7133	982.454	44.9541
13.7138	985.058	44.9639
13.7146	991.445	44.9736
13.7162	992.83	44.9834
13.7165	993.692	44.9932
13.7167	993.666	45.00293
13.7184	989.83	45.0127
13.7194	985.596	45.0225
13.7195	988.259	45.0322
13.72	991.28	45.042
13.7218	996.098	45.0518
13.7225	995.113	45.0615
13.7233	987.593	45.0713
13.7237	984.867	45.0811
13.7245	988.059	45.09082
13.726	989.207	45.1006
13.7258	992.338	45.1104
13.7279	993.028	45.1201
13.72787	991.956	45.1299
13.7287	986.3	45.1396
13.7299	985.515	45.1494
13.7305	984.844	45.15918
13.7313	992.396	45.1689
13.7327	994.969	45.1787
13.7321	989.979	45.1885
13.7345	990.1618	45.1982
13.7338	984.6532	45.208
13.736	985.919	45.2178
13.7365	989.44	45.2275
13.7363	989.4198	45.2373
13.7371	995.212	45.24707
13.7387	991.227	45.2568
13.7388	985.89	45.2666
13.7399	984.06	45.2764
13.7411	985.83	45.2861
13.74186	993.294	45.2959
13.74305	992.18	45.3057
13.743	992.1	45.31543
13.7439	987.894	45.3252
13.7453	985.633	45.335
13.74668	986.826	45.3447
13.7469	987.247	45.3545
13.7471	991.72	45.3643
13.748	995.724	45.374
13.74915	988.867	45.3838
13.7498	983.103	45.3936
13.7508	982.925	45.40332
13.7509	987.7666	45.4131
13.7526	992.684	45.4229
13.7536	994.078	45.4326
13.7534	991.0318	45.4424
13.7544	987.1701	45.4521
13.7557	983.021	45.4619
13.7564	982.925	45.47168
13.7578	991.024	45.4814
13.75824	993.078	45.4912
13.7596	994.352	45.501
13.7597	987.183	45.5107
13.75961	981.07	45.5205
13.7609	986.272	45.5303
13.76295	987.616	45.54
13.7627	992.307	45.5498
13.7641	991.902	45.55957
13.7638	986.9245	45.5693
13.76585	987.9	45.5791
13.7662	980.912	45.5889
13.767	986.035	45.5986
13.768	990.838	45.6084
13.7683	993.036	45.6182
13.7697	992.2652	45.62793
13.7691	982.547	45.6377
13.7717	982.011	45.6475
13.772	987.165	45.6572
13.7722	988.325	45.667
13.7734	991.245	45.6768
13.7743	991.245	45.6865
13.7758	988.207	45.6963
13.7757	983.7608	45.7061
13.7783	982.565	45.71582
13.7769	985.761	45.7256
13.7784	991.407	45.7354
13.7798	992.548	45.7451
13.7797	987.744	45.7549
13.7806	983.62	45.7646
13.7821	984.5462	45.7744
13.7825	986.382	45.78418
13.7837	988.577	45.7939
13.7838	990.522	45.8037
13.7852	989.893	45.8135
13.7861	988.105	45.8232
13.7866	984.714	45.833
13.78721	980.8689	45.8428
13.7876	987.438	45.8525
13.7884	992.411	45.8623
13.7906	990.197	45.87207
13.7904	988.478	45.8818
13.79213	984.055	45.8916
13.79325	984.242	45.9014
13.7938	984.849	45.9111
13.7939	985.817	45.9209
13.7947	991.081	45.9307
13.7956	991.9093	45.94043
13.7962	984.543	45.9502
13.7981	980.634	45.96
13.7977	980.3067	45.9697
13.799	986.6225	45.9795
13.8005	989.612	45.9893
13.80071	990.298	45.999
13.8012	987.901	46.0088
13.8017	982.976	46.0186
13.80276	982.886	46.02832
13.8033	981.004	46.0381
13.8049	988.501	46.0479
13.8058	993.191	46.0576
13.8063	989.91	46.0674
13.8064	983.425	46.0771
13.80774	979.609	46.0869
13.8086	981.591	46.09668
13.8086	988.255	46.1064
13.8102	991.3	46.1162
13.8111	988.343	46.126
13.8118	984.646	46.1357
13.8115	979.744	46.1455
13.8131	980.595	46.1553
13.8147	985.564	46.165
13.8159	989.58	46.1748
13.8159	992.62	46.18457
13.8159	985.77	46.1943
13.8186	978.748	46.2041
13.8173	980.485	46.2139
13.8184	983.209	46.2236
13.8213	990.4856	46.2334
13.8212	987.901	46.2432
13.821	986.678	46.25293
13.8227	984.148	46.2627
13.82251	979.481	46.2725
13.8245	981.9679	46.2822
13.8252	986.093	46.292
13.82575	987.992	46.3018
13.8266	990.423	46.3115
13.8267	980.711	46.3213
13.828	979.451	46.3311
13.8296	982.415	46.34082
13.8292	984.3327	46.3506
13.83114	986.363	46.3604
13.8315	985.698	46.3701
13.8327	984.3114	46.3799
13.83273	981.534	46.3896
13.8325	979.099	46.3994
13.8354	980.883	46.40918
13.8348	984.4411	46.4189
13.8361	987.74	46.4287
13.8363	984.685	46.4385
13.8372	981.485	46.4482
13.8389	977.277	46.458
13.8394	980.057	46.4678
13.84	980.802	46.4775
13.8409	985.174	46.4873
13.8414	986.472	46.49707
13.8428	983.952	46.5068
13.8439	978.992	46.5166
13.8452	973.176	46.5264
13.8463	978.943	46.5361
13.8449	983.072	46.5459
13.8467	984.081	46.5557
13.8477	983.7464	46.56543
13.8482	977.088	46.5752
13.8493	975.874	46.585
13.8514	974.407	46.5947
13.8504	976.0498	46.6045
13.8513	981.638	46.6143
13.8523	982.882	46.624
13.85363	980.093	46.6338
13.8542	971.888	46.6436
13.8555	967.639	46.65332
13.8553	973.829	46.6631
13.8558	975.144	46.6729
13.8612	-107.678	46.6826
13.8651	6.50686	46.6924
13.8644	-48.0738	46.7021
13.86524	-50.6332	46.7119
13.8643	-54.0927	46.72168
13.8647	-33.4176	46.7314
13.8647	-39.1522	46.7412
13.8646	-34.94326	46.751
13.8657	-46.86245	46.7607
13.8667	-48.4223	46.7705
13.8663	-48.4801	46.7803
13.8681	-41.189	46.79
13.8687	-37.1791	46.7998
13.8688	-38.4136	46.80957
13.8698	-41.5417	46.8193
13.8708	-45.6389	46.8291
13.8705	-48.953	46.8389
13.873	-44.1255	46.8486
13.8739	-40.1233	46.8584
13.8742	-34.9826	46.8682
13.8746	-40.0104	46.87793
13.8754	-47.1342	46.8877
13.8759	-48.0589	46.8975
13.8763	-45.3073	46.9072
13.8782	-39.5926	46.917
13.8781	-38.5475	46.9268
13.8783	-40.617	46.9365
13.8799	-41.632	46.9463
13.881	-48.4178	46.9561
13.8814	-46.8094	46.96582
13.8829	-44.0613	46.9756
13.88388	-39.2166	46.9854
13.8843	-36.0924	46.9951
13.8855	-43.7841	47.0049
13.8858	-47.2529	47.0146
13.8862	-46.31469	47.0244
13.8875	-45.4559	47.03418
13.8881	-40.1204	47.0439
13.8896	-40.1787	47.0537
13.8903	-39.3859	47.0635
13.8901	-42.053	47.0732
13.8908	-49.6351	47.083
13.8925	-48.59026	47.0928
13.8928	-44.0195	47.1025
13.8938	-36.7975	47.1123
13.8938	-36.6605	47.12207
13.896	-40.3241	47.1318
13.8964	-46.3986	47.1416
13.8981	-47.4932	47.1514
13.8976	-44.71748	47.1611
13.8992	-42.7064	47.1709
13.899	-38.46896	47.1807
13.8994	-37.4184	47.19043
13.9006	-42.3792	47.2002
13.9028	-50.1195	47.21
13.903	-47.379	47.2197
13.9037	-42.3441	47.2295
13.9041	-36.9136	47.2393
13.9045	-37.1438	47.249
13.9058	-44.62141	47.2588
13.90714	-46.7832	47.2686
13.9087	-48.0427	47.27832
13.9092	-45.5065	47.2881
13.9086	-39.402	47.2979
13.9088	-35.5836	47.3076
13.9109	-38.4592	47.3174
13.9126	-45.4797	47.3271
13.9116	-51.0544	47.3369
13.9139	-44.9605	47.34668
13.9138	-39.9843	47.3564
13.9144	-36.2797	47.3662
13.9158	-38.1049	47.376
13.9159	-46.4582	47.3857
13.9177	-46.8373	47.3955
13.91761	-48.1427	47.4053
13.9189	-42.9248	47.415
13.9199	-36.4571	47.4248
13.9215	-36.7875	47.43457
13.9211	-40.6582	47.4443
13.92205	-50.1147	47.4541
13.9231	-48.3029	47.4639
13.92439	-41.1586	47.4736
13.9247	-38.7398	47.4834
13.9255	-36.6146	47.4932
13.9258	-41.5807	47.50293
13.9268	-44.4555	47.5127
13.9269	-47.3532	47.5225
13.9292	-45.9185	47.5322
13.9288	-41.3108	47.542
13.9301	-36.0146	47.5518
13.9296	-39.0276	47.5615
13.9311	-44.70359	47.5713
13.9324	-47.84956	47.5811
13.9331	-47.004	47.59082
13.9345	-41.3819	47.6006
13.934	-39.4687	47.6104
13.93527	-38.6242	47.6201
13.9372	-40.7707	47.6299
13.9376	-45.0456	47.6396
13.9381	-45.9866	47.6494
13.9395	-48.0667	47.65918
13.9405	-41.9462	47.6689
13.9421	-36.4838	47.6787
13.9413	-41.4697	47.6885
13.9438	-41.7165	47.6982
13.9426	-47.6241	47.708
13.9433	-44.9565	47.7178
13.944	-42.8862	47.7275
13.9451	-42.5159	47.7373
13.9458	-37.2875	47.74707
13.9473	-38.966	47.7568
13.9487	-45.7554	47.7666
13.9485	-47.03735	47.7764
13.9497	-46.5972	47.7861
13.9511	-40.244	47.7959
13.9504	-37.6399	47.8057
13.9523	-39.1992	47.81543
13.9541	-44.5053	47.8252
13.9534	-47.5978	47.835
13.9551	-46.6755	47.8447
13.9541	-43.1925	47.8545
13.9568	-37.6239	47.8643
13.9571	-35.651	47.874
13.9566	-40.0184	47.8838
13.9579	-47.20607	47.8936
13.9601	-50.5397	47.90332
13.96019	-45.5713	47.9131
13.9618	-38.2828	47.9229
13.9614	-36.5322	47.9326
13.963	-42.979	47.9424
13.9646	-45.9112	47.9521
13.9639	-47.0085	47.9619