File: data/processed_data_files/tensile/0.254_solid_dimension_typei_4545_r(1).dat
MTS793|BTW|ENU|1|2|.|/|:|1|0|0|A

Data Header:			0.254_solid_dimension_typei_4545_r0			Time:	20.0178	s	4/14/2019 4:41:54 AM
Data Acquisition:	Timed
Station Name:	ft40.cfg
Test File Name:	monotonic_0.2540_typei_solid_4545_dimension.tst
Displacement	Force	Running Time
mm	N	s
9.95651	-124.427	0.0229492
9.95739	-134.461	0.0424805
9.95816	-138.772	0.0620117
9.95878	-127.586	0.081543
9.95827	-128.209	0.101074
9.96034	-138.155	0.120605
9.96277	-130.2253	0.140137
9.96373	-122.917	0.159668
9.96522	-132.028	0.179199
9.96695	-134.052	0.19873
9.96843	-118.396	0.218262
9.97018	-128.543	0.237793
9.97239	-130.7001	0.257324
9.97334	-118.588	0.276855
9.97428	-122.5182	0.296387
9.9758	-131.209	0.315918
9.97854	-115.087	0.335449
9.97881	-118.314	0.35498
9.98091	-127.901	0.374512
9.98354	-115.572	0.394043
9.98435	-111.099	0.413574
9.98622	-128.955	0.433105
9.98867	-114.851	0.452637
9.98958	-109.476	0.472168
9.99095	-119.114	0.491699
9.99304	-114.679	0.51123
9.994545	-105.453	0.530762
9.996603	-116.642	0.550293
9.99777	-113.473	0.569824
9.99906	-100.92	0.589355
10.0011	-109.39	0.608887
10.0022	-114.6991	0.628418
10.0043	-102.854	0.647949
10.0057	-102.883	0.66748
10.0074	-112.164	0.687012
10.0095	-100.871	0.706543
10.0113	-97.8971	0.726074
10.0123	-106.658	0.745605
10.0131	-102.587	0.765137
10.0151	-91.0082	0.784668
10.0172	-104.793	0.804199
10.0187	-97.8096	0.82373
10.0208	-87.9602	0.843262
10.0217	-97.5588	0.862793
10.0219	-104.727	0.882324
10.0253	-84.7581	0.901855
10.027	-92.6471	0.921387
10.0278	-95.9327	0.940918
10.0289	-85.9019	0.960449
10.0311	-86.0145	0.97998
10.033	-98.077	0.999512
10.0361	-83.6811	1.019043
10.03616	-82.5073	1.03857
10.037	-94.1177	1.05811
10.0403	-84.546	1.07764
10.0412	-75.9343	1.097168
10.0432	-89.78064	1.1167
10.045	-84.7524	1.13623
10.0464	-74.2139	1.15576
10.048	-82.5541	1.175293
10.0493	-83.88974	1.19482
10.0509	-72.8531	1.21436
10.0534	-76.50679	1.23389
10.0538	-83.2142	1.253418
10.0564	-69.3022	1.27295
10.0572	-70.4644	1.29248
10.0595	-79.62236	1.31201
10.0611	-70.4317	1.331543
10.0619	-63.4687	1.35107
10.06461	-78.33316	1.37061
10.0666	-69.3212	1.39014
10.0681	-60.177	1.409668
10.06891	-71.4067	1.4292
10.0706	-70.65519	1.44873
10.0725	-54.7054	1.46826
10.0732	-67.4003	1.487793
10.075	-67.1423	1.50732
10.078	-52.8041	1.52686
10.0789	-58.9844	1.54639
10.0808	-69.0149	1.565918
10.0816	-51.0381	1.58545
10.08441	-53.1564	1.60498
10.0848	-64.58667	1.62451
10.08767	-51.3442	1.644043
10.0882	-46.9081	1.66357
10.0901	-61.8322	1.68311
10.0922	-51.4265	1.70264
10.0925	-43.83218	1.722168
10.0948	-55.4764	1.7417
10.0965	-49.1526	1.76123
10.0988	-40.0132	1.78076
10.09979	-50.233	1.800293
10.1017	-51.2502	1.81982
10.1036	-37.0758	1.83936
10.1037	-41.6026	1.85889
10.1078	-47.9729	1.878418
10.1089	-37.8766	1.89795
10.1094	-35.2439	1.91748
10.1116	-46.6959	1.93701
10.1126	-35.4606	1.956543
10.1147	-31.7357	1.97607
10.116	-41.9737	1.99561
10.1171	-37.7336	2.01514
10.1195	-25.0279	2.034668
10.1213	-40.2441	2.0542
10.1227	-34.5521	2.07373
10.1248	-23.7986	2.09326
10.1266	-30.792	2.112793
10.1288	-37.0034	2.13232
10.1288	-18.1283	2.15186
10.1306	-27.9826	2.17139
10.1325	-31.3378	2.190918
10.1347	-18.124	2.21045
10.1357	-19.7204	2.22998
10.1367	-33.6356	2.24951
10.1385	-15.11039	2.269043
10.1406	-13.63798	2.28857
10.143	-26.6507	2.30811
10.1447	-17.5269	2.32764
10.1459	-11.2568	2.347168
10.1477	-21.672	2.3667
10.1491	-18.1615	2.38623
10.1508	-7.58816	2.40576
10.15218	-17.4751	2.425293
10.1533	-14.851	2.44482
10.155	-5.33111	2.46436
10.1565	-9.92077	2.48389
10.1582	-18.82534	2.503418
10.1605	-1.99128	2.52295
10.1618	-1.85469	2.54248
10.1637	-11.7822	2.56201
10.165	-5.51115	2.581543
10.1657	2.23828	2.60107
10.1679	-9.222991	2.62061
10.1704	0.914536	2.64014
10.1723	8.08307	2.659668
10.1735	-3.876364	2.6792
10.1759	-4.02839	2.69873
10.1756	13.5662	2.71826
10.1788	0.188523	2.737793
10.1796	-0.697296	2.75732
10.1809	14.9557	2.77686
10.183	9.35322	2.79639
10.184	-0.0227975	2.815918
10.187	15.4581	2.83545
10.1882	14.49287	2.85498
10.1895	3.60966	2.87451
10.191	18.5115	2.894043
10.1931	20.8808	2.91357
10.1943	6.23288	2.93311
10.1958	17.4957	2.95264
10.1976	26.8525	2.972168
10.1984	11.9616	2.9917
10.2004	19.139	3.01123
10.2032	27.8342	3.03076
10.2049	21.07733	3.050293
10.2054	16.2408	3.06982
10.2073	30.0343	3.08936
10.2099	26.1281	3.10889
10.21043	21.5809	3.128418
10.2113	32.8216	3.14795
10.2132	34.2644	3.16748
10.2164	20.3115	3.18701
10.2162	34.7177	3.206543
10.2185	39.8756	3.22607
10.2206	27.1205	3.24561
10.222	30.0184	3.26514
10.2221	43.7077	3.284668
10.2245	32.2916	3.3042
10.2271	33.4112	3.32373
10.229	48.322	3.34326
10.2303	37.5294	3.362793
10.2316	32.9876	3.38232
10.233	50.7553	3.40186
10.2354	44.7906	3.42139
10.2371	35.5586	3.440918
10.2383	53.2176	3.46045
10.24	50.7672	3.47998
10.2408	39.6809	3.49951
10.2427	50.44989	3.519043
10.2453	55.38356	3.53857
10.2469	45.2005	3.55811
10.2478	55.5381	3.57764
10.2512	58.7144	3.597168
10.25167	50.3673	3.6167
10.2534	50.8731	3.63623
10.2549	66.2041	3.65576
10.2562	55.0891	3.675293
10.2572	54.1611	3.69482
10.2593	64.4543	3.71436
10.2608	63.3381	3.73389
10.2628	53.5588	3.753418
10.2647	68.71698	3.77295
10.2655	68.0203	3.79248
10.268	59.0644	3.81201
10.2685	67.6382	3.831543
10.2711	74.6706	3.85107
10.2731	61.8252	3.87061
10.2729	71.5871	3.89014
10.2757	81.2317	3.909668
10.2773	67.6897	3.9292
10.279	66.9802	3.94873
10.28046	83.5425	3.96826
10.2828	73.0373	3.987793
10.28418	70.9952	4.00732
10.2846	84.9886	4.02686
10.287	78.8883	4.04639
10.2882	72.46167	4.065918
10.29084	89.7869	4.08545
10.2919	87.2426	4.10498
10.2934	74.8522	4.12451
10.2952	88.72525	4.144043
10.2969	91.1832	4.16357
10.2987	81.8121	4.18311
10.30016	86.0117	4.20264
10.3024	97.4647	4.222168
10.3034	85.2882	4.2417
10.3049	90.8026	4.26123
10.30613	98.41777	4.28076
10.3071	94.115	4.300293
10.3101	88.9047	4.31982
10.3106	106.418	4.33936
10.3125	99.17	4.35889
10.3144	90.9176	4.378418
10.3153	102.093	4.39795
10.3176	107.356	4.41748
10.3197	92.1122	4.43701
10.3218	104.1903	4.456543
10.3222	110.715	4.47607
10.3241	99.3871	4.49561
10.3263	103.519	4.51514
10.3273	116.523	4.534668
10.3294	103.034	4.5542
10.3305	107.164	4.57373
10.3331	121.062	4.59326
10.3342	108.086	4.612793
10.3356	104.018	4.63232
10.33671	121.859	4.65186
10.3398	117.969	4.67139
10.3404	107.895	4.690918
10.3416	125.409	4.71045
10.3441	121.81	4.72998
10.3457	111.76	4.74951
10.3471	124.072	4.769043
10.3501	128.742	4.78857
10.35048	115.41	4.80811
10.3516	125.816	4.82764
10.3539	130.572	4.847168
10.3558	122.92	4.8667
10.3559	121.585	4.88623
10.3581	136.493	4.90576
10.3593	129.387	4.925293
10.3619	126.9938	4.94482
10.3626	135.163	4.96436
10.3655	135.117	4.98389
10.3662	125.479	5.003418
10.3677	141.203	5.02295
10.3702	140.2037	5.04248
10.3717	129.3165	5.06201
10.3735	138.757	5.081543
10.3749	148.733	5.10107
10.3769	133.316	5.12061
10.3791	138.5768	5.14014
10.3793	151.308	5.159668
10.3823	138.823	5.1792
10.3831	139.773	5.19873
10.3843	154.9144	5.21826
10.3863	145.7	5.237793
10.38848	140.692	5.25732
10.3897	160.754	5.27686
10.3909	150.477	5.29639
10.3928	142.7	5.315918
10.394	160.939	5.33545
10.3961	161.333	5.35498
10.3982	146.784	5.37451
10.39936	159.284	5.394043
10.40115	161.08	5.41357
10.4027	154.166	5.43311
10.4038	158	5.45264
10.4056	170.298	5.472168
10.4066	156.699	5.4917
10.4091	159.665	5.51123
10.4104	172.305	5.53076
10.4125	164.814	5.550293
10.4137	157.854	5.56982
10.4162	175.702	5.58936
10.4167	171.935	5.60889
10.4192	163.242	5.628418
10.4206	172.795	5.64795
10.4226	177.387	5.66748
10.4246	163.773	5.68701
10.426	177.016	5.706543
10.42661	183.453	5.72607
10.4282	167.711	5.74561
10.4306	173.6367	5.76514
10.4322	187.875	5.784668
10.4338	177.346	5.8042
10.4343	177.099	5.82373
10.4364	191.812	5.84326
10.4386	179.85	5.862793
10.4402	178.131	5.88232
10.44225	191.269	5.90186
10.443	187.056	5.92139
10.4434	180.362	5.940918
10.4458	196.903	5.96045
10.4477	193.086	5.97998
10.4497	183.38	5.99951
10.4515	193.872	6.019043
10.4527	201.764	6.03857
10.4544	187.3936	6.05811
10.4565	194.748	6.07764
10.4586	202.2	6.097168
10.4593	196.502	6.1167
10.4619	195.071	6.13623
10.4617	209.174	6.15576
10.46444	198.316	6.175293
10.4658	197.078	6.19482
10.46743	209.276	6.21436
10.4697	206.973	6.23389
10.4715	194.859	6.253418
10.473	211.6	6.27295
10.4744	215.566	6.29248
10.4759	200.372	6.31201
10.4778	209.196	6.331543
10.4785	217.727	6.35107
10.4805	205.312	6.37061
10.4818	212.784	6.39014
10.4841	224.504	6.409668
10.4857	207.189	6.4292
10.4871	211.897	6.44873
10.4883	226.66	6.46826
10.491	217.801	6.487793
10.491	211.7943	6.50732
10.4933	230.368	6.52686
10.4957	221.173	6.54639
10.4976	216.966	6.565918
10.4984	228.615	6.58545
10.5009	230.556	6.60498
10.5014	219.068	6.62451
10.5038	231.648	6.644043
10.5053	233.535	6.66357
10.5061	222.907	6.68311
10.5086	229.573	6.70264
10.5101	241.192	6.722168
10.5123	230.874	6.7417
10.5134	231.101	6.76123
10.5143	241.482	6.78076
10.5165	236.243	6.800293
10.5187	230.837	6.81982
10.51865	246.141	6.83936
10.5216	241.078	6.85889
10.5234	233.8985	6.878418
10.52476	247.092	6.89795
10.52702	247.352	6.91748
10.5283	235.422	6.93701
10.5295	245.772	6.956543
10.5318	256.5816	6.97607
10.5335	239.758	6.99561
10.5345	246.216	7.01514
10.5362	257.617	7.034668
10.5369	248.939	7.0542
10.5396	248.557	7.07373
10.5407	265.518	7.09326
10.54323	248.201	7.112793
10.5439	251.038	7.13232
10.5457	264.169	7.15186
10.54685	260.927	7.17139
10.549	250.347	7.190918
10.551	267.9191	7.21045
10.5532	265.53	7.22998
10.5543	256.699	7.24951
10.5549	265.877	7.269043
10.5571	272.074	7.28857
10.5597	259.604	7.30811
10.5606	267.379	7.32764
10.5623	274.912	7.347168
10.5635	264.404	7.3667
10.5654	265.929	7.38623
10.5672	281.489	7.40576
10.5694	272.288	7.425293
10.5698	265.422	7.44482
10.5716	281.079	7.46436
10.5736	277.389	7.48389
10.5753	268.407	7.503418
10.57715	282.435	7.52295
10.5784	284.477	7.54248
10.5797	269.648	7.56201
10.581	285.012	7.581543
10.5828	290.235	7.60107
10.5853	276.453	7.62061
10.5856	283.063	7.64014
10.5879	297.427	7.659668
10.5895	280.605	7.6792
10.5913	285.105	7.69873
10.5921	297.452	7.71826
10.5945	290.832	7.737793
10.5961	285.231	7.75732
10.5971	302.101	7.77686
10.5998	290.85	7.79639
10.60041	289.327	7.815918
10.6033	301.813	7.83545
10.6039	303.064	7.85498
10.6061	290.437	7.87451
10.6075	301.443	7.894043
10.6085	306.113	7.91357
10.6104	296.773	7.93311
10.6123	300.744	7.95264
10.6149	311.776	7.972168
10.6152	301.296	7.9917
10.6174	301.999	8.01123
10.6176	313.18	8.03076
10.6198	306.575	8.050293
10.62189	302.126	8.06982
10.6247	317.783	8.08936
10.6256	314.273	8.10889
10.6268	302.291	8.128418
10.62786	318.036	8.14795
10.6301	319.102	8.16748
10.6318	307.357	8.18701
10.6325	317.926	8.206543
10.6352	326.142	8.22607
10.6362	309.343	8.24561
10.6383	320.798	8.26514
10.63916	329.128	8.284668
10.6423	316.838	8.3042
10.64373	317.96	8.32373
10.6452	334.317	8.34326
10.6466	321.7	8.362793
10.6484	321.053	8.38232
10.6497	336.312	8.40186
10.6525	332.7923	8.42139
10.6528	323.073	8.440918
10.6545	338.389	8.46045
10.6563	335.042	8.47998
10.6588	325.803	8.49951
10.6602	336.5473	8.519043
10.6606	342.365	8.53857
10.663	330.533	8.55811
10.6645	336.931	8.57764
10.6664	346.633	8.597168
10.6682	335.748	8.6167
10.669	335.13	8.63623
10.67113	350.625	8.65576
10.6723	343.847	8.675293
10.6747	336.183	8.69482
10.6758	351.935	8.71436
10.6771	347.781	8.73389
10.6786	338.9166	8.753418
10.6808	353.649	8.77295
10.6821	357.103	8.79248
10.6842	339.293	8.81201
10.6854	354.638	8.831543
10.6882	360.365	8.85107
10.6894	349.6	8.87061
10.6903	353.281	8.89014
10.69212	367.616	8.909668
10.6936	350.967	8.9292
10.6954	354.481	8.94873
10.6965	367.8479	8.96826
10.699	358.811	8.987793
10.7002	353.146	9.00732
10.701	371.6871	9.02686
10.703	366.506	9.04639
10.7043	355.254	9.065918
10.707	368.8154	9.08545
10.7082	375.579	9.10498
10.7101	362.11	9.12451
10.7117	368.243	9.144043
10.713	376.255	9.16357
10.7146	366.31	9.18311
10.716	369.555	9.20264
10.7173	384.938	9.222168
10.7184	372.668	9.2417
10.722	367.426	9.26123
10.7235	386.937	9.28076
10.7256	378.989	9.300293
10.72696	370.256	9.31982
10.7274	386.885	9.33936
10.7291	389.5499	9.35889
10.7301	370.903	9.378418
10.7325	387.197	9.39795
10.7344	391.434	9.41748
10.7357	377.866	9.43701
10.7383	387.225	9.456543
10.7384	399.9007	9.47607
10.7421	379.715	9.49561
10.7426	386.592	9.51514
10.744	402.425	9.534668
10.7462	390.564	9.5542
10.7481	383.762	9.57373
10.7486	403.395	9.59326
10.75013	394.883	9.612793
10.7515	388.586	9.63232
10.7542	403.8161	9.65186
10.7559	403.6449	9.67139
10.7568	388.196	9.690918
10.7587	405.882	9.71045
10.7594	409.139	9.72998
10.7632	393.675	9.74951
10.7643	402.1185	9.769043
10.76457	415.043	9.78857
10.7659	400.884	9.80811
10.7677	401.001	9.82764
10.7699	418.356	9.847168
10.7721	406.415	9.8667
10.77423	403.134	9.88623
10.7753	420.729	9.90576
10.7762	415.045	9.925293
10.779	399.672	9.94482
10.78	422.911	9.96436
10.78128	421.558	9.98389
10.7827	405.313	10.0034
10.7851	420.088	10.0229
10.78623	430.394	10.04248
10.7866	408.919	10.062
10.7902	422.232	10.0815
10.7909	431.533	10.1011
10.793	418.313	10.1206
10.7948	421.128	10.1401
10.7956	438.7551	10.1597
10.797	422.045	10.1792
10.7995	420.078	10.19873
10.8016	437.961	10.2183
10.8023	430.546	10.2378
10.8046	420.229	10.2573
10.8057	437.633	10.2769
10.8075	437.901	10.2964
10.8088	424.497	10.3159
10.81112	437.0206	10.3354
10.8125	442.873	10.35498
10.8147	429.303	10.3745
10.8146	435.464	10.394
10.8171	449.279	10.4136
10.819	433.86	10.4331
10.8209	436.444	10.4526
10.8226	454.352	10.4722
10.8244	444.375	10.4917
10.8244	433.604	10.51123
10.8269	456.135	10.5308
10.8292	447.878	10.5503
10.8298	438.206	10.5698
10.8324	454.959	10.5894
10.8335	457.181	10.6089
10.8359	437.241	10.6284
10.8375	457.96	10.6479
10.8391	462.299	10.66748
10.8406	444.104	10.687
10.8408	454.404	10.7065
10.8433	468.797	10.7261
10.84444	448.533	10.7456
10.8455	455.304	10.7651
10.8481	470.727	10.7847
10.84956	458.004	10.8042
10.8517	454.189	10.82373
10.853	473.908	10.8433
10.855	463.345	10.8628
10.8561	454.254	10.8823
10.8577	472.307	10.9019
10.8595	472.2056	10.9214
10.8608	458.183	10.9409
10.8627	470.337	10.9604
10.8648	478.642	10.97998
10.86572	461.796	10.9995
10.8672	471.53	11.019
10.8688	482.856	11.0386
10.8716	469.783	11.0581
10.8735	468.29	11.0776
10.874	489.107	11.0972
10.8744	473.926	11.1167
10.8775	469.591	11.13623
10.8802	488.617	11.1558
10.8803	483.443	11.1753
10.8825	467.21	11.1948
10.88417	490.355	11.2144
10.886	489.256	11.2339
10.8865	475.016	11.2534
10.8891	490.033	11.2729
10.8905	495.8158	11.29248
10.8921	475.632	11.312
10.8934	489.535	11.3315
10.8953	502.646	11.3511
10.89712	483.798	11.3706
10.8973	485.823	11.3901
10.9004	505.079	11.4097
10.9017	491.427	11.4292
10.9039	487.496	11.44873
10.9046	505.1785	11.4683
10.9066	498.506	11.4878
10.9077	489.025	11.5073
10.9094	506.008	11.5269
10.9116	505.118	11.5464
10.9133	490.977	11.5659
10.915	506.778	11.5854
10.9167	513.3	11.60498
10.9175	497.334	11.6245
10.9193	499.7388	11.644
10.9209	518.961	11.6636
10.9223	502.2803	11.6831
10.9241	503.771	11.7026
10.9265	520.907	11.7222
10.9281	511.528	11.7417
10.93012	499.466	11.76123
10.9311	526.265	11.7808
10.9329	514.263	11.8003
10.9347	504.499	11.8198
10.9351	524.149	11.8394
10.9376	525.91	11.8589
10.939	504.312	11.8784
10.9415	523.34	11.8979
10.9424	528.507	11.91748
10.9432	512.886	11.937
10.9458	520.78	11.9565
10.9479	534.4057	11.9761
10.9489	516.924	11.9956
10.951	520.796	12.0151
10.9524	538.193	12.0347
10.9545	524.431	12.0542
10.9545	518.546	12.07373
10.957	540.283	12.0933
10.9589	531.209	12.1128
10.9604	520.186	12.1323
10.9623	540.758	12.1519
10.96366	538.938	12.1714
10.966	524.242	12.1909
10.9669	535.637	12.2104
10.9686	545.615	12.22998
10.9704	525.086	12.2495
10.9714	537.408	12.269
10.9737	551.462	12.2886
10.9743	535.363	12.3081
10.977	531.537	12.3276
10.9784	556.057	12.3472
10.9799	540.023	12.3667
10.9824	536.597	12.38623
10.9826	554.774	12.4058
10.9841	550.282	12.4253
10.9867	534.007	12.4448
10.9881	556.21	12.4644
10.9895	555.584	12.4839
10.99089	538.617	12.5034
10.9925	555.674	12.5229
10.9939	562.478	12.54248
10.9957	540.332	12.562
10.9985	551.89	12.5815
10.999	566.836	12.6011
11.0001	551.018	12.6206
11.003	552.779	12.6401
11.0038	568.918	12.6597
11.0048	556.852	12.6792
11.0067	551.589	12.69873
11.00889	572.747	12.7183
11.0112	564.489	12.7378
11.012	552.3847	12.7573
11.0135	569.871	12.7769
11.0156	572.407	12.7964
11.0169	554.909	12.8159
11.0202	568.686	12.8354
11.0207	577.321	12.85498
11.0217	562.34	12.8745
11.02358	565.394	12.894
11.0256	583.478	12.9136
11.0268	564.406	12.9331
11.0264	567.897	12.9526
11.02936	587.43	12.9722
11.0321	574.305	12.9917
11.0336	563.9259	13.01123
11.034	588.979	13.0308
11.0361	580.56	13.0503
11.0391	568.623	13.0698
11.0394	587.222	13.0894
11.0415	588.758	13.1089
11.0426	570.771	13.1284
11.0448	588.082	13.1479
11.0468	592.82	13.16748
11.0475	574.75	13.187
11.0495	585.674	13.2065
11.05086	598.201	13.2261
11.0516	579.8606	13.2456
11.0547	582.648	13.2651
11.0559	603.071	13.2847
11.05776	587.878	13.3042
11.0595	583.865	13.32373
11.06175	600.756	13.3433
11.0625	597.037	13.3628
11.0644	584.784	13.3823
11.0669	604.548	13.4019
11.0682	604.567	13.4214
11.068	588.691	13.4409
11.0716	601.561	13.4604
11.0734	610.9646	13.47998
11.0751	590.612	13.4995
11.07583	600.675	13.519
11.0771	615.206	13.5386
11.0789	598.34	13.5581
11.08054	596.548	13.5776
11.0813	618.959	13.5972
11.08399	602.879	13.6167
11.0848	599.94	13.63623
11.0867	621.941	13.6558
11.0894	612.917	13.6753
11.0905	597.67	13.6948
11.0915	619.9444	13.7144
11.0942	620.911	13.7339
11.0958	603.398	13.7534
11.0971	618.762	13.7729
11.0999	624.68	13.79248
11.1	607.5686	13.812
11.1013	616.402	13.8315
11.1033	630.7981	13.8511
11.1055	611.363	13.8706
11.1063	616.648	13.8901
11.1088	633.111	13.9097
11.10937	621.696	13.9292
11.11122	613.387	13.94873
11.1141	636.414	13.9683
11.1148	628.768	13.9878
11.1166	618.568	14.0073
11.1174	630.491	14.0269
11.12	637.021	14.0464
11.1215	616.666	14.0659
11.1234	636.3501	14.0854
11.1246	640.613	14.10498
11.12517	623.667	14.1245
11.1284	629.062	14.144
11.1285	649.971	14.1636
11.1314	628.477	14.1831
11.1334	629.608	14.2026
11.1353	650.208	14.2222
11.1355	636.294	14.2417
11.1377	628.8504	14.26123
11.14072	651.885	14.2808
11.1411	642.79	14.3003
11.1422	630.752	14.3198
11.1439	652.483	14.3394
11.1459	649.331	14.3589
11.1477	632.266	14.3784
11.14992	651.1911	14.3979
11.15	658.638	14.41748
11.1529	638.368	14.437
11.1536	649.679	14.4565
11.1555	660.848	14.4761
11.1573	644.864	14.4956
11.1583	647.028	14.5151
11.1614	665.027	14.5347
11.16158	651.709	14.5542
11.1646	648.509	14.57373
11.1646	664.833	14.5933
11.167	660.659	14.6128
11.1688	645.36	14.6323
11.171	665.8595	14.6519
11.1712	668.1488	14.6714
11.1738	652.077	14.6909
11.1744	660.838	14.7104
11.1761	674.129	14.72998
11.1786	655.226	14.7495
11.1795	666.272	14.769
11.1813	678.605	14.7886
11.18222	661.188	14.8081
11.1844	660.877	14.8276
11.1869	684.412	14.8472
11.1867	668.837	14.8667
11.1886	659.345	14.88623
11.1909	683.726	14.9058
11.1928	674.1991	14.9253
11.1937	661.128	14.9448
11.1955	682.034	14.9644
11.19763	682.777	14.9839
11.1996	664.113	15.0034
11.20088	682.987	15.0229
11.2025	685.282	15.04248
11.2049	669.937	15.062
11.2059	679.35	15.0815
11.2069	695.4707	15.1011
11.2092	677.922	15.1206
11.2103	678.418	15.1401
11.212	693.905	15.1597
11.2137	685.06	15.1792
11.2162	676.454	15.19873
11.2158	697.7486	15.2183
11.2185	691.208	15.2378
11.2205	679.855	15.2573
11.2214	695.409	15.2769
11.2233	699.085	15.2964
11.2252	678.852	15.3159
11.2277	697.359	15.3354
11.2285	706.614	15.35498
11.2312	686.373	15.3745
11.23202	690.113	15.394
11.23343	709.468	15.4136
11.2354	690.802	15.4331
11.2366	692.559	15.4526
11.2379	712.869	15.4722
11.2407	696.719	15.4917
11.243	690.014	15.51123
11.24392	715.062	15.5308
11.2452	705.343	15.5503
11.2464	691.8504	15.5698
11.248	714.406	15.5894
11.2494	712.772	15.6089
11.2507	695.057	15.6284
11.2529	709.514	15.6479
11.2544	718.6499	15.66748
11.257	700.118	15.687
11.2575	712.124	15.7065
11.2599	721.231	15.7261
11.2613	707.398	15.7456
11.2631	707.6908	15.7651
11.2646	727.435	15.7847
11.2663	713.772	15.8042
11.268	708.794	15.82373
11.2687	725.104	15.8433
11.2708	723.4472	15.8628
11.2731	708.083	15.8823
11.27474	728.427	15.9019
11.2751	727.394	15.9214
11.2771	712.228	15.9409
11.2784	723.992	15.9604
11.28142	735.498	15.97998
11.2824	713.988	15.9995
11.2846	722.769	16.019
11.285	739.947	16.0386
11.2864	721.428	16.0581
11.28922	720.281	16.0776
11.29072	741.074	16.0972
11.2916	729.534	16.1167
11.2935	721.161	16.13623
11.2958	744.353	16.1558
11.2971	734.182	16.1753
11.2987	722.567	16.1948
11.3005	742.264	16.2144
11.3025	743.619	16.2339
11.3038	723.733	16.2534
11.3053	743.406	16.2729
11.3062	747.141	16.29248
11.3075	733.044	16.312
11.3105	738.446	16.3315
11.3121	753.305	16.3511
11.3125	735.529	16.3706
11.3156	738.311	16.3901
11.3164	752.294	16.4097
11.3184	745.606	16.4292
11.3195	734.711	16.44873
11.32139	758.551	16.4683
11.3239	751.812	16.4878
11.3255	736.6026	16.5073
11.3257	753.409	16.5269
11.3276	759.507	16.5464
11.32937	741.43	16.5659
11.3318	753.75	16.5854
11.33281	762.747	16.60498
11.3341	744.385	16.6245
11.3363	750.655	16.644
11.33827	769.406	16.6636
11.3396	748.388	16.6831
11.3412	750.446	16.7026
11.343	770.807	16.7222
11.3435	756.367	16.7417
11.3455	749.931	16.76123
11.348	771.242	16.7808
11.3488	764.305	16.8003
11.3508	751.097	16.8198
11.3512	771.2865	16.8394
11.3553	768.474	16.8589
11.3549	755.931	16.8784
11.3578	770.262	16.8979
11.35873	778.081	16.91748
11.36073	759.356	16.937
11.3627	769.143	16.9565
11.3642	779.714	16.9761
11.3652	766.639	16.9956
11.3676	763.988	17.0151
11.3695	784.32	17.0347
11.3715	772.701	17.0542
11.37165	767.496	17.07373
11.3744	782.14	17.0933
11.3752	779.375	17.1128
11.3763	765.169	17.1323
11.3784	786.037	17.1519
11.3793	786.53	17.1714
11.3817	767.542	17.1909
11.3836	781.2887	17.2104
11.3852	792.871	17.22998
11.3858	773.321	17.2495
11.388	780.9682	17.269
11.39	795.138	17.2886
11.3915	778.049	17.3081
11.3936	778.5329	17.3276
11.39409	797.816	17.3472
11.3955	785.45	17.3667
11.3979	778.876	17.38623
11.4005	802.777	17.4058
11.4012	791.3927	17.4253
11.4027	779.971	17.4448
11.4042	798.263	17.4644
11.4069	799.572	17.4839
11.4075	784.142	17.5034
11.4091	798.332	17.5229
11.4122	800.95	17.54248
11.4121	787.3537	17.562
11.4147	796.259	17.5815
11.4147	810.168	17.6011
11.41775	792.686	17.6206
11.4194	797.086	17.6401
11.4203	810.269	17.6597
11.422	801.468	17.6792
11.4247	792.153	17.69873
11.426	813.407	17.7183
11.427	807.012	17.7378
11.4285	794.509	17.7573
11.4296	811.202	17.7769
11.4323	812.561	17.7964
11.43441	795.738	17.8159
11.4351	812.604	17.8354
11.4357	819.402	17.85498
11.4388	799.5213	17.8745
11.4399	808.473	17.894
11.4428	824.823	17.9136
11.4443	808.353	17.9331
11.4452	806.681	17.9526
11.4466	826.409	17.9722
11.4485	810.749	17.9917
11.4505	807.636	18.01123
11.4518	825.345	18.0308
11.4535	818.651	18.0503
11.45572	807.859	18.0698
11.4567	827.807	18.0894
11.4583	824.2124	18.1089
11.4591	808.353	18.1284
11.4613	823.349	18.1479
11.4627	833.035	18.16748
11.46429	815.663	18.187
11.4668	824.3717	18.2065
11.4679	833.841	18.2261
11.4692	820.1814	18.2456
11.47168	821.865	18.2651
11.4732	839.495	18.2847
11.4738	823.799	18.3042
11.4761	820.821	18.32373
11.4778	838.252	18.3433
11.4794	834.69	18.3628
11.4798	820.309	18.3823
11.4823	839.221	18.4019
11.4846	841.167	18.4214
11.4868	821.953	18.4409
11.4868	836.383	18.4604
11.4889	844.352	18.47998
11.4904	827.272	18.4995
11.49294	837.734	18.519
11.4937	851.294	18.5386
11.4946	829.58	18.5581
11.49762	835.271	18.5776
11.4976	853.042	18.5972
11.4999	841.243	18.6167
11.5023	833.475	18.63623
11.5035	853.948	18.6558
11.50493	843.37	18.6753
11.5076	838.096	18.6948
11.5086	853.303	18.7144
11.5107	853.403	18.7339
11.51183	836.697	18.7534
11.51345	853.644	18.7729
11.5154	856.206	18.79248
11.5161	840.976	18.812
11.518	848.452	18.8315
11.52	862.791	18.8511
11.5217	847.9873	18.8706
11.5226	848.922	18.8901
11.52426	860.995	18.9097
11.5267	853.106	18.9292
11.5287	848.22	18.94873
11.5292	866.485	18.9683
11.5316	859.036	18.9878
11.5338	847.085	19.0073
11.5344	864.86	19.0269
11.53678	865.508	19.0464
11.5379	848.228	19.0659
11.5393	864.13	19.0854
11.54061	872.571	19.10498
11.543	852.54	19.1245
11.5434	862.996	19.144
11.545	873.036	19.1636
11.54854	859.124	19.1831
11.5487	860.344	19.2026
11.5505	881.081	19.2222
11.5513	862.6712	19.2417
11.5549	860.129	19.26123
11.5559	878.8316	19.2808
11.5577	873.4068	19.3003
11.559	860.877	19.3198
11.56061	879.598	19.3394
11.563	875.747	19.3589
11.5641	864.009	19.3784
11.5655	876.744	19.3979
11.5672	884.136	19.41748
11.5681	866.484	19.437
11.5707	875.511	19.4565
11.5725	885.642	19.4761
11.5731	871.667	19.4956
11.5755	872.033	19.5151
11.578	888.499	19.5347
11.5786	878.067	19.5542
11.5799	869.998	19.57373
11.5819	888.924	19.5933
11.5837	882.8634	19.6128
11.5843	873.344	19.6323
11.5867	890.331	19.6519
11.5888	889.681	19.6714
11.5905	872.144	19.6909
11.5921	888.018	19.7104
11.59388	894.701	19.72998
11.5943	877.708	19.7495
11.5964	886.307	19.769
11.5986	901.026	19.7886
11.6001	880.736	19.8081
11.6018	886.927	19.8276
11.603	901.143	19.8472
11.6047	888.299	19.8667
11.6069	885.48	19.88623
11.6073	904.825	19.9058
11.6097	891.311	19.9253
11.6096	885.805	19.9448
11.6131	901.162	19.9644
11.6152	902.376	19.9839
11.6159	887.596	20.0034
11.6174	891.181	20.0132

Data Header:			0.254_solid_dimension_typei_4545_r0			Time:	40.0181	s	4/14/2019 4:42:14 AM
Data Acquisition:	Timed
Station Name:	ft40.cfg
Test File Name:	monotonic_0.2540_typei_solid_4545_dimension.tst
Displacement	Force	Running Time
mm	N	s
11.6179	901.846	20.0229
11.61809	903.761	20.04248
11.6207	891.432	20.062
11.623	898.592	20.0815
11.6245	909.606	20.1011
11.6241	893.979	20.1206
11.6277	897.572	20.1401
11.6287	911.67	20.1597
11.6302	900.303	20.1792
11.6314	896.5451	20.19873
11.6339	913.721	20.2183
11.6354	909.932	20.2378
11.637	895.13	20.2573
11.6388	913.158	20.2769
11.6397	911.97	20.2964
11.6418	898.583	20.3159
11.6438	911.976	20.3354
11.6447	918.957	20.35498
11.64839	897.638	20.3745
11.6489	912.172	20.394
11.65034	921.854	20.4136
11.652	903.614	20.4331
11.65308	908.158	20.4526
11.6555	926.679	20.4722
11.6564	909.586	20.4917
11.6572	909.598	20.51123
11.6605	924.118	20.5308
11.6616	918.114	20.5503
11.6633	909.449	20.5698
11.6643	927.297	20.5894
11.6661	920.44	20.6089
11.6671	910.423	20.6284
11.6694	924.401	20.6479
11.6711	929.665	20.66748
11.6731	913.469	20.687
11.6744	920.103	20.7065
11.6753	931.584	20.7261
11.6775	918.188	20.7456
11.6791	920.457	20.7651
11.6816	934.674	20.7847
11.6818	923.298	20.8042
11.6836	918.45	20.82373
11.6857	938.003	20.8433
11.6875	929.3277	20.8628
11.6885	919.334	20.8823
11.69	937.123	20.9019
11.6921	937.939	20.9214
11.6935	917.995	20.9409
11.6955	936.118	20.9604
11.6969	938.886	20.97998
11.69883	926.206	20.9995
11.7013	934.548	21.019
11.7019	945.881	21.0386
11.7047	926	21.0581
11.7044	933.955	21.0776
11.7066	946.273	21.0972
11.7082	932.62	21.1167
11.7102	929.973	21.13623
11.711	950.547	21.1558
11.7134	937.752	21.1753
11.7153	930.859	21.1948
11.71634	945.698	21.2144
11.718	944.9137	21.2339
11.7207	932.776	21.2534
11.7216	946.822	21.2729
11.723	947.494	21.29248
11.7259	934.005	21.312
11.7262	943.692	21.3315
11.7282	955.593	21.3511
11.7303	939.0011	21.3706
11.7322	941.052	21.3901
11.7327	958.163	21.4097
11.734	945.031	21.4292
11.7373	942.003	21.44873
11.7382	957.173	21.4683
11.7387	950.09	21.4878
11.7413	939.02	21.5073
11.7428	959.649	21.5269
11.7445	954.5329	21.5464
11.74633	940.85	21.5659
11.7482	956.45	21.5854
11.7491	963.359	21.60498
11.7513	941.76	21.6245
11.7519	955.764	21.644
11.7542	965.21	21.6636
11.7559	949.977	21.6831
11.75719	954.1889	21.7026
11.7591	968.11	21.7222
11.761	951.182	21.7417
11.762	952.233	21.76123
11.7646	967.607	21.7808
11.7641	959.841	21.8003
11.7675	951.966	21.8198
11.76873	970.602	21.8394
11.7704	964.945	21.8589
11.7723	953.263	21.8784
11.7737	967	21.8979
11.77513	969.85	21.91748
11.7772	957.445	21.937
11.7791	965.89	21.9565
11.7808	975.32	21.9761
11.7818	957.908	21.9956
11.78279	964.344	22.0151
11.7865	977.672	22.0347
11.787	967.13	22.0542
11.7883	957.956	22.07373
11.7898	979.905	22.0933
11.7912	970.583	22.1128
11.7926	962.238	22.1323
11.7944	979.2807	22.1519
11.7963	977.909	22.1714
11.7991	960.2981	22.1909
11.7994	979.93	22.2104
11.8019	982.254	22.22998
11.8027	966.083	22.2495
11.8055	978.235	22.269
11.8065	988.705	22.2886
11.8087	967.355	22.3081
11.8092	974.298	22.3276
11.8123	988.112	22.3472
11.8131	974.307	22.3667
11.8139	973.627	22.38623
11.8155	989.022	22.4058
11.8175	976.677	22.4253
11.8186	971.941	22.4448
11.8209	989.294	22.4644
11.82181	985.176	22.4839
11.8238	972.675	22.5034
11.8261	985.179	22.5229
11.8275	990.818	22.54248
11.8294	976.2312	22.562
11.83038	984.542	22.5815
11.8328	994.731	22.6011
11.8337	981.39	22.6206
11.835	981.437	22.6401
11.8371	997.099	22.6597
11.8386	982.44	22.6792
11.84102	982.06	22.69873
11.842	999.483	22.7183
11.843	990.553	22.7378
11.844	977.081	22.7573
11.84749	999.4624	22.7769
11.8493	994.991	22.7964
11.8501	982.495	22.8159
11.8513	996.823	22.8354
11.85393	999.603	22.85498
11.8544	982.127	22.8745
11.8562	996.52	22.894
11.8595	1000.58	22.9136
11.8594	986.193	22.9331
11.8613	991.11	22.9526
11.8637	1006.58	22.9722
11.8646	990.556	22.9917
11.8673	989.9754	23.01123
11.8683	1006.16	23.0308
11.8696	997.477	23.0503
11.8717	990.7334	23.0698
11.8729	1004.53	23.0894
11.8746	1001.37	23.1089
11.8768	989.586	23.1284
11.8776	1005.44	23.1479
11.8794	1007.62	23.16748
11.8812	992.451	23.187
11.88242	1000.33	23.2065
11.8841	1014.4	23.2261
11.8864	993.6839	23.2456
11.8887	999.9491	23.2651
11.8892	1014.48	23.2847
11.8903	1002.88	23.3042
11.8913	996.696	23.32373
11.8941	1015.87	23.3433
11.896	1004.07	23.3628
11.8982	998.799	23.3823
11.89924	1015.66	23.4019
11.9005	1012.57	23.4214
11.9028	995.099	23.4409
11.9034	1015.86	23.4604
11.9051	1017.99	23.47998
11.90704	1001.36	23.4995
11.9084	1012.05	23.519
11.9108	1021.147	23.5386
11.9122	1002.34	23.5581
11.9131	1010.22	23.5776
11.915	1021.98	23.5972
11.9166	1007.88	23.6167
11.9183	1008.98	23.63623
11.9209	1023.92	23.6558
11.922	1013.572	23.6753
11.9233	1005.32	23.6948
11.9253	1023.65	23.7144
11.9279	1020.12	23.7339
11.92822	1009.41	23.7534
11.9293	1018.88	23.7729
11.9312	1024.99	23.79248
11.9335	1010.03	23.812
11.9353	1019.31	23.8315
11.9359	1027.14	23.8511
11.9381	1013.28	23.8706
11.94	1013.36	23.8901
11.9417	1033.82	23.9097
11.9414	1016.9	23.9292
11.945	1014.17	23.94873
11.9456	1031.13	23.9683
11.9486	1024.8	23.9878
11.9489	1010.862	24.0073
11.9518	1031.01	24.0269
11.9522	1026.5	24.0464
11.954	1014.11	24.0659
11.9559	1029.94	24.0854
11.9569	1031.35	24.10498
11.9587	1011.98	24.1245
11.96051	1026.94	24.144
11.9624	1035.22	24.1636
11.96389	1018.14	24.1831
11.9662	1024.19	24.2026
11.9677	1037.41	24.2222
11.9692	1021.09	24.2417
11.9716	1022.51	24.26123
11.972	1037.73	24.2808
11.97376	1025.91	24.3003
11.9756	1021.36	24.3198
11.9764	1037.043	24.3394
11.9795	1034.38	24.3589
11.9812	1019.47	24.3784
11.9816	1036.5	24.3979
11.9837	1039.25	24.41748
11.9844	1024.9	24.437
11.9866	1030.09	24.4565
11.9877	1044.28	24.4761
11.99	1026.847	24.4956
11.9915	1033.525	24.5151
11.99339	1045.33	24.5347
11.9948	1031.33	24.5542
11.9963	1028.28	24.57373
11.9983	1048.62	24.5933
12.0007	1034.62	24.6128
12.00184	1026.36	24.6323
12.0038	1044.75	24.6519
12.0046	1041.29	24.6714
12.0068	1026.15	24.6909
12.0072	1043.32	24.7104
12.00958	1044.36	24.72998
12.0119	1030.67	24.7495
12.0131	1043.27	24.769
12.0141	1046.57	24.7886
12.0156	1030.99	24.8081
12.0177	1036.87	24.8276
12.01899	1051.79	24.8472
12.021	1036.69	24.8667
12.02313	1035.96	24.88623
12.0241	1049.96	24.9058
12.0263	1040.22	24.9253
12.0274	1033.97	24.9448
12.0298	1050.93	24.9644
12.03109	1046.307	24.9839
12.033	1034.97	25.0034
12.03371	1048.17	25.0229
12.0359	1050.87	25.04248
12.0375	1032.457	25.062
12.0382	1046.34	25.0815
12.0392	1056.42	25.1011
12.0419	1041.22	25.1206
12.0439	1039.1	25.1401
12.0441	1059.32	25.1597
12.0471	1040.64	25.1792
12.0484	1042.43	25.19873
12.05089	1057.53	25.2183
12.0514	1046.64	25.2378
12.0529	1036.65	25.2573
12.05469	1058.96	25.2769
12.0574	1050.22	25.2964
12.0587	1037.91	25.3159
12.0601	1055.99	25.3354
12.061	1055.45	25.35498
12.0641	1040.52	25.3745
12.0643	1050.44	25.394
12.0669	1058.06	25.4136
12.0684	1042.53	25.4331
12.0691	1050.02	25.4526
12.0716	1059.22	25.4722
12.0721	1047.32	25.4917
12.0751	1047.37	25.51123
12.0763	1064.11	25.5308
12.0777	1052.7	25.5503
12.0789	1047.724	25.5698
12.0805	1058.88	25.5894
12.0833	1059.33	25.6089
12.0847	1045.25	25.6284
12.0875	1059.97	25.6479
12.08734	1061.85	25.66748
12.08918	1048.81	25.687
12.0918	1055.55	25.7065
12.09206	1066.46	25.7261
12.0935	1048.53	25.7456
12.0949	1054.819	25.7651
12.0978	1068.847	25.7847
12.0998	1053.3	25.8042
12.1011	1048.27	25.82373
12.1031	1068.05	25.8433
12.1038	1057.76	25.8628
12.1062	1051.1	25.8823
12.1071	1067.55	25.9019
12.1092	1060.73	25.9214
12.1107	1047.98	25.9409
12.1124	1067.19	25.9604
12.1142	1066.05	25.97998
12.1162	1049.54	25.9995
12.11708	1064.27	26.019
12.1186	1069.34	26.0386
12.1207	1054.25	26.0581
12.1214	1058.73	26.0776
12.12336	1072.34	26.0972
12.1248	1056	26.1167
12.12592	1059.14	26.13623
12.1283	1068.89	26.1558
12.1289	1062.94	26.1753
12.1317	1054.76	26.1948
12.1337	1072.69	26.2144
12.13428	1068.88	26.2339
12.1367	1055.598	26.2534
12.138	1066.33	26.2729
12.1398	1073.084	26.29248
12.1421	1054.807	26.312
12.1427	1066.94	26.3315
12.1448	1074.01	26.3511
12.146	1059.88	26.3706
12.1482	1060.739	26.3901
12.1498	1077.64	26.4097
12.1513	1060.063	26.4292
12.15301	1060.57	26.44873
12.1541	1078.56	26.4683
12.1549	1066.82	26.4878
12.159	1056.94	26.5073
12.1588	1075.58	26.5269
12.1604	1071.07	26.5464
12.1636	1058.87	26.5659
12.1642	1075.16	26.5854
12.1653	1072.85	26.60498
12.1684	1060.14	26.6245
12.1693	1071.16	26.644
12.1704	1078.15	26.6636
12.1722	1061.99	26.6831
12.1746	1069.959	26.7026
12.175	1077.67	26.7222
12.1774	1067.99	26.7417
12.1783	1064	26.76123
12.1801	1081.31	26.7808
12.1824	1070.31	26.8003
12.1835	1065.77	26.8198
12.1856	1077.47	26.8394
12.1874	1075.41	26.8589
12.1893	1062.1	26.8784
12.1892	1078.99	26.8979
12.1915	1081.1	26.91748
12.1932	1063.05	26.937
12.1943	1071.61	26.9565
12.1961	1085.17	26.9761
12.1987	1066.478	26.9956
12.1996	1070.96	27.0151
12.20151	1084.94	27.0347
12.2033	1069.71	27.0542
12.2049	1068.76	27.07373
12.2061	1084.79	27.0933
12.20853	1072.68	27.1128
12.2097	1065.33	27.1323
12.2116	1085.14	27.1519
12.2132	1075.79	27.1714
12.2144	1064.11	27.1909
12.2152	1080.01	27.2104
12.2172	1081.47	27.22998
12.22	1068.36	27.2495
12.2221	1080.2	27.269
12.2228	1082.08	27.2886
12.2242	1070.729	27.3081
12.2258	1074.64	27.3276
12.2273	1087.99	27.3472
12.2296	1073.05	27.3667
12.2299	1073.86	27.38623
12.2327	1084.95	27.4058
12.2345	1079.54	27.4253
12.2352	1068.81	27.4448
12.2374	1086.3	27.4644
12.2388	1083.05	27.4839
12.2415	1070.76	27.5034
12.2416	1080.58	27.5229
12.2441	1084.92	27.54248
12.2451	1068.04	27.562
12.2469	1081.35	27.5815
12.2487	1088.849	27.6011
12.251	1070.14	27.6206
12.2519	1076.49	27.6401
12.253	1091.46	27.6597
12.2552	1074.93	27.6792
12.2572	1073.05	27.69873
12.2585	1090.91	27.7183
12.2603	1078.75	27.7378
12.2618	1072.22	27.7573
12.2642	1088.5	27.7769
12.26407	1082.86	27.7964
12.2662	1071.35	27.8159
12.2682	1089.01	27.8354
12.2704	1086.41	27.85498
12.272	1072.73	27.8745
12.2729	1081.04	27.894
12.2754	1091.35	27.9136
12.2768	1074.99	27.9331
12.2775	1081.183	27.9526
12.2791	1088.4	27.9722
12.2814	1079.44	27.9917
12.2826	1076	28.01123
12.2862	1093.25	28.0308
12.287	1081.27	28.0503
12.2878	1075.53	28.0698
12.2886	1090.54	28.0894
12.2918	1088.45	28.1089
12.2935	1073.04	28.1284
12.2949	1088.02	28.1479
12.2971	1091.03	28.16748
12.2965	1074.92	28.187
12.2996	1084.46	28.2065
12.3018	1091.88	28.2261
12.3019	1077.03	28.2456
12.3034	1081.16	28.2651
12.30563	1095.18	28.2847
12.3064	1077.54	28.3042
12.3084	1077.842	28.32373
12.3105	1093.71	28.3433
12.312	1084.58	28.3628
12.3133	1075.44	28.3823
12.3151	1094.27	28.4019
12.3172	1085.87	28.4214
12.3188	1076.96	28.4409
12.32	1090.77	28.4604
12.32142	1092.28	28.47998
12.3238	1077.4	28.4995
12.3265	1089.1	28.519
12.326	1092.29	28.5386
12.3288	1079.11	28.5581
12.3301	1082.76	28.5776
12.33204	1096.71	28.5972
12.334	1084.063	28.6167
12.3348	1081.71	28.63623
12.33623	1094.384	28.6558
12.33847	1087.68	28.6753
12.3397	1079.72	28.6948
12.3411	1095.82	28.7144
12.3429	1091.07	28.7339
12.3448	1076.7	28.7534
12.3467	1091.88	28.7729
12.3489	1096.11	28.79248
12.34895	1078.373	28.812
12.3513	1087.62	28.8315
12.3524	1099.33	28.8511
12.3542	1078.5	28.8706
12.3565	1085.99	28.8901
12.3582	1098.44	28.9097
12.3603	1082.45	28.9292
12.3611	1083.19	28.94873
12.3627	1100.45	28.9683
12.3631	1085.58	28.9878
12.3657	1082.1	29.0073
12.3678	1098.37	29.0269
12.3692	1094.61	29.0464
12.372	1080.54	29.0659
12.3724	1094.31	29.0854
12.37514	1092.85	29.10498
12.3752	1083.54	29.1245
12.3779	1089.26	29.144
12.3793	1098.37	29.1636
12.38125	1082.77	29.1831
12.3823	1090.16	29.2026
12.3839	1095.91	29.2222
12.38616	1085.2	29.2417
12.387	1082.69	29.26123
12.3888	1100.66	29.2808
12.3905	1091.02	29.3003
12.3922	1082.08	29.3198
12.3939	1094.78	29.3394
12.3957	1094.7	29.3589
12.3968	1083.44	29.3784
12.3979	1095.682	29.3979
12.3997	1096.27	29.41748
12.401	1080.54	29.437
12.4033	1092.67	29.4565
12.4046	1099.76	29.4761
12.4067	1084.37	29.4956
12.4083	1087.91	29.5151
12.4103	1104.16	29.5347
12.4116	1084.49	29.5542
12.4121	1085.53	29.57373
12.4151	1099.51	29.5933
12.4177	1092.35	29.6128
12.4178	1083.48	29.6323
12.4204	1102.85	29.6519
12.4209	1091.51	29.6714
12.4228	1084.95	29.6909
12.4246	1095.36	29.7104
12.4272	1100.32	29.72998
12.4263	1082.97	29.7495
12.4291	1095.46	29.769
12.4312	1100.07	29.7886
12.4327	1088.88	29.8081
12.4347	1089.97	29.8276
12.4368	1101.88	29.8472
12.4385	1089.48	29.8667
12.4398	1087.928	29.88623
12.4401	1099.84	29.9058
12.4427	1091.56	29.9253
12.444	1083.55	29.9448
12.4464	1101.01	29.9644
12.4478	1096.76	29.9839
12.4506	1080.99	30.0034
12.4513	1097.01	30.0229
12.4518	1098.84	30.04248
12.4531	1084.32	30.062
12.4557	1094.64	30.0815
12.4584	1102.761	30.1011
12.4579	1082.55	30.1206
12.4608	1092.15	30.1401
12.4619	1102.04	30.1597
12.4627	1089.54	30.1792
12.4654	1086.52	30.19873
12.4674	1104.98	30.2183
12.4687	1091.49	30.2378
12.4702	1086.38	30.2573
12.4714	1099.547	30.2769
12.4744	1097.53	30.2964
12.4753	1086.26	30.3159
12.4765	1102.02	30.3354
12.4782	1096.12	30.35498
12.4798	1086.21	30.3745
12.4816	1095.75	30.394
12.4833	1103.05	30.4136
12.4844	1085.56	30.4331
12.4866	1092.05	30.4526
12.48876	1102.1	30.4722
12.4898	1090.365	30.4917
12.4906	1088.65	30.51123
12.4928	1102.35	30.5308
12.4948	1095.28	30.5503
12.4965	1085.53	30.5698
12.4985	1101.39	30.5894
12.4998	1095.83	30.6089
12.5005	1083.52	30.6284
12.5029	1099.66	30.6479
12.50416	1101.91	30.66748
12.5061	1081	30.687
12.50712	1096.67	30.7065
12.5095	1102.96	30.7261
12.5109	1089.18	30.7456
12.5126	1093.77	30.7651
12.514	1107.47	30.7847
12.5161	1088.22	30.8042
12.5173	1091.39	30.82373
12.5195	1103.05	30.8433
12.5209	1095.17	30.8628
12.523	1087.14	30.8823
12.5249	1106.3	30.9019
12.5258	1096.37	30.9214
12.52754	1086.87	30.9409
12.5289	1098.36	30.9604
12.5306	1100.12	30.97998
12.5322	1085.25	30.9995
12.5327	1096.593	31.019
12.5352	1100.88	31.0386
12.5372	1088.37	31.0581
12.5388	1093.957	31.0776
12.5398	1105.37	31.0972
12.541	1091.924	31.1167
12.5437	1089.03	31.13623
12.5455	1104.13	31.1558
12.5466	1094.43	31.1753
12.54791	1087.89	31.1948
12.5499	1102.22	31.2144
12.5511	1100.19	31.2339
12.5527	1085.215	31.2534
12.5545	1101.874	31.2729
12.5567	1100.62	31.29248
12.5588	1088.3	31.312
12.5594	1099.34	31.3315
12.5613	1106.49	31.3511
12.5627	1084.22	31.3706
12.5647	1095.67	31.3901
12.5661	1105.2	31.4097
12.5681	1093.15	31.4292
12.5687	1091.25	31.44873
12.5718	1106.28	31.4683
12.5728	1093.04	31.4878
12.574	1090.74	31.5073
12.5753	1106.298	31.5269
12.5774	1098	31.5464
12.57855	1086.47	31.5659
12.5814	1101.78	31.5854
12.5825	1101.6	31.60498
12.58418	1088.85	31.6245
12.5854	1098.25	31.644
12.5872	1103.73	31.6636
12.589	1092.05	31.6831
12.5904	1093.14	31.7026
12.5927	1104.26	31.7222
12.5934	1092	31.7417
12.5946	1091.438	31.76123
12.5972	1107.58	31.7808
12.5988	1096.63	31.8003
12.59943	1085.7	31.8198
12.6017	1104.92	31.8394
[...]
15.107	1086.57	61.9077
15.1087	1083.2	61.91748
15.1082	1073.09	61.9272
15.1102	1070.14	61.937
15.111	1071.84	61.9468
15.1114	1082.06	61.9565
15.1124	1087.49	61.9663
15.1124	1086.96	61.9761
15.1147	1079.02	61.98584
15.1139	1068.21	61.9956
15.1152	1070.01	62.0054
15.1159	1079.65	62.0151
15.1166	1087.95	62.0249
15.1175	1086.48	62.0347
15.1183	1080.04	62.0444
15.1179	1072.66	62.0542
15.1196	1071.36	62.064
15.1212	1074.708	62.07373
15.12129	1079.68	62.0835
15.1222	1088.18	62.0933
15.1227	1085.17	62.103
15.1236	1075.188	62.1128
15.1248	1072.55	62.1226
15.1258	1070.25	62.1323
15.1259	1080.3	62.14209
15.1273	1085.23	62.1519
15.12839	1083.49	62.1616
15.1287	1080.48	62.1714
15.1292	1073.94	62.1812
15.1309	1070.97	62.1909
15.1311	1075.04	62.2007
15.1317	1082.03	62.2104
15.1333	1088.92	62.2202
15.1335	1082.8	62.22998
15.1353	1075.86	62.2397
15.1364	1070.64	62.2495
15.1356	1071.201	62.2593
15.1368	1080.37	62.269
15.1365	1083.93	62.2788
15.138	1083.42	62.2886
15.1396	1080.38	62.29834
15.1406	1072.19	62.3081
15.1412	1069.01	62.3179
15.1417	1075.5	62.3276
15.1425	1084.572	62.3374
15.14359	1088.51	62.3472
15.1448	1083.68	62.3569
15.1452	1071.55	62.3667
15.14653	1070.32	62.3765
15.1477	1073.25	62.38623
15.1473	1081.168	62.396
15.1473	1088.32	62.4058
15.1494	1085.11	62.4155
15.1505	1077.96	62.4253
15.1509	1069.11	62.4351
15.1509	1068.26	62.4448
15.1526	1077.65	62.45459
15.1535	1085.869	62.4644
15.15427	1088.34	62.4741
15.1554	1079.6	62.4839
15.1568	1069.62	62.4937
15.1559	1071.22	62.5034
15.1574	1073.06	62.5132
15.1591	1084.87	62.5229
15.1593	1086.23	62.5327
15.1601	1082.53	62.54248
15.1615	1073.93	62.5522
15.1614	1065.12	62.562
15.1619	1071.24	62.5718
15.1627	1081.09	62.5815
15.1638	1087.69	62.5913
15.1644	1084.01	62.6011
15.1664	1075.292	62.61084
15.1676	1071.69	62.6206
15.1665	1071.73	62.6304
15.16818	1075.71	62.6401
15.1692	1083.51	62.6499
15.1692	1087.04	62.6597
15.1705	1081.09	62.6694
15.1711	1070.68	62.6792
15.1724	1068.15	62.689
15.1727	1073.77	62.69873
15.1735	1083.23	62.7085
15.1745	1086.4	62.7183
15.176	1082.17	62.728
15.1769	1074.87	62.7378
15.1774	1070.91	62.7476
15.1767	1072.28	62.7573
15.1785	1076.16	62.76709
15.1782	1086.28	62.7769
15.1809	1086.6	62.7866
15.1809	1077.46	62.7964
15.18264	1073.22	62.8062
15.1811	1067.91	62.8159
15.183	1075.86	62.8257
15.1849	1082.52	62.8354
15.18442	1083.56	62.8452
15.1863	1083.69	62.85498
15.1874	1075	62.8647
15.18776	1071.39	62.8745
15.18829	1071.98	62.8843
15.1893	1076.96	62.894
15.1895	1086.87	62.9038
15.19035	1086.78	62.9136
15.1916	1077.35	62.92334
15.1929	1070.29	62.9331
15.1934	1069.82	62.9429
15.1946	1078.415	62.9526
15.1949	1082.44	62.9624
15.1957	1085.58	62.9722
15.195	1082.093	62.9819
15.1975	1074.82	62.9917
15.1979	1067.97	63.0015
15.199	1071.33	63.01123
15.1989	1080.55	63.021
15.2001	1088.05	63.0308
15.2011	1085.76	63.0405
15.203	1075.19	63.0503
15.2027	1070.41	63.0601
15.2035	1067.92	63.0698
15.20484	1078.04	63.07959
15.2055	1086.29	63.0894
15.2066	1084.68	63.0991
15.2075	1081.68	63.1089
15.2081	1070.47	63.1187
15.2077	1066.41	63.1284
15.2098	1073.64	63.1382
15.2101	1082.38	63.1479
15.2102	1088.35	63.1577
15.2129	1081.069	63.16748
15.2123	1071.18	63.1772
15.2135	1070.23	63.187
15.2145	1070.31	63.1968
15.2153	1081.844	63.2065
15.2165	1084.98	63.2163
15.2164	1084.875	63.2261
15.21785	1078.44	63.23584
15.21745	1067.75	63.2456
15.2187	1069.33	63.2554
15.22	1075.06	63.2651
15.2208	1084.64	63.2749
15.2219	1085.9	63.2847
15.2229	1077.33	63.2944
15.2224	1071.344	63.3042
15.2241	1071.42	63.314
15.2249	1073.75	63.32373
15.2265	1081.76	63.3335
15.2265	1084.57	63.3433
15.2268	1082.81	63.353
15.228	1076.19	63.3628
15.22823	1068.14	63.3726
15.2298	1069.72	63.3823
15.2303	1079.06	63.39209
15.2303	1084.84	63.4019
15.2316	1083.28	63.4116
15.2331	1077.84	63.4214
15.2329	1071.14	63.4312
15.2346	1070.97	63.4409
15.2349	1071.55	63.4507
15.23609	1080.1	63.4604
15.2371	1085.55	63.4702
15.23824	1082.48	63.47998
15.2393	1075.26	63.4897
15.2401	1066.441	63.4995
15.24003	1072.49	63.5093
15.2406	1079.38	63.519
15.2418	1082.34	63.5288
15.2435	1085.67	63.5386
15.24451	1077.71	63.54834
15.2449	1069.03	63.5581
15.24511	1068.21	63.5679
15.2465	1071.81	63.5776
15.2483	1083.62	63.5874
15.247	1085.7	63.5972
15.2477	1080.4	63.6069
15.249	1071.36	63.6167
15.2503	1066.85	63.6265
15.2508	1074.57	63.63623
15.2522	1080.71	63.646
15.2535	1086.42	63.6558
15.2531	1084.39	63.6655
15.2542	1074.99	63.6753
15.2549	1069.01	63.6851
15.2567	1068.16	63.6948
15.2557	1075.01	63.70459
15.2566	1084.729	63.7144
15.2585	1086.37	63.7241
15.2583	1076.36	63.7339
15.2593	1069.23	63.7437
15.2602	1067.81	63.7534
15.2618	1075.07	63.7632
15.2617	1083.48	63.7729
15.26233	1086.61	63.7827
15.263	1083.54	63.79248
15.2659	1071.95	63.8022
15.2649	1067.23	63.812
15.2658	1070.24	63.8218
15.2672	1079.13	63.8315
15.2682	1088.5	63.8413
15.26882	1082.47	63.8511
15.27005	1074.81	63.86084
15.2708	1068.62	63.8706
15.2715	1070.13	63.8804
15.2723	1077.67	63.8901
15.2729	1081.36	63.8999
15.2732	1085.146	63.9097
15.2746	1080.86	63.9194
15.276	1068.75	63.9292
15.2756	1067.45	63.939
15.2773	1071.79	63.94873
15.2776	1080.6	63.9585
15.2781	1085.78	63.9683
15.2792	1080.53	63.978
15.2804	1073.14	63.9878
15.2809	1070.03	63.9976
15.2816	1069.59	64.0073
15.28254	1074.91	64.01709
15.283	1082.4	64.0269
15.2841	1085.33	64.0366
15.2849	1078.38	64.0464
15.2868	1069.19	64.0562
15.2863	1067.56	64.0659
15.2875	1073.3	64.0757
15.2882	1080.05	64.0854
15.289	1083.54	64.0952
15.2903	1081.93	64.10498
15.2911	1074.79	64.1147
15.2923	1069.23	64.1245
15.2923	1069.56	64.1343
15.2935	1075.17	64.144
15.2935	1084.32	64.1538
15.2948	1085.68	64.1636
15.2949	1077.04	64.17334
15.2967	1066.03	64.1831
15.2974	1069.22	64.1929
15.2978	1075.4	64.2026
15.2984	1080.59	64.2124
15.3	1087.19	64.2222
15.3005	1079.1	64.2319
15.3024	1073.24	64.2417
15.3026	1068.155	64.2515
15.3026	1069.75	64.26123
15.303	1079.24	64.271
15.3049	1086.772	64.2808
15.30564	1083.89	64.2905
15.3059	1073.48	64.3003
15.3078	1067.358	64.3101
15.3086	1070.25	64.3198
15.3081	1076.8	64.32959
15.3103	1083.55	64.3394
15.3107	1084.59	64.3491
15.3115	1078.038	64.3589
15.311	1070.23	64.3687
15.3123	1064.74	64.3784
15.3136	1073.03	64.3882
15.3144	1082.94	64.3979
15.3154	1086.05	64.4077
15.3157	1080.3	64.41748
15.3167	1071.23	64.4272
15.3171	1065.62	64.437
15.3178	1071.8	64.4468
15.3201	1079.04	64.4565
15.32	1082.4	64.4663
15.32068	1085.08	64.4761
15.3216	1076.67	64.48584
15.3215	1067.34	64.4956
15.3236	1069.798	64.5054
15.324	1073.53	64.5151
15.326	1085.49	64.5249
15.32586	1083.98	64.5347
15.3259	1076.015	64.5444
15.3281	1069.32	64.5542
15.328	1067.41	64.564
15.3294	1074.33	64.57373
15.33	1078.37	64.5835
15.3306	1084.24	64.5933
15.3318	1081.57	64.603
15.3318	1073.396	64.6128
15.3324	1069.149	64.6226
15.3342	1067.81	64.6323
15.335	1076.85	64.64209
15.336	1084.199	64.6519
15.3367	1080.53	64.6616
15.3379	1077.05	64.6714
15.3385	1070.46	64.6812
15.339	1066.859	64.6909
15.3392	1072.89	64.7007
15.3406	1077.03	64.7104
15.3404	1083.9	64.7202
15.3417	1080.79	64.72998
15.3423	1071.16	64.7397
15.3429	1065.5	64.7495
15.345	1068.87	64.7593
15.346	1077.68	64.769
15.3457	1081.42	64.7788
15.3468	1080.57	64.7886
15.3475	1075.9	64.79834
15.3485	1069.47	64.8081
15.3495	1065.77	64.8179
15.3508	1070.7	64.8276
15.3507	1080.431	64.8374
15.3514	1085.39	64.8472
15.3524	1079.37	64.8569
15.3532	1067.61	64.8667
15.35434	1065.19	64.8765
15.35482	1069.84	64.88623
15.3557	1077.7	64.896
15.35712	1084.4	64.9058
15.3572	1079.58	64.9155
15.3587	1073.25	64.9253
15.3592	1065.61	64.9351
15.3603	1065.6	64.9448
15.3608	1075.63	64.95459
15.3617	1082.8	64.9644
15.3623	1083.95	64.9741
15.3634	1074.26	64.9839
15.3643	1066.37	64.9937
15.3643	1066.68	65.0034
15.3653	1072.522	65.0132
15.3662	1079.92	65.0229
15.3672	1081.82	65.0327
15.3676	1077.96	65.04248
15.3687	1071.92	65.0522
15.3696	1063.64	65.062
15.3702	1068.098	65.0718
15.37096	1077.26	65.0815
15.3723	1084.24	65.0913
15.3726	1080.44	65.1011
15.3749	1071.73	65.11084
15.3759	1063.238	65.1206
15.3749	1068.97	65.1304
15.3765	1074.24	65.1401
15.3767	1078.72	65.1499
15.3784	1081.9	65.1597
15.3784	1076.71	65.1694
15.3792	1069.15	65.1792
15.38057	1066.93	65.189
15.3813	1068.82	65.19873
15.3816	1079.22	65.2085
15.38312	1083.5	65.2183
15.3837	1076.99	65.228
15.385	1070.63	65.2378
15.3855	1064.86	65.2476
15.3857	1069.998	65.2573
15.3869	1071.87	65.26709
15.3885	1078.21	65.2769
15.3873	1079.84	65.2866
15.3892	1074.845	65.2964
15.3906	1068.47	65.3062
15.391	1062.35	65.3159
15.3913	1070.11	65.3257
15.3922	1077.99	65.3354
15.39296	1078.56	65.3452
15.3928	1079.77	65.35498
15.3951	1069.47	65.3647
15.3951	1063.626	65.3745
15.3974	1066.01	65.3843
15.3968	1071.682	65.394
15.3982	1079.03	65.4038
15.3987	1081.59	65.4136
15.4005	1072.11	65.42334
15.4002	1062.06	65.4331
15.40165	1061.49	65.4429
15.4018	1069.5	65.4526
15.4037	1077.71	65.4624
15.4036	1079.32	65.4722
15.4049	1075.87	65.4819
15.4053	1069.15	65.4917
15.4059	1061.83	65.5015
15.4078	1064.17	65.51123
15.4078	1073.74	65.521
15.4083	1081.44	65.5308
15.4099	1077.52	65.5405
15.4113	1065.91	65.5503
15.4104	1060.13	65.5601
15.4121	1062.11	65.5698
15.413	1069.36	65.57959
15.4139	1080.31	65.5894
15.41474	1075.73	65.5991
15.4156	1072.68	65.6089
15.4148	1064.34	65.6187
15.418	1057.95	65.6284
15.4182	1067.79	65.6382
15.4179	1074.05	65.6479
15.4193	1079.21	65.6577
15.4196	1072.48	65.66748
15.4215	1061.43	65.6772
15.4231	1058.91	65.687
15.4222	1063.33	65.6968
15.4231	1070.726	65.7065
15.424	1075.06	65.7163
15.4249	1073.34	65.7261
15.4268	1068.42	65.73584
15.42707	1057.87	65.7456
15.4278	1056.78	65.7554
15.4352	53.0087	65.7651
15.4357	-53.1166	65.7749
15.4357	-26.3803	65.7847
15.435	-30.0403	65.7944
15.4356	-44.448	65.8042
15.4356	-42.767	65.814
15.43652	-44.5146	65.82373
15.4372	-36.137	65.8335
15.4383	-28.4943	65.8433
15.4374	-30.4102	65.853
15.4382	-38.4048	65.8628
15.4387	-44.8686	65.8726
15.4399	-51.74297	65.8823
15.4405	-39.0917	65.89209
15.4419	-32.0861	65.9019
15.4414	-27.8102	65.9116
15.4427	-33.8526	65.9214
15.444	-46.8282	65.9312
15.4448	-47.9959	65.9409
15.4453	-46.1527	65.9507
15.4455	-37.1345	65.9604
15.4465	-28.9703	65.9702
15.4475	-29.792	65.97998
15.4473	-40.0691	65.9897
15.4486	-50.6576	65.9995
15.4499	-48.8528	66.0093
15.4497	-38.1295	66.019
15.4513	-31.78709	66.0288
15.4527	-27.7794	66.0386
15.4528	-37.1647	66.04834
15.4527	-46.3195	66.0581
15.4542	-49.3309	66.0679
15.4549	-44.9244	66.0776
15.4559	-31.4283	66.0874
15.4574	-26.354	66.0972
15.4569	-33.3662	66.1069
15.4587	-43.50309	66.1167
15.4595	-51.406	66.1265
15.4597	-47.8729	66.13623
15.46104	-34.78886	66.146
15.461	-28.42277	66.1558
15.4635	-30.7061	66.1655
15.4632	-40.549	66.1753
15.4649	-48.6969	66.1851
15.4646	-49.8955	66.1948
15.46473	-41.2411	66.20459
15.46679	-30.3532	66.2144
15.4671	-27.665	66.2241
15.4682	-36.9339	66.2339
15.469	-47.1274	66.2437
15.47048	-51.2596	66.2534
15.47018	-41.2808	66.2632
15.4715	-34.5246	66.2729
15.471	-32.9991	66.2827
15.4728	-33.07262	66.29248
15.4732	-43.5437	66.3022
15.4744	-50.4133	66.312
15.47528	-46.2118	66.3218
15.476	-38.2794	66.3315
15.4761	-29.8908	66.3413
15.478	-31.8965	66.3511
15.47779	-42.53653	66.36084
15.4786	-46.5223	66.3706
15.4805	-47.4204	66.3804
15.4808	-40.77322	66.3901
15.48134	-33.9618	66.3999
15.4812	-32.8168	66.4097
15.48359	-34.0534	66.4194
15.4833	-42.3479	66.4292
15.4848	-47.7259	66.439
15.4859	-46.84119	66.44873
15.4867	-35.3646	66.4585
15.4878	-29.3039	66.4683
15.4888	-35.3046	66.478
15.4898	-42.6112	66.4878
15.4897	-46.5171	66.4976
15.4907	-46.5285	66.5073
15.4906	-40.6824	66.51709
15.4929	-35.059	66.5269
15.4931	-33.16576	66.5366
15.4937	-35.793	66.5464
15.4955	-45.2246	66.5562
15.4956	-51.5831	66.5659
15.4956	-43.2465	66.5757
15.497	-37.46933	66.5854
15.4981	-30.4997	66.5952
15.49912	-33.6846	66.60498
15.4997	-45.4138	66.6147
15.5002	-47.2068	66.6245
15.50113	-46.667	66.6343
15.5021	-39.1743	66.644
15.5029	-32.6405	66.6538
15.5034	-31.6695	66.6636
15.5038	-36.574	66.67334
15.5057	-48.2029	66.6831
15.5066	-48.3761	66.6929
15.5066	-39.94894	66.7026
15.507	-33.4906	66.7124
15.50824	-30.4669	66.7222
15.5104	-35.9827	66.7319
15.5101	-44.4498	66.7417
15.5103	-47.6689	66.7515
15.51039	-47.91885	66.76123
15.5123	-36.7974	66.771
15.5133	-29.9972	66.7808
15.5155	-34.0558	66.7905
15.5143	-41.36124	66.8003
15.5163	-49.7221	66.8101
15.5166	-48.3211	66.8198
15.5163	-39.6115	66.82959
15.5182	-32.3507	66.8394
15.51858	-31.8871	66.8491
15.5204	-38.1035	66.8589
15.5204	-46.3016	66.8687
15.5212	-48.3085	66.8784
15.5224	-44.30798	66.8882
15.5232	-34.7382	66.8979
15.52322	-28.9587	66.9077
15.5251	-35.3667	66.91748
15.5261	-46.438	66.9272
15.5261	-48.9469	66.937
15.5272	-44.31176	66.9468
15.5286	-38.0428	66.9565
15.5282	-34.6207	66.9663
15.5294	-33.0579	66.9761
15.5294	-40.3147	66.98584
15.5308	-47.2634	66.9956
15.5324	-46.9622	67.0054
15.5329	-44.0701	67.0151
15.5331	-32.5651	67.0249
15.5334	-30.8859	67.0347
15.5344	-39.2937	67.0444
15.536	-43.7431	67.0542
15.5362	-49.4475	67.064
15.537	-44.1873	67.07373
15.5384	-37.80658	67.0835
15.5384	-34.0804	67.0933
15.5403	-33.109	67.103
15.541	-39.4055	67.1128
15.5415	-47.2725	67.1226
15.5436	-47.7997	67.1323
15.5442	-42.5303	67.14209
15.5451	-29.8656	67.1519
15.5441	-33.1864	67.1616
15.5453	-38.18679	67.1714
15.5475	-44.3409	67.1812
15.5477	-47.25597	67.1909
15.5483	-43.0508	67.2007
15.5497	-37.8153	67.2104
15.5492	-34.0735	67.2202
15.5506	-31.9812	67.22998
15.5514	-41.6984	67.2397
15.5517	-50.838	67.2495
15.5531	-46.631	67.2593
15.55448	-38.7298	67.269
15.5547	-31.21586	67.2788
15.5552	-30.5832	67.2886
15.5562	-41.9766	67.29834
15.5573	-44.5767	67.3081
15.5578	-47.5369	67.3179
15.5592	-42.5749	67.3276
15.561	-33.2222	67.3374
15.5603	-31.4877	67.3472
15.5613	-33.0147	67.3569
15.56209	-45.5472	67.3667
15.5637	-50.6311	67.3765
15.5638	-45.6877	67.38623
15.56452	-35.6773	67.396
15.5653	-29.1213	67.4058
15.567	-34.7532	67.4155
15.5679	-43.2269	67.4253
15.5687	-46.7811	67.4351
15.5692	-48.5627	67.4448
15.5692	-40.3234	67.45459
15.5701	-32.1613	67.4644
15.571	-31.4917	67.4741
15.571	-37.6258	67.4839
15.5722	-49.5693	67.4937
15.5734	-49.5088	67.5034
15.5745	-42.485	67.5132
15.5748	-34.0051	67.5229
15.5766	-32.1641	67.5327
15.5769	-35.7172	67.54248
15.5779	-44.1949	67.5522
15.57811	-47.6315	67.562
15.5787	-45.1071	67.5718
15.5804	-38.7251	67.5815
15.5814	-30.8267	67.5913
15.5818	-33.926	67.6011
15.5818	-42.5908	67.61084
15.5825	-47.4541	67.6206
15.584	-47.7921	67.6304
15.584	-39.0948	67.6401
15.5857	-36.2138	67.6499
15.5862	-32.4953	67.6597
15.587	-39.0504	67.6694
15.5889	-44.34568	67.6792
15.5879	-46.2472	67.689
15.5896	-46.8193	67.69873
15.5908	-36.7871	67.7085
15.5912	-30.953	67.7183
15.592	-37.3546	67.728
15.5937	-41.8793	67.7378
15.5945	-47.5282	67.7476
15.5939	-45.2001	67.7573
15.5957	-40.7615	67.76709
15.5955	-36.98	67.7769
15.5985	-33.1217	67.7866
15.5979	-38.6481	67.7964
15.5989	-45.8501	67.8062
15.5998	-49.0226	67.8159
15.6007	-46.9911	67.8257
15.6022	-35.0487	67.8354
15.60259	-30.7817	67.8452
15.6027	-36.6401	67.85498
15.6032	-44.2754	67.8647
15.6043	-49.1027	67.8745
15.6056	-45.1945	67.8843
15.6055	-41.51796	67.894
15.6069	-33.6661	67.9038
15.608	-31.6394	67.9136
15.608	-38.3738	67.92334
15.609	-48.9767	67.9331
15.6099	-49.6346	67.9429
15.6104	-44.6078	67.9526
15.6121	-32.1071	67.9624
15.6119	-31.4225	67.9722
15.6133	-40.014	67.9819
15.6139	-45.36388	67.9917
15.6151	-48.4385	68.0015
15.6152	-45.95364	68.01123
15.6171	-37.8394	68.021
15.6182	-33.1175	68.0308
15.618	-32.3193	68.0405
15.619	-43.3295	68.0503
15.6191	-51.6228	68.0601
15.6206	-48.5862	68.0698
15.6212	-39.796	68.07959
15.6231	-30.93609	68.0894
15.6238	-35.3208	68.0991
15.6233	-41.89045	68.1089
15.6247	-45.8119	68.1187
15.6264	-50.485	68.1284
15.6266	-42.4073	68.1382
15.6276	-36.4029	68.1479
15.62753	-33.0967	68.1577
15.6296	-35.4859	68.16748
15.6293	-47.34832	68.1772
15.6306	-49.1899	68.187
15.6319	-44.5877	68.1968
15.6328	-36.4668	68.2065
15.63356	-33.6414	68.2163
15.6334	-35.9495	68.2261
15.6339	-41.6876	68.23584
15.6355	-46.3724	68.2456
15.636	-48.95602	68.2554
15.6372	-42.0889	68.2651
15.638	-34.4543	68.2749
15.6381	-32.9108	68.2847
15.6401	-39.3829	68.2944
15.6398	-46.9312	68.3042
15.64093	-50.429	68.314
15.6422	-43.18058	68.32373
15.6434	-37.9453	68.3335
15.6431	-34.4963	68.3433
15.6449	-36.3794	68.353
15.6448	-40.9632	68.3628
15.6462	-45.9956	68.3726
15.6468	-49.8493	68.3823
15.6475	-41.3795	68.39209
15.6489	-33.2908	68.4019
15.6491	-34.1198	68.4116
15.649	-36.234	68.4214
15.6511	-46.5787	68.4312
15.6521	-46.2259	68.4409
15.6526	-42.4613	68.4507
15.6544	-39.8849	68.4604
15.6531	-31.2711	68.4702
15.6551	-33.5942	68.47998
15.656	-42.8975	68.4897
15.6565	-48.7742	68.4995
15.6569	-50.1765	68.5093
15.658	-39.0976	68.519
15.6593	-31.234	68.5288
15.6597	-33.1724	68.5386
15.66074	-41.2525	68.54834
15.6612	-48.25386	68.5581
15.66316	-46.9234	68.5679
15.6631	-42.5705	68.5776
15.6636	-35.2067	68.5874
15.6656	-31.5988	68.5972
15.6657	-35.8689	68.6069
15.6667	-44.3458	68.6167
15.6674	-51.3429	68.6265
15.6676	-47.06181	68.63623
15.6696	-35.2967	68.646
15.6703	-31.1643	68.6558
15.6696	-36.2048	68.6655
15.6713	-42.7996	68.6753
15.6725	-49.6446	68.6851
15.6731	-47.3955	68.6948
15.6735	-39.295	68.70459
15.67431	-35.92868	68.7144
15.6754	-31.6144	68.7241
15.6752	-39.2985	68.7339
15.6773	-47.4828	68.7437
15.6783	-48.3255	68.7534
15.6788	-43.5029	68.7632
15.6789	-32.6202	68.7729
15.68029	-32.1165	68.7827
15.6807	-38.445	68.79248
15.683	-42.8197	68.8022
15.6827	-47.9986	68.812
15.6843	-44.07373	68.8218
15.6836	-39.56197	68.8315
15.68525	-33.0391	68.8413
15.6846	-33.62207	68.8511
15.6867	-43.2829	68.86084
15.6879	-46.9724	68.8706
15.6894	-47.1477	68.8804
15.6887	-40.9083	68.8901
15.691	-33.307	68.8999
15.6908	-35.1619	68.9097
15.69222	-38.2869	68.9194
15.6929	-43.0047	68.9292
15.6941	-48.9797	68.939
15.694	-46.3121	68.94873
15.695	-37.479	68.9585
15.6957	-33.3473	68.9683
15.6961	-32.8895	68.978
15.6975	-42.5009	68.9878
15.6981	-49.3317	68.9976
15.6981	-45.6325	69.0073
15.6997	-39.6942	69.01709
15.7009	-34.9049	69.0269
15.7012	-33.9006	69.0366
15.7023	-39.114	69.0464
15.7028	-44.0251	69.0562
15.7045	-50.3307	69.0659
15.7036	-44.8874	69.0757
15.7052	-36.7092	69.0854
15.7063	-32.587	69.0952
15.7077	-35.4036	69.10498
15.7078	-45.4907	69.1147
15.7082	-48.1416	69.1245
15.7096	-45.6797	69.1343
15.7105	-40.869	69.144
15.7113	-33.9943	69.1538
15.7122	-33.91671	69.1636
15.713	-38.6833	69.17334
15.7137	-47.4074	69.1831
15.7146	-50.8673	69.1929
15.7157	-42.5317	69.2026
15.716	-32.2839	69.2124
15.717	-30.17	69.2222
15.7181	-38.2677	69.2319
15.7195	-47.0543	69.2417
15.7184	-48.0804	69.2515
15.7193	-44.75256	69.26123
15.7201	-37.3644	69.271
15.7221	-31.8103	69.2808
15.7227	-33.8556	69.2905
15.7219	-43.0072	69.3003
15.7243	-50.6993	69.3101
15.7251	-47.2126	69.3198
15.72595	-38.6125	69.32959
15.7263	-31.29	69.3394
15.7273	-34.5405	69.3491
15.7273	-39.4538	69.3589
15.72917	-48.4359	69.3687
15.7298	-47.767	69.3784
15.73	-43.265	69.3882
15.7309	-37.2146	69.3979
15.7323	-31.3195	69.4077
15.7331	-36.1675	69.41748
15.7345	-44.9157	69.4272
15.734	-46.9085	69.437
15.73528	-45.1857	69.4468
15.7356	-36.6183	69.4565
15.7375	-34.3224	69.4663
15.7379	-36.6259	69.4761
15.7394	-41.7599	69.48584
15.7398	-47.4515	69.4956
15.7403	-44.877	69.5054
15.7417	-43.2089	69.5151
15.74139	-35.78616	69.5249
15.743	-32.0282	69.5347
15.744	-38.2282	69.5444
15.7437	-43.9732	69.5542
15.7454	-48.3918	69.564
15.7459	-43.7843	69.57373
15.7468	-36.66	69.5835
15.7477	-34.9918	69.5933
15.7487	-35.62888	69.603
15.7497	-39.7727	69.6128
15.751	-47.7166	69.6226
15.7508	-48.5308	69.6323
15.7516	-42.3358	69.64209
15.7511	-33.1909	69.6519
15.7536	-31.434	69.6616
15.7549	-40.1031	69.6714
15.7556	-47.42812	69.6812
15.7553	-47.0532	69.6909
15.7571	-44.1914	69.7007
15.7584	-35.8127	69.7104
15.7581	-32.7889	69.7202
15.75854	-35.5764	69.72998
15.7602	-41.9498	69.7397
15.7605	-49.2595	69.7495
15.7619	-47.6217	69.7593
15.7629	-39.8876	69.769
15.7632	-31.2032	69.7788
15.7646	-31.7752	69.7886
15.7646	-42.1116	69.79834
15.7662	-48.7775	69.8081
15.7658	-45.6162	69.8179
15.7683	-45.5407	69.8276
15.7689	-33.21653	69.8374
15.7687	-32.835	69.8472