File: data/processed_data_files/tensile/0.254_solid_dimension_typeiv_090_r(5).dat
MTS793|BTW|ENU|1|2|.|/|:|1|0|0|A

Data Header:			0.254_solid_dimension_typeiv_090_r0			Time:	20.0266	s	4/14/2019 1:45:00 AM
Data Acquisition:	Timed
Station Name:	ft40.cfg
Test File Name:	monotonic_0.2540_typeiv_solid_090_dimension.tst
Displacement	Force	Running Time
mm	N	s
-40.0402	-126.694	0.0310059
-40.0413	-125.273	0.0505371
-40.0404	-127.881	0.0700684
-40.03981	-127.858	0.0895996
-40.0387	-121.875	0.109131
-40.0357	-125.2094	0.128662
-40.0361	-125.398	0.148193
-40.03474	-121.146	0.167725
-40.033	-119.554	0.187256
-40.03093	-122.068	0.206787
-40.0285	-115.172	0.226318
-40.0283	-120.01	0.24585
-40.0265	-119.643	0.265381
-40.0243	-117.391	0.284912
-40.0212	-111.48	0.304443
-40.02047	-115.101	0.323975
-40.0193	-113.845	0.343506
-40.0171	-112.062	0.363037
-40.016	-109.9181	0.382568
-40.015	-112.1	0.4021
-40.0119	-105.227	0.421631
-40.0108	-106.89	0.441162
-40.0085	-108.4461	0.460693
-40.0085	-106.746	0.480225
-40.0074	-101.027	0.499756
-40.00441	-106.167	0.519287
-40.0025	-101.017	0.538818
-40.0022	-97.1248	0.55835
-39.9998	-102.8676	0.577881
-39.9988	-102.168	0.597412
-39.9967	-95.4877	0.616943
-39.9947	-98.3668	0.636475
-39.9921	-97.4522	0.656006
-39.9905	-90.6921	0.675537
-39.99052	-97.1259	0.695068
-39.9892	-96.6464	0.7146
-39.9866	-89.2839	0.734131
-39.9852	-90.7503	0.753662
-39.98333	-92.4904	0.773193
-39.9826	-85.3854	0.792725
-39.9807	-87.2491	0.812256
-39.9782	-89.03199	0.831787
-39.9773	-83.3091	0.851318
-39.9748	-81.7878	0.87085
-39.9733	-85.861	0.890381
-39.9728	-80.4133	0.909912
-39.9714	-81.324	0.929443
-39.9682	-81.1838	0.948975
-39.96669	-81.24778	0.968506
-39.9657	-73.494	0.988037
-39.9641	-77.9199	1.00757
-39.962	-78.0382	1.0271
-39.9614	-76.1658	1.04663
-39.9592	-72.8977	1.06616
-39.9573	-74.8424	1.08569
-39.9545	-70.5034	1.10522
-39.9544	-69.224	1.12476
-39.9529	-72.6124	1.14429
-39.9501	-70.257	1.16382
-39.9494	-63.7243	1.18335
-39.9474	-71.16436	1.20288
-39.9459	-66.3544	1.22241
-39.9453	-61.4588	1.24194
-39.9436	-65.127	1.26147
-39.9414	-66.721	1.28101
-39.9398	-58.2861	1.30054
-39.9377	-61.2016	1.32007
-39.93512	-63.5112	1.3396
-39.9352	-54.895	1.35913
-39.93288	-60.3292	1.37866
-39.9323	-61.2262	1.39819
-39.93	-52.3688	1.41772
-39.92831	-52.8204	1.43726
-39.926	-56.6046	1.45679
-39.9252	-49.4458	1.47632
-39.922	-53.381	1.49585
-39.922	-50.5868	1.51538
-39.9205	-49.9715	1.53491
-39.9188	-45.9567	1.55444
-39.9181	-49.0609	1.57397
-39.9148	-46.3334	1.59351
-39.9143	-44.4747	1.61304
-39.9118	-44.46286	1.63257
-39.9094	-46.95298	1.6521
-39.9083	-39.1823	1.67163
-39.9078	-39.4604	1.69116
-39.9043	-40.959	1.71069
-39.9049	-40.8071	1.73022
-39.9015	-35.0451	1.74976
-39.9009	-40.5359	1.76929
-39.8991	-32.7406	1.78882
-39.8967	-32.6336	1.80835
-39.8949	-36.00034	1.82788
-39.89299	-37.11121	1.84741
-39.892	-26.4791	1.86694
-39.8898	-33.4432	1.88647
-39.8901	-32.6745	1.90601
-39.8873	-25.9829	1.92554
-39.88665	-28.5571	1.94507
-39.88353	-29.8684	1.9646
-39.8833	-22.5097	1.98413
-39.8816	-23.4156	2.00366
-39.8802	-27.53318	2.02319
-39.8782	-20.07229	2.04272
-39.8761	-21.893	2.06226
-39.8739	-26.7717	2.08179
-39.8726	-19.2294	2.10132
-39.8713	-15.3704	2.12085
-39.8713	-19.1446	2.14038
-39.8684	-15.1932	2.15991
-39.8662	-15.1607	2.17944
-39.8642	-15.7706	2.19897
-39.86322	-14.9275	2.21851
-39.8615	-8.73866	2.23804
-39.8589	-13.78132	2.25757
-39.8592	-10.8761	2.2771
-39.8567	-9.25423	2.29663
-39.8566	-5.9023	2.31616
-39.8547	-10.70993	2.33569
-39.8515	-2.68192	2.35522
-39.8512	-3.40596	2.37476
-39.8487	-5.089407	2.39429
-39.8473	-6.10034	2.41382
-39.8454	1.64479	2.43335
-39.8445	-3.69719	2.45288
-39.8415	-0.167254	2.47241
-39.8391	4.37382	2.49194
-39.8388	1.24344	2.51147
-39.8371	-2.88685	2.53101
-39.8348	8.515481	2.55054
-39.8332	5.54201	2.57007
-39.832	5.028018	2.5896
-39.831	11.2834	2.60913
-39.8286	8.67381	2.62866
-39.8275	5.93907	2.64819
-39.8268	13.9049	2.66772
-39.8236	13.4076	2.68726
-39.8228	9.11776	2.70679
-39.8202	17.0492	2.72632
-39.8187	16.0968	2.74585
-39.8182	11.0059	2.76538
-39.8158	15.9059	2.78491
-39.8143	22.0662	2.80444
-39.81385	15.8463	2.82397
-39.8095	19.0096	2.84351
-39.8095	21.2386	2.86304
-39.8078	21.157	2.88257
-39.8072	22.06185	2.9021
-39.8047	29.0829	2.92163
-39.8033	24.9453	2.94116
-39.8015	24.3686	2.96069
-39.8009	26.9301	2.98022
-39.7987	32.7661	2.99976
-39.7955	26.0457	3.01929
-39.7959	30.8583	3.03882
-39.7927	34.0871	3.05835
-39.7909	31.7011	3.07788
-39.7907	30.5948	3.09741
-39.7887	38.9462	3.11694
-39.7862	32.6225	3.13647
-39.785	36.9583	3.15601
-39.7831	41.54752	3.17554
-39.78204	38.5704	3.19507
-39.781	33.6265	3.2146
-39.7795	44.9316	3.23413
-39.7776	41.4946	3.25366
-39.7746	39.2383	3.27319
-39.7726	45.911	3.29272
-39.7716	43.7067	3.31226
-39.7711	40.7919	3.33179
-39.7687	49.40279	3.35132
-39.7681	50.1658	3.37085
-39.7652	44.6398	3.39038
-39.7634	51.0586	3.40991
-39.7631	52.66568	3.42944
-39.7603	49.531	3.44897
-39.7587	50.0059	3.46851
-39.7583	57.883	3.48804
-39.7553	53.2316	3.50757
-39.7543	55.2244	3.5271
-39.7538	56.1902	3.54663
-39.7509	57.83984	3.56616
-39.74826	56.3015	3.58569
-39.7467	63.9792	3.60522
-39.7463	61.7382	3.62476
-39.7446	59.5737	3.64429
-39.7437	60.0702	3.66382
-39.74139	68.9255	3.68335
-39.7386	62.1885	3.70288
-39.7369	65.429	3.72241
-39.7368	70.4627	3.74194
-39.7345	67.2004	3.76147
-39.7336	65.261	3.78101
-39.7307	74.8759	3.80054
-39.7294	68.517	3.82007
-39.7285	70.9903	3.8396
-39.7262	78.155	3.85913
-39.7253	75.03653	3.87866
-39.7234	69.446	3.89819
-39.7226	80.8092	3.91772
-39.7203	78.9249	3.93726
-39.7181	75.7105	3.95679
-39.7168	81.6609	3.97632
-39.7157	80.9952	3.99585
-39.7142	78.15	4.01538
-39.7113	83.43425	4.03491
-39.71	88.4107	4.05444
-39.7091	82.1386	4.07397
-39.7075	86.8037	4.09351
-39.7062	88.625	4.11304
-39.7039	87.58326	4.13257
-39.7022	86.6952	4.1521
-39.70097	93.5564	4.17163
-39.6985	91.6731	4.19116
-39.6973	91.2343	4.21069
-39.6963	92.8787	4.23022
-39.6932	95.0953	4.24976
-39.6932	92.3527	4.26929
-39.6904	99.806	4.28882
-39.6893	100.569	4.30835
-39.6884	96.3708	4.32788
-39.6861	96.9042	4.34741
-39.6848	107.605	4.36694
-39.6822	99.1703	4.38647
-39.682	100.887	4.40601
-39.6809	106.848	4.42554
-39.6774	103.629	4.44507
-39.6768	100.569	4.4646
-39.6745	110.8706	4.48413
-39.6726	107.559	4.50366
-39.6717	107.316	4.52319
-39.6698	111.828	4.54272
-39.6681	112.323	4.56226
-39.6659	106.142	4.58179
-39.6652	114.378	4.60132
-39.6633	117.078	4.62085
-39.6618	112.268	4.64038
-39.6598	116.044	4.65991
-39.6589	118.642	4.67944
-39.6551	115.052	4.69897
-39.6546	119.027	4.71851
-39.6533	125.894	4.73804
-39.6519	119.419	4.75757
-39.6506	119.544	4.7771
-39.6488	124.308	4.79663
-39.6467	125.452	4.81616
-39.6459	121.8331	4.83569
-39.6439	129.933	4.85522
-39.6424	128.343	4.87476
-39.6391	127.669	4.89429
-39.6397	128.791	4.91382
-39.63662	132.245	4.93335
-39.6342	127.424	4.95288
-39.6333	134.56	4.97241
-39.6323	137.478	4.99194
-39.6304	132.5446	5.01147
-39.6299	130.035	5.03101
-39.6277	140.859	5.05054
-39.6255	135.922	5.07007
-39.6241	137.601	5.0896
-39.6226	140.686	5.10913
-39.621	140.164	5.12866
-39.6186	134.797	5.14819
-39.6181	146.036	5.16772
-39.6167	143.813	5.18726
-39.6132	139.637	5.20679
-39.6128	147.803	5.22632
-39.6113	148.543	5.24585
-39.6104	142.848	5.26538
-39.6085	145.9039	5.28491
-39.6042	152.755	5.30444
-39.6046	149.431	5.32397
-39.604	150.791	5.34351
-39.6005	153.016	5.36304
-39.5999	150.464	5.38257
-39.5982	153.336	5.4021
-39.5974	158.256	5.42163
-39.59573	155.435	5.44116
-39.594	154.473	5.46069
-39.5927	157.088	5.48022
-39.5904	161.216	5.49976
-39.5894	155.83	5.51929
-39.5868	162.133	5.53882
-39.58577	164.369	5.55835
-39.58424	161.6	5.57788
-39.5807	160.735	5.59741
-39.5799	168.798	5.61694
-39.5793	163.234	5.63647
-39.5781	165.581	5.65601
-39.5753	172.229	5.67554
-39.5749	168.581	5.69507
-39.5709	163.023	5.7146
-39.5711	175.302	5.73413
-39.5684	171.561	5.75366
-39.5674	170.153	5.77319
-39.5648	176.3544	5.79272
-39.5636	175.894	5.81226
-39.5625	168.8618	5.83179
-39.56	178.644	5.85132
-39.5593	180.1189	5.87085
-39.5571	173.551	5.89038
-39.5565	180.135	5.90991
-39.5549	181.791	5.92944
-39.5512	176.2218	5.94897
-39.5504	179.577	5.96851
-39.54887	186.396	5.98804
-39.5476	182.933	6.00757
-39.5472	183.654	6.0271
-39.544	187.431	6.04663
-39.5439	185.865	6.06616
-39.5407	185.914	6.08569
-39.5402	191.954	6.10522
-39.5374	191.543	6.12476
-39.5365	189.976	6.14429
-39.5348	190.902	6.16382
-39.533	196.515	6.18335
-39.5308	192.054	6.20288
-39.5297	196.4138	6.22241
-39.5284	199.871	6.24194
-39.52726	195.802	6.26147
-39.5263	193.6917	6.28101
-39.5226	205	6.30054
-39.5207	198.815	6.32007
-39.5207	199.074	6.3396
-39.51862	206.166	6.35913
-39.5167	204.456	6.37866
-39.5137	198.12	6.39819
-39.5143	208.577	6.41772
-39.5118	207.276	6.43726
-39.5084	205.292	6.45679
-39.51004	208.305	6.47632
-39.5074	211.616	6.49585
-39.5052	204.451	6.51538
-39.5028	212.736	6.53491
-39.5024	216.348	6.55444
-39.5006	210.585	6.57397
-39.4984	212.723	6.59351
-39.4973	216.319	6.61304
-39.4953	213.1205	6.63257
-39.49374	214.145	6.6521
-39.4924	220.131	6.67163
-39.491	218.402	6.69116
-39.4895	216.187	6.71069
-39.4882	220.824	6.73022
-39.4866	222.044	6.74976
-39.4841	217.457	6.76929
-39.4828	226.151	6.78882
-39.4815	227.397	6.80835
-39.48064	222.387	6.82788
-39.4777	221.963	6.84741
-39.4759	232.086	6.86694
-39.4745	224.912	6.88647
-39.4732	228.249	6.90601
-39.4715	233.96	6.92554
-39.4704	232.007	6.94507
-39.46814	226.9592	6.9646
-39.4666	238.966	6.98413
-39.4638	233.165	7.00366
-39.4622	231.363	7.02319
-39.4619	238.335	7.04272
-39.4589	239.6402	7.06226
-39.4587	232.427	7.08179
-39.45742	240.203	7.10132
-39.4547	243.5553	7.12085
-39.4533	238.998	7.14038
-39.4503	241.248	7.15991
-39.4505	246.041	7.17944
-39.44952	237.193	7.19897
-39.446	243.6974	7.21851
-39.4447	249.938	7.23804
-39.4432	245.554	7.25757
-39.4414	244.7919	7.2771
-39.44	249.176	7.29663
-39.4388	248.927	7.31616
-39.43819	248.478	7.33569
-39.4351	253.795	7.35522
-39.4339	251.6	7.37476
-39.4317	251.77	7.39429
-39.4312	254.145	7.41382
-39.4287	257.323	7.43335
-39.4265	252.541	7.45288
-39.4253	257.218	7.47241
-39.4247	262.638	7.49194
-39.4224	258.309	7.51147
-39.4215	254.685	7.53101
-39.4202	265.087	7.55054
-39.4169	259.059	7.57007
-39.41571	260.9537	7.5896
-39.4143	266.596	7.60913
-39.4121	266.224	7.62866
-39.4107	258.169	7.64819
-39.4108	270.744	7.66772
-39.4084	268.925	7.68726
-39.4059	265.826	7.70679
-39.4036	271.553	7.72632
-39.4031	273.161	7.74585
-39.4013	266.9328	7.76538
-39.3993	273.622	7.78491
-39.3984	275.319	7.80444
-39.3975	272.476	7.82397
-39.3957	274.384	7.84351
-39.39283	277.925	7.86304
-39.3919	273.303	7.88257
-39.3895	275.8	7.9021
-39.3882	284.186	7.92163
-39.387	279.8381	7.94116
-39.3849	276.859	7.96069
-39.3834	280.213	7.98022
-39.3816	284.06	7.99976
-39.3795	280.153	8.01929
-39.3766	284.581	8.03882
-39.3765	287.805	8.05835
-39.3749	284.288	8.07788
-39.373	285.166	8.09741
-39.3715	290.95	8.11694
-39.3706	284.75	8.13647
-39.36945	289.279	8.15601
-39.3666	295.572	8.17554
-39.3658	291.912	8.19507
-39.3629	285.589	8.2146
-39.3629	298.064	8.23413
-39.3602	293.2533	8.25366
-39.3591	293.861	8.27319
-39.3571	298.236	8.29272
-39.356	299.426	8.31226
-39.3539	290.696	8.33179
-39.3529	302.144	8.35132
-39.3509	301.806	8.37085
-39.3494	297.867	8.39038
-39.3481	301.205	8.40991
-39.3465	304.901	8.42944
-39.344	298.836	8.44897
-39.3428	303.9	8.46851
-39.3414	307.894	8.48804
-39.33868	303.388	8.50757
-39.3377	306.187	8.5271
-39.336	309.222	8.54663
-39.335	306.898	8.56616
-39.3318	307.081	8.58569
-39.3317	313.856	8.60522
-39.3293	312.413	8.62476
-39.3286	309.36	8.64429
-39.3259	312.814	8.66382
-39.3249	315.871	8.68335
-39.3226	312.235	8.70288
-39.3227	317.416	8.72241
-39.3203	319.925	8.74194
-39.318	315.7793	8.76147
-39.3161	315.343	8.78101
-39.3152	324.792	8.80054
-39.3131	316.804	8.82007
-39.311	318.377	8.8396
-39.3106	326.759	8.85913
-39.3086	324.857	8.87866
-39.3061	316.865	8.89819
-39.305	327.46	8.91772
-39.3042	326.456	8.93726
-39.3033	323.258	8.95679
-39.30077	330.807	8.97632
-39.2989	331.19	8.99585
-39.2969	321.896	9.01538
-39.2947	332.619	9.03491
-39.2942	333.703	9.05444
-39.2923	329.913	9.07397
-39.2906	331.601	9.09351
-39.2888	336.0769	9.11304
-39.2874	330.446	9.13257
-39.286	334.113	9.1521
-39.2841	339.146	9.17163
-39.2827	335.979	9.19116
-39.2808	335.413	9.21069
-39.2789	338.911	9.23022
-39.2767	337.876	9.24976
-39.2769	335.433	9.26929
-39.27346	341.459	9.28882
-39.2733	345.053	9.30835
-39.2707	341.961	9.32788
-39.2697	340.198	9.34741
-39.2677	346.633	9.36694
-39.2664	342.775	9.38647
-39.2644	347.855	9.40601
-39.263	351.265	9.42554
-39.261	346.978	9.44507
-39.2593	343.629	9.4646
-39.2582	354.253	9.48413
-39.25695	349.517	9.50366
-39.2542	348.386	9.52319
-39.2532	354.997	9.54272
-39.2519	356.906	9.56226
-39.25037	347.544	9.58179
-39.2482	357.032	9.60132
-39.2472	358.129	9.62085
-39.2454	354.663	9.64038
-39.2434	359.431	9.65991
-39.2411	361.495	9.67944
-39.2403	352.9617	9.69897
-39.2383	359.7417	9.71851
-39.2371	364.005	9.73804
-39.2355	360.043	9.75757
-39.2339	359.3103	9.7771
-39.2313	365.772	9.79663
-39.2297	363.022	9.81616
-39.22834	362.067	9.83569
-39.2268	368.372	9.85522
-39.225	366.773	9.87476
-39.2256	363.564	9.89429
-39.2221	368.526	9.91382
-39.2208	372.736	9.93335
-39.219	364.565	9.95288
-39.2184	370.256	9.97241
-39.2163	375.071	9.99194
-39.21384	370.772	10.0115
-39.2132	367.247	10.031
-39.2113	378.727	10.0505
-39.2082	373.306	10.0701
-39.2084	373.606	10.0896
-39.2055	380.622	10.1091
-39.20433	379.147	10.1287
-39.2022	373.125	10.1482
-39.2016	384.955	10.1677
-39.1987	381.019	10.1873
-39.1985	377.909	10.2068
-39.1965	382.13	10.2263
-39.1945	385.619	10.24585
-39.1929	377.477	10.2654
-39.1916	384.422	10.2849
-39.1898	386.355	10.3044
-39.1887	385.058	10.324
-39.1855	386.429	10.3435
-39.1852	390.2934	10.363
-39.18288	383.2	10.3826
-39.1817	387.852	10.4021
-39.1802	394.094	10.4216
-39.17878	392.031	10.4412
-39.1757	388.256	10.4607
-39.1758	391.9704	10.4802
-39.1734	393.124	10.4998
-39.1719	390.033	10.5193
-39.17067	395.73	10.5388
-39.1693	396.46	10.55835
-39.1669	392.916	10.5779
-39.1636	394.501	10.5974
-39.1637	402.223	10.6169
-39.1618	394.522	10.6365
-39.1611	397.298	10.656
-39.1589	403.094	10.6755
-39.1568	401.085	10.6951
-39.1551	394.35	10.7146
-39.1549	406.417	10.7341
-39.15181	402.562	10.7537
-39.1501	400.894	10.7732
-39.1487	407.7	10.7927
-39.1479	405.949	10.8123
-39.1464	399.449	10.8318
-39.1444	408.683	10.8513
-39.1427	411.1311	10.87085
-39.1402	404.613	10.8904
-39.1393	408.391	10.9099
-39.1381	412.912	10.9294
-39.1376	404.798	10.949
-39.1349	410.518	10.9685
-39.1324	414.141	10.988
-39.1304	409.969	11.0076
-39.1302	410.908	11.0271
-39.1288	415.456	11.0466
-39.1263	411.619	11.0662
-39.1252	412.434	11.0857
-39.1234	417.629	11.1052
-39.1217	417.617	11.1248
-39.1197	413.455	11.1443
-39.1186	416.553	11.1638
-39.1168	420.536	11.18335
-39.1155	415.62	11.2029
-39.1137	420.949	11.2224
-39.1118	424.019	11.2419
-39.10955	420.155	11.2615
-39.10915	419.502	11.281
-39.1072	427.749	11.3005
-39.1047	420.427	11.3201
-39.10376	422.721	11.3396
-39.1029	428.123	11.3591
-39.101	427.6763	11.3787
-39.098	419.3934	11.3982
-39.0968	430.157	11.4177
-39.0951	426.435	11.4373
-39.0936	426.303	11.4568
-39.0929	430.626	11.4763
-39.0908	433.413	11.49585
-39.0894	423.382	11.5154
-39.087	432.6326	11.5349
-39.0859	433.959	11.5544
-39.0838	430.249	11.574
-39.0819	430.651	11.5935
-39.08131	435.793	11.613
-39.0785	429.753	11.6326
-39.0775	432.017	11.6521
-39.07542	437.637	11.6716
-39.074	435.145	11.6912
-39.07375	435.257	11.7107
-39.0713	439.021	11.7302
-39.0701	437.405	11.7498
-39.0677	434.524	11.7693
-39.0667	439.372	11.7888
-39.0648	441.531	11.80835
-39.0632	437.87	11.8279
-39.0615	437.475	11.8474
-39.0594	443.32	11.8669
-39.058	438.953	11.8865
-39.0566	442.359	11.906
-39.0545	445.77	11.9255
-39.053	441.186	11.9451
-39.0521	438.536	11.9646
-39.0492	449.529	11.9841
-39.0466	445.787	12.0037
-39.0462	442.047	12.0232
-39.0453	448.373	12.0427
-39.043	449.968	12.0623
-39.0417	440.2973	12.0818
-39.0399	449.895	12.1013
-39.0373	450.597	12.12085
-39.0366	445.8587	12.1404
-39.0353	449.5162	12.1599
-39.0336	452.844	12.1794
-39.0321	445.367	12.199
-39.0304	449.789	12.2185
-39.0288	455.3045	12.238
-39.0266	451.033	12.2576
-39.0253	450.719	12.2771
-39.0237	455.053	12.2966
-39.0219	452.033	12.3162
-39.0212	451.492	12.3357
-39.0184	456.196	12.3552
-39.0176	456.415	12.3748
-39.0164	452.737	12.3943
-39.0148	455.506	12.4138
-39.0126	458.522	12.43335
-39.0113	451.594	12.4529
-39.0084	459.88	12.4724
-39.0069	462.756	12.4919
-39.0065	457.753	12.5115
-39.0042	452.557	12.531
-39.0025	462.493	12.5505
-39.001	457.58	12.5701
-38.9985	458.6481	12.5896
-38.998	464.481	12.6091
-38.9958	461.699	12.6287
-38.9947	455.445	12.6482
-38.9927	465.565	12.6677
-38.9914	463.242	12.6873
-38.9889	459.9639	12.7068
-38.988	463.909	12.7263
-38.98568	466.81	12.74585
-38.9841	456.729	12.7654
-38.9826	465.073	12.7849
-38.9806	467.167	12.8044
-38.98	462.339	12.824
-38.9782	464.26	12.8435
-38.9775	467.616	12.863
-38.97472	461.145	12.8826
-38.97374	464.821	12.9021
-38.972	469.519	12.9216
-38.9692	468.25	12.9412
-38.9685	463.892	12.9607
-38.9664	467.694	12.9802
-38.9648	468.323	12.9998
-38.9621	463.4548	13.0193
-38.96209	467.876	13.0388
-38.9596	469.04	13.05835
-38.958	466.81	13.0779
-38.9567	466.726	13.0974
-38.9562	472.169	13.1169
-38.9545	466.408	13.1365
-38.9526	469.831	13.156
-38.95076	473.729	13.1755
-38.94878	470.096	13.1951
-38.9484	464.24	13.2146
-38.9457	474.899	13.2341
-38.9453	470.923	13.2537
-38.9416	467.888	13.2732
-38.9411	473.046	13.2927
-38.9396	473.596	13.3123
-38.93784	465.062	13.3318
-38.9368	474.513	13.3513
-38.934	473.4086	13.37085
-38.9318	468.764	13.3904
-38.9303	471.608	13.4099
-38.928	476.312	13.4294
-38.9279	467.921	13.449
-38.9257	470.885	13.4685
-38.9242	475.113	13.488
-38.923	472.188	13.5076
-38.9206	471.605	13.5271
-38.9193	475.019	13.5466
-38.9172	470.264	13.5662
-38.9164	470.911	13.5857
-38.9146	474.366	13.6052
-38.913	475.036	13.6248
-38.9109	470.845	13.6443
-38.9088	473.488	13.6638
-38.90876	475.6073	13.68335
-38.90609	472.084	13.7029
-38.9046	474.262	13.7224
-38.9034	476.136	13.7419
-38.9019	472.985	13.7615
-38.9003	469.726	13.781
-38.8986	478.433	13.8005
-38.897	471.37	13.8201
-38.8955	472.564	13.8396
-38.8945	476.799	13.8591
-38.8918	475.914	13.8787
-38.8898	468.133	13.8982
-38.8881	478.445	13.9177
-38.8871	474.9194	13.9373
-38.8852	472.406	13.9568
-38.8842	476.291	13.9763
-38.8815	477.685	13.99585
-38.8803	467.991	14.0154
-38.8791	475.782	14.0349
-38.8774	476.979	14.0544
-38.8768	471.138	14.074
-38.87447	473.898	14.0935
-38.8727	479.206	14.113
-38.8705	471.344	14.1326
-38.8686	470.974	14.1521
-38.8671	476.279	14.1716
-38.8656	472.664	14.1912
-38.8646	472.537	14.2107
-38.863	475.486	14.2302
-38.8616	473.156	14.2498
-38.8599	469.029	14.2693
-38.8584	474.676	14.2888
-38.8562	476.5513	14.30835
-38.8547	471.104	14.3279
-38.8538	470.967	14.3474
-38.8508	476.15	14.3669
-38.8494	470.901	14.3865
-38.8485	472.049	14.406
-38.8461	477.478	14.4255
-38.84454	472.905	14.4451
-38.84351	468.85	14.4646
-38.8417	477.826	14.4841
-38.8396	470.699	14.5037
-38.8384	470.046	14.5232
-38.8364	475.698	14.5427
-38.8356	475.698	14.5623
-38.8324	465.098	14.5818
-38.8314	475.053	14.6013
-38.8288	474.555	14.62085
-38.8278	469.494	14.6404
-38.8275	471.683	14.6599
-38.8248	474.2822	14.6794
-38.8238	466.926	14.699
-38.822	471.252	14.7185
-38.82	475.2063	14.738
-38.8186	469.887	14.7576
-38.81831	469.064	14.7771
-38.8159	473.211	14.7966
-38.8142	469.276	14.8162
-38.8123	466.365	14.8357
-38.80994	473.821	14.8552
-38.8085	470.47	14.8748
-38.8069	469.163	14.8943
-38.8051	469.066	14.9138
-38.8043	471.142	14.93335
-38.8029	467.09	14.9529
-38.8008	470.458	14.9724
-38.8005	473.335	14.9919
-38.79702	468.259	15.0115
-38.7961	463.756	15.031
-38.7929	473.342	15.0505
-38.793	467.359	15.0701
-38.7916	466.948	15.0896
-38.7894	472.131	15.1091
-38.7879	469.168	15.1287
-38.7857	462.976	15.1482
-38.7842	471.22	15.1677
-38.7826	468.601	15.1873
-38.7823	464.595	15.2068
-38.7795	469.516	15.2263
-38.7771	470.777	15.24585
-38.7762	462.657	15.2654
-38.77512	466.844	15.2849
-38.7744	470.341	15.3044
-38.7714	464.064	15.324
-38.7698	465.44	15.3435
-38.7678	468.085	15.363
-38.7666	464.322	15.3826
-38.7654	464.211	15.4021
-38.76371	469.405	15.4216
-38.7615	465.925	15.4412
-38.7607	462.539	15.4607
-38.7584	466.112	15.4802
-38.7567	466.307	15.4998
-38.7551	460.567	15.5193
-38.7539	465.375	15.5388
-38.7519	467.148	15.55835
-38.7506	462.538	15.5779
-38.7499	461.5853	15.5974
-38.7479	469.343	15.6169
-38.7456	459.556	15.6365
-38.7435	463.932	15.656
-38.7438	467.374	15.6755
-38.7407	464.078	15.6951
-38.7401	457.142	15.7146
-38.7378	468.717	15.7341
-38.7361	463.314	15.7537
-38.7331	460.713	15.7732
-38.73243	466.096	15.7927
-38.7314	465.5141	15.8123
-38.7303	457.213	15.8318
-38.72723	466.151	15.8513
-38.7255	464.792	15.87085
-38.7238	458.385	15.8904
-38.7232	462.715	15.9099
-38.7215	465.8	15.9294
-38.7196	458.475	15.949
-38.7181	459.809	15.9685
-38.7161	465.162	15.988
-38.7144	460.542	16.0076
-38.714	461.128	16.0271
-38.7103	462.81	16.0466
-38.7101	460.036	16.0662
-38.7081	458.151	16.0857
-38.7063	464.983	16.1052
-38.7056	461.986	16.1248
-38.7032	458.097	16.1443
-38.7022	458.823	16.1638
-38.7005	466.871	16.18335
-38.6978	458.173	16.2029
-38.6953	461.146	16.2224
-38.6956	462.4137	16.2419
-38.6932	459.275	16.2615
-38.6925	457.253	16.281
-38.6912	465.105	16.3005
-38.6887	457.158	16.3201
-38.6875	459.131	16.3396
-38.6847	464.3472	16.3591
-38.6831	459.953	16.3787
-38.6822	453.051	16.3982
-38.6812	462.506	16.4177
-38.6786	461.518	16.4373
-38.6787	457.927	16.4568
-38.6758	460.942	16.4763
-38.6742	462.242	16.49585
-38.6712	454.182	16.5154
-38.6716	459.648	16.5349
-38.6695	461.4455	16.5544
-38.6684	456.001	16.574
-38.6651	458.196	16.5935
-38.6638	461.818	16.613
-38.6618	456.29	16.6326
-38.6605	454.909	16.6521
-38.6586	461.518	16.6716
-38.6582	458.753	16.6912
-38.6562	458.542	16.7107
-38.654	457.428	16.7302
-38.6528	458.645	16.7498
-38.652	453.6076	16.7693
-38.6491	461.39	16.7888
-38.6477	462.298	16.80835
-38.6459	455.26	16.8279
-38.6461	454.05	16.8474
-38.6425	462.722	16.8669
-38.6413	457.636	16.8865
-38.6399	457.63	16.906
-38.6389	460.297	16.9255
-38.6368	457.241	16.9451
-38.6355	452.737	16.9646
-38.63369	462.524	16.9841
-38.6325	455.742	17.0037
-38.6306	454.402	17.0232
-38.6279	461.05	17.0427
-38.6271	459.241	17.0623
-38.6257	449.232	17.0818
-38.6234	458.59	17.1013
-38.6219	459.922	17.12085
-38.6202	454.0473	17.1404
-38.618	457.734	17.1599
-38.617	456.495	17.1794
-38.6159	452.328	17.199
-38.6138	455.671	17.2185
-38.6117	459.82	17.238
-38.611	452.47	17.2576
-38.6091	453.891	17.2771
-38.6072	459.604	17.2966
-38.6052	454.937	17.3162
-38.6037	453.003	17.3357
-38.6028	458.132	17.3552
-38.6012	456.61	17.3748
-38.5979	455.155	17.3943
-38.5974	454.13	17.4138
-38.5965	458.075	17.43335
-38.5948	450.937	17.4529
-38.5931	457.123	17.4724
-38.591	458.936	17.4919
-38.5891	453.919	17.5115
-38.5878	450.315	17.531
-38.5862	459.646	17.5505
-38.5843	454.548	17.5701
-38.5828	453.824	17.5896
-38.58091	459.461	17.6091
-38.5797	457.3931	17.6287
-38.57782	449.171	17.6482
-38.5756	458.507	17.6677
-38.5746	455.254	17.6873
-38.5718	450.898	17.7068
-38.5727	456.108	17.7263
-38.5695	457.333	17.74585
-38.5692	449.433	17.7654
-38.5664	454.447	17.7849
-38.5644	459.091	17.8044
-38.5634	451.982	17.824
-38.5616	453.645	17.8435
-38.5603	455.698	17.863
-38.5578	452.422	17.8826
-38.5564	453.504	17.9021
-38.5546	457.1478	17.9216
-38.554	454.297	17.9412
-38.5521	451.774	17.9607
-38.5504	453.5	17.9802
-38.5477	456.061	17.9998
-38.5475	450.0119	18.0193
-38.5454	456.045	18.0388
-38.5441	456.7876	18.05835
-38.5422	451.841	18.0779
-38.541	450.06	18.0974
-38.539	457.054	18.1169
-38.5374	449.339	18.1365
-38.5369	452.989	18.156
-38.5342	457.701	18.1755
-38.5326	453.0108	18.1951
-38.5315	447.859	18.2146
-38.5294	458.157	18.2341
-38.5266	453.994	18.2537
-38.5262	451.959	18.2732
-38.5241	454.3804	18.2927
-38.522	455.658	18.3123
-38.5215	448.241	18.3318
-38.5194	455.529	18.3513
-38.5174	454.083	18.37085
-38.5159	450.4032	18.3904
-38.5135	455.131	18.4099
-38.5118	457.574	18.4294
-38.5096	449.03	18.449
-38.5096	451.968	18.4685
-38.5074	457.735	18.488
-38.507	452.486	18.5076
-38.5048	453.026	18.5271
-38.50174	453.779	18.5466
-38.5019	453.746	18.5662
-38.5006	449.401	18.5857
-38.4982	457.7731	18.6052
-38.4963	455.855	18.6248
-38.4955	449.951	18.6443
-38.4936	451.2088	18.6638
-38.49136	456.641	18.68335
-38.48999	449.059	18.7029
-38.4883	452.971	18.7224
-38.4857	456.949	18.7419
-38.48484	453.716	18.7615
-38.4825	448.7001	18.781
-38.4819	457.47	18.8005
-38.4805	449.256	18.8201
-38.4798	450.842	18.8396
-38.4771	458.327	18.8591
-38.4758	453.57	18.8787
-38.474	445.8909	18.8982
-38.4726	456.1553	18.9177
-38.4696	454.251	18.9373
-38.468	449.466	18.9568
-38.4671	453.831	18.9763
-38.466	454.638	18.99585
-38.464	447.559	19.0154
-38.4627	454.247	19.0349
-38.4605	456.874	19.0544
-38.4592	448.552	19.074
-38.456	452.809	19.0935
-38.4564	455.631	19.113
-38.4547	449.78	19.1326
-38.4522	449.805	19.1521
-38.4497	456.241	19.1716
-38.4496	454.596	19.1912
-38.4475	451	19.2107
-38.4463	452.156	19.2302
-38.44455	454.131	19.2498
-38.4426	449.377	19.2693
-38.4409	454.554	19.2888
-38.4384	456.513	19.30835
-38.4377	448.971	19.3279
-38.4365	448.668	19.3474
-38.4346	457.3924	19.3669
-38.4331	449.572	19.3865
-38.4324	450.569	19.406
-38.4302	455.684	19.4255
-38.4284	452.344	19.4451
-38.4271	446.573	19.4646
-38.4254	455.468	19.4841
-38.4229	451.345	19.5037
-38.4228	449.938	19.5232
-38.4215	455.761	19.5427
-38.41819	453.094	19.5623
-38.4169	445.308	19.5818
-38.4152	454.059	19.6013
-38.413	456.001	19.62085
-38.4128	449.241	19.6404
-38.4095	452.818	19.6599
-38.4078	452.3663	19.6794
-38.4071	447.5643	19.699
-38.40509	450.736	19.7185
-38.404	454.258	19.738
-38.4026	449.138	19.7576
-38.4006	450.927	19.7771
-38.3982	451.762	19.7966
-38.3972	452.056	19.8162
-38.3955	447.441	19.8357
-38.3938	454.242	19.8552
-38.3919	453.966	19.8748
-38.391	449.346	19.8943
-38.3892	450.091	19.9138
-38.3881	454.215	19.93335
-38.3862	447.79	19.9529
-38.3837	451.311	19.9724
-38.3818	456.334	19.9919
-38.3806	449.865	20.0115
-38.3808	448.771	20.02124

Data Header:			0.254_solid_dimension_typeiv_090_r0			Time:	36.23584	s	4/14/2019 1:45:16 AM
Data Acquisition:	Timed
Station Name:	ft40.cfg
Test File Name:	monotonic_0.2540_typeiv_solid_090_dimension.tst
Displacement	Force	Running Time
mm	N	s
-38.3797	446.711	20.031
-38.3777	456.232	20.0505
-38.3768	449.727	20.0701
-38.3737	448.662	20.0896
-38.3741	454.231	20.1091
-38.3711	451.462	20.1287
-38.37019	445.953	20.1482
-38.3689	454.1731	20.1677
-38.3662	451.975	20.1873
-38.36499	446.246	20.2068
-38.3622	455.001	20.2263
-38.3622	452.146	20.24585
-38.3595	445.677	20.2654
-38.3583	451.0766	20.2849
-38.35535	454.909	20.3044
-38.3559	448.2702	20.324
-38.3537	450.377	20.3435
-38.3516	452.752	20.363
-38.3495	450.327	20.3826
-38.3479	449.153	20.4021
-38.3475	454.903	20.4216
-38.3456	451.252	20.4412
-38.3434	450.7085	20.4607
-38.3417	450.9451	20.4802
-38.3402	454.313	20.4998
-38.3396	445.849	20.5193
-38.3374	452.3367	20.5388
-38.3351	454.478	20.55835
-38.3347	449.922	20.5779
-38.3321	446.115	20.5974
-38.3307	455.203	20.6169
-38.3281	447.423	20.6365
-38.3275	450.806	20.656
-38.32526	454.087	20.6755
-38.32473	450.003	20.6951
-38.3226	444.608	20.7146
-38.32029	455.749	20.7341
-38.31897	451.69	20.7537
-38.31691	447.354	20.7732
-38.3152	454.203	20.7927
-38.3146	451.4639	20.8123
-38.3127	445.121	20.8318
-38.3105	452.03	20.8513
-38.31	451.805	20.87085
-38.3075	446.378	20.8904
-38.3058	452.305	20.9099
-38.3044	450.306	20.9294
-38.3028	446.924	20.949
-38.301	450.13	20.9685
-38.2988	455.608	20.988
-38.29842	450.007	21.0076
-38.2967	448.811	21.0271
-38.2952	449.529	21.0466
-38.2932	451.89	21.0662
-38.2921	447.633	21.0857
-38.2899	454.0206	21.1052
-38.2892	452.493	21.1248
-38.2863	447.855	21.1443
-38.2851	450.721	21.1638
-38.2828	456.374	21.18335
-38.2811	446.004	21.2029
-38.2799	450.942	21.2224
-38.2787	455.49	21.2419
-38.2776	448.355	21.2615
-38.27623	444.459	21.281
-38.2741	454.139	21.3005
-38.2715	449.421	21.3201
-38.26931	450.267	21.3396
-38.2684	454.942	21.3591
-38.2688	449.639	21.3787
-38.2649	445.37	21.3982
-38.2637	454.343	21.4177
-38.2615	454.449	21.4373
-38.26	445.646	21.4568
-38.2581	451.434	21.4763
-38.2565	451.136	21.49585
-38.256	446.895	21.5154
-38.2533	448.8443	21.5349
-38.2522	453.606	21.5544
-38.2507	448.497	21.574
-38.2501	450.746	21.5935
-38.2478	452.164	21.613
-38.2439	449.9234	21.6326
-38.2442	447.508	21.6521
-38.24234	454.9848	21.6716
-38.2407	452.458	21.6912
-38.23933	448.402	21.7107
-38.2391	449.653	21.7302
-38.2359	454.766	21.7498
-38.2351	445.593	21.7693
-38.2324	452.3653	21.7888
-38.2312	453.972	21.80835
-38.2299	448.605	21.8279
-38.2279	446.987	21.8474
-38.22673	455.9491	21.8669
-38.2239	447.45	21.8865
-38.2233	449.045	21.906
-38.2213	455.191	21.9255
-38.2199	449.006	21.9451
-38.2185	445.101	21.9646
-38.21619	453.541	21.9841
-38.2157	451.448	22.0037
-38.2137	447.606	22.0232
-38.2122	453.434	22.0427
-38.2108	449.169	22.0623
-38.208	444.357	22.0818
-38.20591	451.834	22.1013
-38.205	455.408	22.12085
-38.2045	446.2114	22.1404
-38.2018	450.311	22.1599
-38.2001	450.621	22.1794
-38.1982	448.85	22.199
-38.1964	448.167	22.2185
-38.1966	454.593	22.238
-38.1933	450.33	22.2576
-38.1918	450.834	22.2771
-38.1916	450.143	22.2966
-38.1889	451.087	22.3162
-38.1871	445.123	22.3357
-38.1845	454.764	22.3552
-38.1839	452.3	22.3748
-38.1839	446.535	22.3943
-38.1798	446.283	22.4138
-38.1793	454.597	22.43335
-38.1769	448.056	22.4529
-38.1759	449.718	22.4724
-38.1745	454.67	22.4919
-38.1727	448.045	22.5115
-38.1713	444.887	22.531
-38.1693	455.092	22.5505
-38.1687	449.2356	22.5701
-38.1668	445.71	22.5896
-38.1643	454.665	22.6091
-38.1621	449.233	22.6287
-38.1606	443.913	22.6482
-38.1591	452.407	22.6677
-38.1586	452.858	22.6873
-38.1565	447.907	22.7068
-38.1537	452.826	22.7263
-38.1531	452.116	22.74585
-38.1519	447.081	22.7654
-38.1497	450.9209	22.7849
-38.1478	455.384	22.8044
-38.1465	448.7326	22.824
-38.1449	449.917	22.8435
-38.1437	451.769	22.863
-38.1417	450.21	22.8826
-38.13942	447.568	22.9021
-38.1376	454.251	22.9216
-38.1367	450.875	22.9412
-38.1345	448.4043	22.9607
-38.1348	450.441	22.9802
-38.1314	453.793	22.9998
-38.13	445.957	23.0193
-38.128	451.284	23.0388
-38.1271	455.364	23.05835
-38.125	447.561	23.0779
-38.124	448.594	23.0974
-38.1217	454.718	23.1169
-38.1206	448.554	23.1365
-38.1194	449.0148	23.156
-38.1169	453.9	23.1755
-38.1153	448.688	23.1951
-38.114	446.094	23.2146
-38.112	453.676	23.2341
-38.1112	451.491	23.2537
-38.1082	445.038	23.2732
-38.1077	452.814	23.2927
-38.1065	449.961	23.3123
-38.1036	445.119	23.3318
-38.1028	449.747	23.3513
-38.1022	451.8967	23.37085
-38.0989	447.574	23.3904
-38.0979	451.227	23.4099
-38.0971	451.4985	23.4294
-38.0956	448.884	23.449
-38.092	448.736	23.4685
-38.09063	456.036	23.488
-38.0897	449.304	23.5076
-38.0885	448.301	23.5271
-38.0867	451.248	23.5466
-38.0843	453.343	23.5662
-38.0836	445.9292	23.5857
-38.0805	452.349	23.6052
-38.0793	451.461	23.6248
-38.0786	445.966	23.6443
-38.0774	449.092	23.6638
-38.07526	453.838	23.68335
-38.0738	443.8457	23.7029
-38.0715	449.967	23.7224
-38.0694	453.8732	23.7419
-38.0695	448.963	23.7615
-38.0664	446.474	23.781
-38.0653	453.766	23.8005
-38.0635	449.417	23.8201
-38.0625	447.0462	23.8396
-38.061	454.116	23.8591
-38.0582	448.245	23.8787
-38.0577	444.599	23.8982
-38.0556	452.85	23.9177
-38.0534	451.503	23.9373
-38.0534	445.845	23.9568
-38.0504	452.04	23.9763
-38.0485	450.6373	23.99585
-38.047	447.573	24.0154
-38.046	448.619	24.0349
-38.0442	453.437	24.0544
-38.0417	449.799	24.074
-38.04023	449.418	24.0935
-38.0404	450.538	24.113
-38.0384	450.009	24.1326
-38.0363	447.084	24.1521
-38.0334	455.743	24.1716
-38.0343	450.804	24.1912
-38.0304	447.09	24.2107
-38.0303	449.096	24.2302
-38.0277	454.061	24.2498
-38.0262	446.713	24.2693
-38.0235	451.125	24.2888
-38.0227	452.771	24.30835
-38.0216	447.183	24.3279
-38.0206	447.456	24.3474
-38.0183	455.184	24.3669
-38.0171	447.292	24.3865
-38.0142	447.881	24.406
-38.0132	455.069	24.4255
-38.0116	448.1	24.4451
-38.0104	445.402	24.4646
-38.0082	453.885	24.4841
-38.00536	452.689	24.5037
-38.0047	446.775	24.5232
-38.0037	453.015	24.5427
-38.002	449.841	24.5623
-37.9994	446.111	24.5818
-37.998	450.343	24.6013
-37.9968	452.967	24.62085
-37.9949	445.901	24.6404
-37.994	451.467	24.6599
-37.992	451.506	24.6794
-37.9907	449.2052	24.699
-37.9889	447.41	24.7185
-37.987	453.938	24.738
-37.9865	449.031	24.7576
-37.98391	449.604	24.7771
-37.9813	450.225	24.7966
-37.9805	451.262	24.8162
-37.97924	444.221	24.8357
-37.9777	453.844	24.8552
-37.9751	452.4563	24.8748
-37.9759	445.327	24.8943
-37.9721	446.465	24.9138
-37.9713	454.883	24.93335
-37.9692	446.736	24.9529
-37.9681	449.1626	24.9724
-37.965	452.543	24.9919
-37.9638	446.907	25.0115
-37.9626	446.7	25.031
-37.961	453.922	25.0505
-37.9587	448.89	25.0701
-37.9565	445.182	25.0896
-37.9564	454.6	25.1091
-37.9529	447.7067	25.1287
-37.9537	444.996	25.1482
-37.9517	451.574	25.1677
-37.9496	453.079	25.1873
-37.9487	446.0531	25.2068
-37.9476	452.941	25.2263
-37.9456	448.698	25.24585
-37.9431	447.643	25.2654
-37.9417	447.768	25.2849
-37.93922	455.086	25.3044
-37.93787	447.367	25.324
-37.9373	448.6571	25.3435
-37.9352	450.452	25.363
-37.9336	449.664	25.3826
-37.9314	444.379	25.4021
-37.9305	454.007	25.4216
-37.928	450.7211	25.4412
-37.9266	446.756	25.4607
-37.925	449.825	25.4802
-37.924	451.74	25.4998
-37.9229	444.112	25.5193
-37.9206	452.169	25.5388
-37.9182	452.315	25.55835
-37.9164	445.684	25.5779
-37.9151	444.899	25.5974
-37.9137	455.001	25.6169
-37.9127	447.727	25.6365
-37.9096	448.751	25.656
-37.9079	453.797	25.6755
-37.9084	448.1445	25.6951
-37.90694	445.954	25.7146
-37.9044	453.906	25.7341
-37.90176	452.287	25.7537
-37.9	446.319	25.7732
-37.8997	454.026	25.7927
-37.8977	449.4772	25.8123
-37.8963	444.8725	25.8318
-37.8945	449.4581	25.8513
-37.8935	454.768	25.87085
-37.8908	447.499	25.8904
-37.8888	450.8092	25.9099
-37.8884	447.97	25.9294
-37.8869	448.771	25.949
-37.8842	447.676	25.9685
-37.8823	454.865	25.988
-37.8811	447.657	26.0076
-37.8801	447.134	26.0271
-37.8773	449.502	26.0466
-37.8762	453.374	26.0662
-37.8746	445.096	26.0857
-37.8735	451.681	26.1052
-37.8721	451.123	26.1248
-37.87	445.838	26.1443
-37.8684	448.442	26.1638
-37.8662	453.355	26.18335
-37.8652	445.839	26.2029
-37.863	449.483	26.2224
-37.8615	453.814	26.2419
-37.8606	444.915	26.2615
-37.8581	445.727	26.281
-37.8573	454.227	26.3005
-37.8554	448.583	26.3201
-37.8533	444.571	26.3396
-37.85284	454.148	26.3591
-37.8493	447.35	26.3787
-37.84906	444.962	26.3982
-37.8477	451.297	26.4177
-37.8447	452.382	26.4373
-37.8441	446.18	26.4568
-37.8429	452.722	26.4763
-37.8413	451.321	26.49585
-37.8405	446.462	26.5154
-37.8386	448.262	26.5349
-37.8361	454.364	26.5544
-37.8347	446.037	26.574
-37.8318	446.54	26.5935
-37.8299	448.18	26.613
-37.8297	449.914	26.6326
-37.828	445.702	26.6521
-37.8265	452.99	26.6716
-37.82518	448.015	26.6912
-37.8221	444.673	26.7107
-37.8218	449.322	26.7302
-37.82048	453.07	26.7498
-37.8176	444.404	26.7693
-37.8166	448.313	26.7888
-37.81525	451.6246	26.80835
-37.8128	445.422	26.8279
-37.812	447.0517	26.8474
-37.8092	452.641	26.8669
-37.8085	447.366	26.8865
-37.8068	446.706	26.906
-37.80542	455.857	26.9255
-37.80302	445.872	26.9451
-37.8016	444.988	26.9646
-37.7984	452.924	26.9841
-37.799	451.722	27.0037
-37.796	445.496	27.0232
-37.7947	452.421	27.0427
-37.7927	447.766	27.0623
-37.7922	446.846	27.0818
-37.7908	448.845	27.1013
-37.7887	452.076	27.12085
-37.7862	445.7374	27.1404
-37.7851	452.332	27.1599
-37.7833	449.347	27.1794
-37.7831	448.029	27.199
-37.7804	446.328	27.2185
-37.779	454.931	27.238
-37.7773	448.31	27.2576
-37.7753	447.035	27.2771
-37.7725	448.659	27.2966
-37.7708	450.572	27.3162
-37.7705	445.626	27.3357
-37.7699	452.215	27.3552
-37.7676	449.969	27.3748
-37.7662	444.471	27.3943
-37.7646	446.467	27.4138
-37.763	453.146	27.43335
-37.76149	447.082	27.4529
-37.75885	448.899	27.4724
-37.7579	452.296	27.4919
-37.7572	446.581	27.5115
-37.7538	445.721	27.531
-37.7524	452.582	27.5505
-37.7516	446.641	27.5701
-37.749	446.45	27.5896
-37.74799	452.4068	27.6091
-37.74707	446.124	27.6287
-37.7449	444.895	27.6482
-37.7428	450.715	27.6677
-37.7407	451.494	27.6873
-37.7398	444.754	27.7068
-37.7381	450.667	27.7263
-37.7367	447.804	27.74585
-37.7351	447.646	27.7654
-37.73317	448.223	27.7849
-37.7321	451.857	27.8044
-37.73003	445.8642	27.824
-37.7284	447.725	27.8435
-37.7283	449.146	27.863
-37.7245	449.928	27.8826
-37.7241	444.59	27.9021
-37.7216	453.023	27.9216
-37.7203	449.994	27.9412
-37.7177	444.441	27.9607
-37.7168	446.9566	27.9802
-37.7143	451.46	27.9998
-37.7144	444.66	28.0193
-37.7115	450.758	28.0388
-37.7105	449.852	28.05835
-37.7085	444.0018	28.0779
-37.7064	446.164	28.0974
-37.7054	454.16	28.1169
-37.7041	448.04	28.1365
-37.702	445.711	28.156
-37.7003	451.568	28.1755
-37.6993	445.617	28.1951
-37.6974	445.082	28.2146
-37.6961	451.795	28.2341
-37.69474	449.206	28.2537
-37.6917	444.708	28.2732
-37.6916	452.4761	28.2927
-37.6885	446.652	28.3123
-37.6879	445.447	28.3318
-37.6866	448.538	28.3513
-37.68446	453.692	28.37085
-37.6821	447.207	28.3904
-37.6817	450.0032	28.4099
-37.6803	448.292	28.4294
-37.6774	447.934	28.449
-37.677	447.476	28.4685
-37.6741	453.147	28.488
-37.6736	447.496	28.5076
-37.6716	446.214	28.5271
-37.6705	448.789	28.5466
-37.6685	450.764	28.5662
-37.6666	444.133	28.5857
-37.6648	450.395	28.6052
-37.6631	451.179	28.6248
-37.6617	444.429	28.6443
-37.6602	444.988	28.6638
-37.6583	450.474	28.68335
-37.6564	444.917	28.7029
-37.655	448.135	28.7224
-37.6538	452.694	28.7419
-37.653	443.197	28.7615
-37.6504	445.4	28.781
-37.6484	451.556	28.8005
-37.6458	447.408	28.8201
-37.6446	445.025	28.8396
-37.6436	450.718	28.8591
-37.6424	446.541	28.8787
-37.6408	445.9794	28.8982
-37.63908	449.529	28.9177
-37.6384	449.05	28.9373
-37.6355	443.933	28.9568
-37.6342	449.695	28.9763
-37.6327	446.868	28.99585
-37.629	444.652	29.0154
-37.6281	444.502	29.0349
-37.6265	453.408	29.0544
-37.6249	446.78	29.074
-37.6251	446.207	29.0935
-37.62159	447.086	29.113
-37.6209	447.533	29.1326
-37.6188	445.46	29.1521
-37.6173	451.111	29.1716
-37.6169	447.416	29.1912
-37.6139	444.459	29.2107
-37.6137	447.703	29.2302
-37.6114	449.552	29.2498
-37.6095	442.23	29.2693
-37.6079	447.611	29.2888
-37.6069	451.347	29.30835
-37.6049	442.533	29.3279
-37.6031	445.271	29.3474
-37.6006	450.418	29.3669
-37.5994	445.014	29.3865
-37.5983	445.503	29.406
-37.5958	451.841	29.4255
-37.5955	443.409	29.4451
-37.5936	441.63	29.4646
-37.5922	450.842	29.4841
-37.5893	448.221	29.5037
-37.5884	442.161	29.5232
-37.5862	448.959	29.5427
-37.5854	445.436	29.5623
-37.58297	444.99	29.5818
-37.582	447.778	29.6013
-37.5798	451.4238	29.62085
-37.5776	444.102	29.6404
-37.5771	448.1134	29.6599
-37.5744	447.922	29.6794
-37.5733	447.336	29.699
-37.5717	442.977	29.7185
-37.5691	450.859	29.738
-37.5682	447.828	29.7576
-37.5679	444.203	29.7771
-37.5652	446.389	29.7966
-37.5634	449.065	29.8162
-37.5627	442.743	29.8357
-37.561	450.368	29.8552
-37.5598	448.829	29.8748
-37.5572	441.487	29.8943
-37.5557	444.759	29.9138
-37.5538	451.613	29.93335
-37.5522	442.269	29.9529
-37.5508	445.092	29.9724
-37.549	451.351	29.9919
-37.5481	443.579	30.0115
-37.5465	444.786	30.031
-37.5449	449.64	30.0505
-37.5423	447.844	30.0701
-37.5414	443.836	30.0896
-37.5403	451.3862	30.1091
-37.5374	444.296	30.1287
-37.53587	444.858	30.1482
-37.5341	448.756	30.1677
-37.5337	450.952	30.1873
-37.5317	443.002	30.2068
-37.5289	449.15	30.2263
-37.5278	446.954	30.24585
-37.527	445.4007	30.2654
-37.5248	445.854	30.2849
-37.5234	451.663	30.3044
-37.5203	444.844	30.324
-37.5203	446.422	30.3435
-37.5176	448.648	30.363
-37.5158	445.726	30.3826
-37.5149	443.896	30.4021
-37.5141	450.174	30.4216
-37.511	449.086	30.4412
-37.5107	443.5788	30.4607
-37.509	445.4071	30.4802
-37.5079	449.155	30.4998
-37.5046	443.315	30.5193
-37.50399	447.152	30.5388
-37.50209	448.131	30.55835
-37.5008	440.774	30.5779
-37.498	443.669	30.5974
-37.4973	450.409	30.6169
-37.4949	443.473	30.6365
-37.4946	442.769	30.656
-37.4929	449.192	30.6755
-37.49036	442.5675	30.6951
-37.4886	443.045	30.7146
-37.488	448.018	30.7341
-37.4855	448.021	30.7537
-37.4839	443.655	30.7732
-37.4828	450.304	30.7927
-37.4797	444.894	30.8123
-37.4793	443.047	30.8318
-37.477	448.262	30.8513
-37.4759	450.634	30.87085
-37.474	443.644	30.8904
-37.47245	444.79	30.9099
-37.4714	447.1864	30.9294
-37.4694	446.467	30.949
-37.4684	445.575	30.9685
-37.4662	451.625	30.988
-37.46471	444.006	31.0076
-37.4628	443.044	31.0271
-37.4613	446.632	31.0466
-37.4599	448.128	31.0662
-37.45924	441.002	31.0857
-37.4565	449.313	31.1052
-37.454	448.868	31.1248
-37.45261	443.096	31.1443
-37.452	442.752	31.1638
-37.4503	446.87	31.18335
-37.44828	442.564	31.2029
-37.44659	445.287	31.2224
-37.44577	449.944	31.2419
-37.443	439.79	31.2615
-37.4419	442.828	31.281
-37.4411	448.045	31.3005
-37.4389	443.552	31.3201
-37.4367	440.668	31.3396
-37.4355	448.3678	31.3591
-37.4327	443.271	31.3787
-37.4328	443.052	31.3982
-37.4301	448.5386	31.4177
-37.4285	446.502	31.4373
-37.4269	443.339	31.4568
-37.4257	448.142	31.4763
-37.4237	444.319	31.49585
-37.4232	443.438	31.5154
-37.4222	444.178	31.5349
-37.4185	449.953	31.5544
-37.417	443.149	31.574
-37.4157	444.158	31.5935
-37.414	442.816	31.613
-37.412	444.573	31.6326
-37.4118	441.143	31.6521
-37.4096	446.5	31.6716
-37.40794	444.856	31.6912
-37.4067	441.264	31.7107
-37.4045	444.049	31.7302
-37.4031	447.559	31.7498
-37.4004	440.994	31.7693
-37.3991	444.297	31.7888
-37.3984	449.619	31.80835
-37.3972	439.028	31.8279
-37.3944	442.922	31.8474
-37.3933	447.442	31.8669
-37.3916	442.955	31.8865
-37.3898	442.587	31.906
-37.3885	448.789	31.9255
-37.3869	439.1015	31.9451
-37.3845	441.123	31.9646
-37.38298	446.726	31.9841
-37.3827	444.608	32.0037
-37.38	438.753	32.0232
-37.379	447.196	32.0427
-37.3769	443.036	32.0623
-37.3744	443.12	32.0818
-37.3734	442.912	32.1013
-37.37307	447.015	32.12085
-37.3696	441.645	32.1404
-37.3693	445.186	32.1599
-37.3668	444.202	32.1794
-37.3645	442.655	32.199
-37.3638	441.368	32.2185
-37.3626	448.842	32.238
-37.3608	443.48	32.2576
-37.3593	439.395	32.2771
-37.357	443.177	32.2966
-37.3558	445.084	32.3162
-37.3535	441.005	32.3357
-37.3536	444.4653	32.3552
-37.3505	445.136	32.3748
-37.3486	438.05	32.3943
-37.348	442.557	32.4138
-37.34623	445.585	32.43335
-37.3445	439.887	32.4529
-37.34293	441.464	32.4724
-37.3408	448.6362	32.4919
-37.3406	440.024	32.5115
-37.3386	441.187	32.531
-37.3362	444.654	32.5505
-37.3344	443.678	32.5701
-37.3321	440.404	32.5896
-37.3307	447.446	32.6091
-37.3288	439.912	32.6287
-37.3275	439.076	32.6482
-37.3269	444.591	32.6677
-37.3242	444.186	32.6873
-37.32402	439.519	32.7068
-37.3226	443.92	32.7263
-37.3199	441.56	32.74585
-37.318	440.712	32.7654
-37.3162	441.1279	32.7849
-37.3158	445.323	32.8044
-37.3119	439.557	32.824
-37.31266	441.119	32.8435
-37.3101	443.027	32.863
-37.308	441.606	32.8826
-37.3067	437.36	32.9021
-37.3041	443.947	32.9216
-37.3039	443.812	32.9412
-37.3011	437.0994	32.9607
-37.2998	440.703	32.9802
-37.2985	442.495	32.9998
-37.2964	439.5585	33.0193
-37.29575	441.957	33.0388
-37.2947	445.089	33.05835
-37.2918	434.994	33.0779
-37.29	439.471	33.0974
-37.289	444.186	33.1169
-37.2877	438.273	33.1365
-37.2853	438.562	33.156
-37.284	446.469	33.1755
-37.2829	437.557	33.1951
-37.2799	438.559	33.2146
-37.28	442.085	33.2341
-37.2776	442.462	33.2537
-37.27552	438.393	33.2732
-37.2742	445.096	33.2927
-37.2727	438.113	33.3123
-37.2704	438.5564	33.3318
-37.2694	439.9502	33.3513
-37.2681	446.007	33.37085
-37.26675	437.492	33.3904
-37.2647	440.339	33.4099
-37.263	441.27	33.4294
-37.2602	441.14	33.449
-37.2593	439.34	33.4685
-37.2587	441.915	33.488
-37.25684	438.905	33.5076
-37.2552	436.975	33.5271
-37.2524	440.101	33.5466
-37.2522	440.312	33.5662
-37.2496	436.316	33.5857
-37.248	441.045	33.6052
-37.2467	441.4054	33.6248
-37.2453	435.245	33.6443
-37.2428	438.435	33.6638
-37.2418	443.544	33.68335
-37.2403	436.791	33.7029
-37.2392	439.668	33.7224
-37.2374	443.476	33.7419
-37.23526	434.834	33.7615
-37.2341	436.767	33.781
-37.2323	442.605	33.8005
-37.2293	437.517	33.8201
-37.2293	435.695	33.8396
-37.22649	443.1225	33.8591
-37.2259	437.489	33.8787
-37.2235	436.617	33.8982
-37.2217	439.086	33.9177
-37.2192	441.551	33.9373
-37.2194	436.44	33.9568
-37.2178	442.128	33.9763
-37.2158	435.992	33.99585
-37.2137	434.5	34.0154
-37.2122	436.556	34.0349
-37.2129	441.6084	34.0544
-37.2103	436.186	34.074
-37.2075	437.009	34.0935
-37.20623	438.219	34.113
-37.204	439.226	34.1326
-37.2027	434.451	34.1521
-37.201	440.584	34.1716
-37.1993	439.045	34.1912
-37.1985	435.057	34.2107
-37.1963	437.152	34.2302
-37.1954	438.831	34.2498
-37.193	433.372	34.2693
-37.191	436.646	34.2888
-37.1894	440.75	34.30835
-37.1872	432.635	34.3279
-37.1866	435.393	34.3474
-37.185	439.123	34.3669
-37.1836	435.427	34.3865
-37.1812	435.061	34.406
-37.1795	439.928	34.4255
-37.1789	432.108	34.4451
-37.1757	434.4772	34.4646
-37.1752	439.064	34.4841
-37.173	436.841	34.5037
-37.1714	431.52	34.5232
-37.1694	438.813	34.5427
-37.1671	434.2403	34.5623
-37.1662	433.831	34.5818
-37.1653	434.658	34.6013
-37.163	440.26	34.62085
-37.1618	434.001	34.6404
-37.1603	436.242	34.6599
-37.159	435.9	34.6794
-37.1571	432.857	34.699
-37.1564	432.179	34.7185
-37.1531	439.4176	34.738
-37.1516	435.559	34.7576
-37.15015	430.357	34.7771
-37.1493	434.22	34.7966
-37.1474	434.153	34.8162
-37.1455	429.399	34.8357
-37.1441	434.076	34.8552
-37.1432	434.729	34.8748
-37.1409	427.596	34.8943
-37.1388	432.753	34.9138
-37.1377	436.702	34.93335
-37.1346	428.94	34.9529
-37.13443	430.419	34.9724
-37.13261	435.2952	34.9919
-37.1309	426.466	35.0115
-37.1285	428.053	35.031
-37.1275	432.554	35.0505
-37.1257	428.462	35.0701
-37.1241	425.946	35.0896
-37.123	432.166	35.1091
-37.12075	425.005	35.1287
-37.1199	422.819	35.1482
-37.1168	428.031	35.1677
-37.115	427.986	35.1873
-37.1147	420.508	35.2068
-37.11314	423.633	35.2263
-37.1121	417.781	35.24585
-37.1101	412.147	35.2654
-37.10611	-60.2685	35.2849
-37.1043	-25.8832	35.3044
-37.1038	-45.2379	35.324
-37.1019	-42.651	35.3435
-37.1003	-41.696	35.363
-37.0998	-42.35	35.3826
-37.0977	-46.0892	35.4021
-37.0965	-39.0645	35.4216
-37.0951	-41.5916	35.4412
-37.0931	-46.0031	35.4607
-37.09166	-41.4941	35.4802
-37.0901	-41.0181	35.4998
-37.08794	-45.36042	35.5193
-37.0859	-41.3741	35.5388
-37.0852	-39.1522	35.55835
-37.0824	-49.1972	35.5779
-37.0818	-43.2746	35.5974
-37.08009	-39.7073	35.6169
-37.0774	-43.3207	35.6365
-37.0761	-45.9475	35.656
-37.074	-37.7445	35.6755
-37.0742	-46.0957	35.6951
-37.0725	-45.084	35.7146
-37.0693	-42.8009	35.7341
-37.069	-42.1041	35.7537
-37.067	-46.1494	35.7732
-37.0659	-39.9735	35.7927
-37.0637	-43.445	35.8123
-37.062	-46.1338	35.8318
-37.0598	-43.9485	35.8513
-37.0583	-39.5323	35.87085
-37.0573	-46.0227	35.8904
-37.0557	-42.7509	35.9099
-37.0545	-43.2412	35.9294
-37.0521	-44.162	35.949
-37.0506	-46.3592	35.9685
-37.049	-39.4983	35.988
-37.0474	-43.6084	36.0076
-37.0466	-45.4853	36.0271
-37.0447	-42.8415	36.0466
-37.0425	-41.2194	36.0662
-37.04002	-46.51	36.0857
-37.0393	-41.7773	36.1052
-37.0394	-38.99752	36.1248
-37.0359	-46.5323	36.1443
-37.03363	-44.4554	36.1638
-37.0327	-40.9693	36.18335
-37.0322	-43.9299	36.2029
-37.0299	-42.6901	36.2224