File: data/processed_data_files/tensile/0.254_solid_uprint_typeiv_4545_r(1).dat
MTS793|BTW|ENU|1|2|.|/|:|1|0|0|A

Data Header:			0.254_solid_uprint_typeiv_4545_r0			Time:	20.0222	s	4/13/2019 6:41:55 PM
Data Acquisition:	Timed
Station Name:	ft40.cfg
Test File Name:	Type IV_Monotonic.tst
Displacement	Force	Running Time
mm	N	s
-40.0504	-184.793	0.0258789
-40.0501	-167.97	0.0454102
-40.0513	-161.061	0.0649414
-40.0499	-183.859	0.0844727
-40.0488	-169.29	0.104004
-40.0478	-155.7919	0.123535
-40.046	-177.619	0.143066
-40.0439	-172.68	0.162598
-40.0418	-152.335	0.182129
-40.0405	-169.675	0.20166
-40.0397	-173.74	0.221191
-40.0376	-148.148	0.240723
-40.0365	-162.0553	0.260254
-40.0342	-171.028	0.279785
-40.03281	-151.969	0.299316
-40.032	-151.565	0.318848
-40.0292	-168.748	0.338379
-40.02763	-149.553	0.35791
-40.0241	-147.5423	0.377441
-40.0243	-163.117	0.396973
-40.0227	-152.218	0.416504
-40.0213	-137.739	0.436035
-40.0196	-157.438	0.455566
-40.0182	-152.3866	0.475098
-40.017	-137.658	0.494629
-40.0158	-149.107	0.51416
-40.014	-155.993	0.533691
-40.0109	-132.112	0.553223
-40.0105	-140.088	0.572754
-40.00869	-153.874	0.592285
-40.0076	-134.88	0.611816
-40.0042	-134.048	0.631348
-40.0042	-151.654	0.650879
-40.0024	-135.0816	0.67041
-40.0007	-125.737	0.689941
-39.9987	-146.309	0.709473
-39.9963	-136.291	0.729004
-39.9949	-121.89	0.748535
-39.99477	-139.373	0.768066
-39.9928	-137.934	0.787598
-39.9903	-115.452	0.807129
-39.9879	-134.575	0.82666
-39.9881	-137.339	0.846191
-39.9864	-114.857	0.865723
-39.9838	-124.443	0.885254
-39.9812	-137.12	0.904785
-39.9805	-113.621	0.924316
-39.9783	-116.798	0.943848
-39.9776	-132.358	0.963379
-39.9764	-117.918	0.98291
-39.974	-109.712	1.00244
-39.9738	-126.482	1.02197
-39.9697	-116.236	1.0415
-39.96867	-105.994	1.06104
-39.9679	-122.034	1.08057
-39.966	-120.381	1.1001
-39.9652	-99.7333	1.11963
-39.96323	-113.321	1.13916
-39.9622	-120.002	1.15869
-39.9604	-101.414	1.17822
-39.9576	-105.782	1.19775
-39.9571	-119.321	1.21729
-39.9548	-99.3419	1.23682
-39.9535	-97.8001	1.25635
-39.9512	-116.339	1.27588
-39.9504	-101.533	1.29541
-39.9483	-91.3674	1.31494
-39.94622	-111.764	1.33447
-39.9451	-102.565	1.354
-39.9428	-83.8646	1.37354
-39.9421	-104.7036	1.39307
-39.93943	-103.587	1.4126
-39.9385	-83.3561	1.43213
-39.93716	-95.0327	1.45166
-39.9348	-102.881	1.47119
-39.9341	-78.8709	1.49072
-39.9321	-92.5329	1.51025
-39.9306	-98.5575	1.52979
-39.9287	-83.5673	1.54932
-39.9272	-79.4931	1.56885
-39.9256	-98.12571	1.58838
-39.9249	-82.3293	1.60791
-39.9218	-77.0614	1.62744
-39.9206	-90.4589	1.64697
-39.9181	-85.12941	1.6665
-39.9168	-67.7204	1.68604
-39.9166	-85.08252	1.70557
-39.9142	-83.56044	1.7251
-39.9116	-67.26532	1.74463
-39.9114	-78.9262	1.76416
-39.9092	-85.3844	1.78369
-39.9063	-63.1181	1.80322
-39.9062	-69.4928	1.82275
-39.9047	-83.7976	1.84229
-39.9028	-65.0078	1.86182
-39.9008	-60.2697	1.88135
-39.8988	-80.6409	1.90088
-39.8981	-65.1016	1.92041
-39.8965	-54.98217	1.93994
-39.895	-77.2588	1.95947
-39.8938	-65.7326	1.979
-39.8915	-51.6262	1.99854
-39.8898	-69.0433	2.01807
-39.8882	-67.9862	2.0376
-39.8853	-45.3886	2.05713
-39.8854	-63.254	2.07666
-39.88295	-67.01564	2.09619
-39.88052	-47.0643	2.11572
-39.8803	-52.3447	2.13525
-39.8781	-66.6049	2.15479
-39.8764	-44.9416	2.17432
-39.8752	-48.11491	2.19385
-39.8733	-61.3271	2.21338
-39.8713	-49.56142	2.23291
-39.8697	-38.3146	2.25244
-39.8685	-57.7461	2.27197
-39.8673	-48.16655	2.2915
-39.866	-35.3772	2.31104
-39.8629	-49.1203	2.33057
-39.86269	-51.797	2.3501
-39.86	-30.6545	2.36963
-39.8593	-42.528	2.38916
-39.8569	-50.12	2.40869
-39.855	-31.6674	2.42822
-39.8546	-35.7006	2.44775
-39.8526	-50.8195	2.46729
-39.8511	-30.0396	2.48682
-39.8485	-27.4492	2.50635
-39.8473	-46.1334	2.52588
-39.84716	-30.5397	2.54541
-39.844	-22.0475	2.56494
-39.8423	-39.7314	2.58447
-39.8413	-33.6223	2.604
-39.8393	-15.566	2.62354
-39.8377	-35.274	2.64307
-39.8367	-32.6623	2.6626
-39.8348	-13.3401	2.68213
-39.8336	-26.908	2.70166
-39.832	-34.4253	2.72119
-39.8295	-9.32806	2.74072
-39.8277	-18.9047	2.76025
-39.8254	-31.7126	2.77979
-39.8248	-13.82807	2.79932
-39.8226	-10.0082	2.81885
-39.8211	-27.1616	2.83838
-39.8199	-12.0931	2.85791
-39.8182	-5.3576	2.87744
-39.8163	-21.0925	2.89697
-39.8146	-15.9532	2.9165
-39.8123	-0.257587	2.93604
-39.8118	-15.2627	2.95557
-39.8087	-16.82494	2.9751
-39.8081	3.04098	2.99463
-39.8055	-8.24224	3.01416
-39.8044	-17.0801	3.03369
-39.8032	3.39104	3.05322
-39.80238	1.09446	3.07275
-39.80167	-16.2361	3.09229
-39.799	2.72668	3.11182
-39.7966	5.21105	3.13135
-39.7948	-12.2643	3.15088
-39.79398	3.86815	3.17041
-39.7919	14.48157	3.18994
-39.79068	-6.617867	3.20947
-39.7901	0.95294	3.229
-39.7864	17.2831	3.24854
-39.78508	3.70611	3.26807
-39.7843	0.820921	3.2876
-39.7819	22.7208	3.30713
-39.7797	5.86311	3.32666
-39.7794	2.86886	3.34619
-39.7774	21.6096	3.36572
-39.7749	17.1052	3.38525
-39.775	4.326333	3.40479
-39.7727	23.5088	3.42432
-39.7707	22.7185	3.44385
-39.7691	7.53682	3.46338
-39.7685	19.0517	3.48291
-39.7669	30.8313	3.50244
-39.7649	13.35537	3.52197
-39.7625	18.2811	3.5415
-39.7611	33.7584	3.56104
-39.7597	18.9327	3.58057
-39.7577	16.2799	3.6001
-39.7564	37.0992	3.61963
-39.7547	27.1003	3.63916
-39.7531	18.8814	3.65869
-39.7514	37.2711	3.67822
-39.749	34.9732	3.69775
-39.7472	20.1802	3.71729
-39.7472	36.8718	3.73682
-39.7443	45.0242	3.75635
-39.743	22.3024	3.77588
-39.741	38.6869	3.79541
-39.7399	46.7709	3.81494
-39.7384	28.42173	3.83447
-39.7369	36.9031	3.854
-39.7347	55.371	3.87354
-39.7342	33.4053	3.89307
-39.7321	35.3332	3.9126
-39.7305	55.7004	3.93213
-39.7288	43.2128	3.95166
-39.727	35.9451	3.97119
-39.7251	58.1835	3.99072
-39.7229	49.04422	4.01025
-39.7228	38.6004	4.02979
-39.7209	54.3677	4.04932
-39.7188	59.0408	4.06885
-39.7172	41.3962	4.08838
-39.7153	55.9688	4.10791
-39.71402	65.048	4.12744
-39.7113	46.174	4.14697
-39.7095	49.805	4.1665
-39.70895	68.4671	4.18604
-39.7078	53.9331	4.20557
-39.7054	50.3506	4.2251
-39.7035	70.21067	4.24463
-39.704	60.2899	4.26416
-39.70182	51.3066	4.28369
-39.6991	71.873	4.30322
-39.69791	69.7969	4.32275
-39.6973	52.3279	4.34229
-39.6943	72.8419	4.36182
-39.6922	76.3509	4.38135
-39.6908	58.9257	4.40088
-39.6888	70.6531	4.42041
-39.6876	84.1018	4.43994
-39.6862	61.8716	4.45947
-39.6845	71.0278	4.479
-39.6832	84.35318	4.49854
-39.6823	70.3198	4.51807
-39.6795	69.1363	4.5376
-39.6787	91.6022	4.55713
-39.6767	76.0024	4.57666
-39.6749	71.5085	4.59619
-39.6729	88.024	4.61572
-39.6715	87.6494	4.63525
-39.6698	71.7531	4.65479
-39.6677	90.6925	4.67432
-39.6665	91.24398	4.69385
-39.6654	77.0124	4.71338
-39.6637	86.35302	4.73291
-39.6613	99.4668	4.75244
-39.65947	81.5298	4.77197
-39.6597	86.4849	4.7915
-39.657	102.389	4.81104
-39.6555	88.7182	4.83057
-39.6532	84.3245	4.8501
-39.6513	105.02	4.86963
-39.6507	97.6601	4.88916
-39.6488	85.9385	4.90869
-39.6468	107.809	4.92822
-39.6459	102.731	4.94775
-39.6428	90.1067	4.96729
-39.642	107.607	4.98682
-39.6405	112.342	5.00635
-39.6395	89.873	5.02588
-39.6372	106.4352	5.04541
-39.6349	115.111	5.06494
-39.6358	97.3463	5.08447
-39.6333	102.868	5.104
-39.6319	122.479	5.12354
-39.6288	103.858	5.14307
-39.6279	105.563	5.1626
-39.626	121.084	5.18213
-39.6259	112.7936	5.20166
-39.6235	105.851	5.22119
-39.6212	126.826	5.24072
-39.6201	117.76	5.26025
-39.6181	106.225	5.27979
-39.6161	122.66	5.29932
-39.6138	128.505	5.31885
-39.6131	112.002	5.33838
-39.6122	122.632	5.35791
-39.6099	132.869	5.37744
-39.6076	117.215	5.39697
-39.6057	120.096	5.4165
-39.6049	136.018	5.43604
-39.6028	122.387	5.45557
-39.601	119.1468	5.4751
-39.6005	140.612	5.49463
-39.5978	131.005	5.51416
-39.5959	119.676	5.53369
-39.5946	139.531	5.55322
-39.5935	139.359	5.57275
-39.5928	120.953	5.59229
-39.5904	140.852	5.61182
-39.5885	144.445	5.63135
-39.5864	128.104	5.65088
-39.5852	139.395	5.67041
-39.5845	153.447	5.68994
-39.58287	129.063	5.70947
-39.5805	139.638	5.729
-39.5793	154.369	5.74854
-39.5776	140.524	5.76807
-39.5751	136.651	5.7876
-39.5744	158.186	5.80713
-39.5721	143.334	5.82666
-39.5711	138.94	5.84619
-39.5689	156.977	5.86572
-39.5676	154.527	5.88525
-39.5662	140.302	5.90479
-39.5627	158.503	5.92432
-39.5624	160.416	5.94385
-39.561	143.282	5.96338
-39.5584	155.973	5.98291
-39.5574	167.324	6.00244
-39.5557	151.7637	6.02197
-39.5544	154.133	6.0415
-39.5527	171.2247	6.06104
-39.55146	156.893	6.08057
-39.54932	153.631	6.1001
-39.5477	173.829	6.11963
-39.5469	165.824	6.13916
-39.5448	151.307	6.15869
-39.5428	174.974	6.17822
-39.54073	171.435	6.19775
-39.5399	155.198	6.21729
-39.53867	174.969	6.23682
-39.5371	181.523	6.25635
-39.5355	158.64	6.27588
-39.5326	173.274	6.29541
-39.5318	183.805	6.31494
-39.5311	167.719	6.33447
-39.5302	172.23	6.354
-39.5269	190.747	6.37354
-39.5246	171.17	6.39307
-39.5238	170.7453	6.4126
-39.5221	190.706	6.43213
-39.51931	182.332	6.45166
-39.5186	171.976	6.47119
-39.5162	191.436	6.49072
-39.5153	187.8215	6.51025
-39.5137	174.913	6.52979
-39.5118	190.401	6.54932
-39.5113	194.23	6.56885
-39.5101	177.818	6.58838
-39.5076	190.345	6.60791
-39.5054	200.041	6.62744
-39.5048	182.216	6.64697
-39.5024	186.7901	6.6665
-39.5009	204.877	6.68604
-39.4997	191.791	6.70557
-39.4986	186.118	6.7251
-39.4963	207.283	6.74463
-39.49485	195.568	6.76416
-39.4924	189.418	6.78369
-39.4916	207.7274	6.80322
-39.4888	207.349	6.82275
-39.4871	188.245	6.84229
-39.4861	210.269	6.86182
-39.48349	212.223	6.88135
-39.4837	193.676	6.90088
-39.4818	207.09	6.92041
-39.4803	219.94	6.93994
-39.479	198.0394	6.95947
-39.477	205.654	6.979
-39.475	219.605	6.99854
-39.4737	207.584	7.01807
-39.472	204.897	7.0376
-39.4698	225.719	7.05713
-39.4684	212.75	7.07666
-39.4659	205.852	7.09619
-39.465	224.407	7.11572
-39.4639	221.871	7.13525
-39.4617	207.8174	7.15479
-39.4603	224.088	7.17432
-39.4575	227.645	7.19385
-39.4577	210.797	7.21338
-39.4539	222.166	7.23291
-39.4527	234.484	7.25244
-39.4518	218.056	7.27197
-39.451	221.113	7.2915
-39.4486	237.858	7.31104
-39.4464	223.814	7.33057
-39.445	221.226	7.3501
-39.4428	240.726	7.36963
-39.442	234.064	7.38916
-39.4415	218.811	7.40869
-39.4392	243.004	7.42822
-39.4369	236.523	7.44775
-39.435	223.855	7.46729
-39.4343	240.286	7.48682
-39.43264	248.959	7.50635
-39.431	224.893	7.52588
-39.431	241.921	7.54541
-39.427	252.189	7.56494
-39.42622	232.194	7.58447
-39.4258	239.687	7.604
-39.4224	255.417	7.62354
-39.4204	239.241	7.64307
-39.4199	238.542	7.6626
-39.4181	256.041	7.68213
-39.4161	248.143	7.70166
-39.4152	239.207	7.72119
-39.4134	258.039	7.74072
-39.4123	252.736	7.76025
-39.4094	240.089	7.77979
-39.4083	256.893	7.79932
-39.4057	263.071	7.81885
-39.4044	246.574	7.83838
-39.40226	253.86	7.85791
-39.4007	268.947	7.87744
-39.3993	250.037	7.89697
-39.398	255.084	7.9165
-39.3967	269.975	7.93604
-39.3961	259.231	7.95557
-39.3928	251.745	7.9751
-39.3913	274.029	7.99463
-39.39006	263.24	8.01416
-39.3881	253.1181	8.03369
-39.3869	275.109	8.05322
-39.3859	274.536	8.07275
-39.3829	253.867	8.09229
-39.38221	274.832	8.11182
-39.38	277.8	8.13135
-39.3785	261.5119	8.15088
-39.3767	272.953	8.17041
-39.3749	285.108	8.18994
-39.3742	263.821	8.20947
-39.3721	271.5	8.229
-39.3708	288.018	8.24854
-39.369	272.675	8.26807
-39.3671	269.207	8.2876
-39.36599	289.439	8.30713
-39.3642	279.585	8.32666
-39.3617	271.659	8.34619
-39.3603	287.812	8.36572
-39.3607	286.357	8.38525
-39.3577	273.517	8.40479
-39.35598	288.269	8.42432
-39.35416	293.715	8.44385
-39.35239	275.823	8.46338
-39.351	287.899	8.48291
-39.349	299.195	8.50244
-39.3473	285.647	8.52197
-39.34626	283.488	8.5415
-39.3456	303.695	8.56104
-39.3427	287.142	8.58057
-39.341	286.184	8.6001
-39.34	304.8345	8.61963
-39.3374	298.4075	8.63916
-39.33659	284.367	8.65869
-39.3344	307.475	8.67822
-39.3331	303.53	8.69775
-39.33123	289	8.71729
-39.3295	306.521	8.73682
-39.3283	312.417	8.75635
-39.3276	289.473	8.77588
-39.3244	304.676	8.79541
-39.32325	313.606	8.81494
-39.3216	298.03	8.83447
-39.3201	302.062	8.854
-39.3186	320.052	8.87354
-39.3174	302.955	8.89307
-39.3156	302.215	8.9126
-39.3128	320.743	8.93213
-39.3121	311.658	8.95166
-39.3104	302.23	8.97119
-39.3089	320.355	8.99072
-39.3065	318.885	9.01025
-39.3057	303.327	9.02979
-39.3041	319.252	9.04932
-39.3015	324.771	9.06885
-39.3004	309.15	9.08838
-39.2977	315.837	9.10791
-39.2971	331.202	9.12744
-39.2953	311.483	9.14697
-39.2946	316.342	9.1665
-39.2921	334.256	9.18604
-39.2912	320.046	9.20557
-39.2889	311.601	9.2251
-39.288	336.506	9.24463
-39.2853	326.108	9.26416
-39.2845	314.776	9.28369
-39.28183	334.421	9.30322
-39.2813	334.151	9.32275
-39.2786	315.418	9.34229
-39.2774	335.494	9.36182
-39.27523	338.001	9.38135
-39.2733	321.606	9.40088
-39.2735	332.273	9.42041
-39.2717	346.909	9.43994
-39.26989	326.469	9.45947
-39.26709	329.209	9.479
-39.2671	347.876	9.49854
-39.26442	333.5062	9.51807
-39.2627	332.708	9.5376
-39.26078	349.486	9.55713
-39.2594	340.052	9.57666
-39.2587	330.708	9.59619
-39.2549	352.435	9.61572
-39.2541	348.367	9.63525
-39.2535	334.971	9.65479
-39.2521	347.281	9.67432
-39.2501	356.296	9.69385
-39.2487	337.919	9.71338
-39.2471	347.304	9.73291
-39.24482	360.149	9.75244
-39.2446	344.703	9.77197
-39.242	344.216	9.7915
-39.24044	364.917	9.81104
-39.2385	348.496	9.83057
-39.2375	345.906	9.8501
-39.2353	366.429	9.86963
-39.2338	360.304	9.88916
-39.23299	343.17	9.90869
-39.2307	367.344	9.92822
-39.229	364.481	9.94775
-39.2278	348.276	9.96729
-39.2255	365.883	9.98682
-39.225	370.705	10.0063
-39.2218	350.332	10.0259
-39.2206	364.118	10.04541
-39.219	375.892	10.0649
-39.2172	357.334	10.0845
-39.2154	362.621	10.104
-39.2144	379.348	10.1235
-39.2115	364.161	10.1431
-39.2112	360.299	10.1626
-39.2087	380.177	10.1821
-39.2082	372.424	10.20166
-39.2072	364.1304	10.2212
-39.2059	380.896	10.2407
-39.2029	379.688	10.2603
-39.2007	363.826	10.2798
-39.1989	380.371	10.2993
-39.1976	386.17	10.3188
-39.1978	370.151	10.3384
-39.1941	375.805	10.35791
-39.1929	393.191	10.3774
-39.1916	371.4812	10.397
-39.1906	376.687	10.4165
-39.18716	394.796	10.436
-39.18544	382.719	10.4556
-39.1853	374.693	10.4751
-39.1832	397.866	10.4946
-39.1814	386.955	10.51416
-39.181	376.338	10.5337
-39.1782	396.348	10.5532
-39.1766	395.991	10.5728
-39.1753	376.597	10.5923
-39.1738	396.37	10.6118
-39.1721	401.156	10.6313
-39.1704	384.206	10.6509
-39.1684	394.321	10.67041
-39.1673	406.185	10.6899
-39.1655	386.59	10.7095
-39.1642	392.438	10.729
-39.1619	409.79	10.7485
-39.1597	394.304	10.7681
-39.1596	392.3071	10.7876
-39.1563	410.367	10.8071
-39.1554	404.233	10.82666
-39.15469	390.665	10.8462
-39.1521	410.2	10.8657
-39.151	409.616	10.8853
-39.1492	396.1882	10.9048
-39.1469	407.711	10.9243
-39.1452	416.59	10.9438
-39.1445	396.855	10.9634
-39.1415	409.112	10.98291
-39.1406	420.63	11.0024
-39.1384	405.051	11.022
-39.136	402.902	11.0415
-39.1353	426.728	11.061
-39.1336	410.573	11.0806
-39.1324	405.572	11.1001
-39.1314	426.863	11.1196
-39.1301	417.824	11.13916
-39.12775	405.23	11.1587
-39.12606	426.907	11.1782
-39.12442	423.336	11.1978
-39.1236	408.3	11.2173
-39.1213	427.1301	11.2368
-39.1195	432.69	11.2563
-39.1181	411.815	11.2759
-39.11602	423.686	11.29541
-39.11454	435.208	11.3149
-39.1137	417.913	11.3345
-39.1123	423.318	11.354
-39.1102	437.54	11.3735
-39.1087	423.478	11.3931
-39.1065	421.095	11.4126
-39.1057	440.591	11.4321
-39.1031	431.144	11.45166
-39.1022	422.31	11.4712
-39.10009	438.8389	11.4907
-39.0978	441.891	11.5103
-39.09774	422.152	11.5298
-39.0958	438.849	11.5493
-39.0937	447.093	11.5688
-39.0913	431.113	11.5884
-39.0902	434.908	11.60791
-39.0887	452.582	11.6274
-39.0877	432.727	11.647
-39.085	436.6207	11.6665
-39.084	455.512	11.686
-39.0825	441.365	11.7056
-39.0804	432.763	11.7251
-39.0795	457.073	11.7446
-39.0762	447.042	11.76416
-39.0756	436.049	11.7837
-39.0744	455.416	11.8032
-39.0729	455.106	11.8228
-39.0709	436.269	11.8423
-39.0687	454.3645	11.8618
-39.0664	459.872	11.8813
-39.0674	442.254	11.9009
-39.0648	452.885	11.92041
-39.0626	464.018	11.9399
-39.06134	447.339	11.9595
-39.05962	449.299	11.979
-39.0586	467.853	11.9985
-39.0572	453.913	12.0181
-39.0555	451.416	12.0376
-39.0533	466.784	12.0571
-39.0514	461.7934	12.07666
-39.0493	450.8219	12.0962
-39.0485	469.234	12.1157
-39.0462	467.937	12.1353
-39.04533	454.975	12.1548
-39.0424	463.929	12.1743
-39.0413	477.312	12.1938
-39.0403	456.827	12.2134
-39.0383	464.868	12.23291
-39.0364	479.581	12.2524
-39.035	463.877	12.272
-39.0333	461.303	12.2915
-39.0322	481.738	12.311
-39.0295	468.422	12.3306
-39.0292	462.853	12.3501
-39.0271	483.886	12.3696
-39.0254	476.669	12.38916
-39.0233	461.6286	12.4087
-39.0222	480.567	12.4282
-39.0198	483.157	12.4478
-39.01886	467.138	12.4673
-39.0172	479.1506	12.4868
-39.0156	488.978	12.5063
-39.0143	471.1163	12.5259
-39.013	478.097	12.54541
-39.0102	490.564	12.5649
-39.0089	476.443	12.5845
-39.00808	476.2	12.604
-39.00499	492.351	12.6235
-39.0039	484.7	12.6431
-39.0022	474.932	12.6626
-39.0005	493.398	12.6821
-38.9997	491.6795	12.70166
-38.9973	480.122	12.7212
-38.9962	490.147	12.7407
-38.9951	499.646	12.7603
-38.9928	481.173	12.7798
-38.9914	492.472	12.7993
-38.98925	502.289	12.8188
-38.9886	487.147	12.8384
-38.9865	486.673	12.85791
-38.9845	507.43	12.8774
-38.9828	490.531	12.897
-38.9821	487.648	12.9165
-38.979	505.825	12.936
-38.9784	500.885	12.9556
-38.9774	487.009	12.9751
-38.97459	506.988	12.9946
-38.973	504.056	13.01416
-38.9721	490.357	13.0337
-38.9708	508.119	13.0532
-38.968	510.454	13.0728
-38.9675	492.703	13.0923
-38.9656	504.7496	13.1118
-38.9636	514.672	13.1313
-38.96262	498.576	13.1509
-38.9604	503.621	13.17041
-38.959	517.844	13.1899
-38.957	505.887	13.2095
-38.9556	501.764	13.229
-38.954	521.398	13.2485
-38.95155	510.443	13.2681
-38.9509	504.361	13.2876
-38.94791	518.521	13.3071
-38.9468	518.775	13.32666
-38.946	503.455	13.3462
-38.9433	520.081	13.3657
-38.9426	524.216	13.3853
-38.9406	509.773	13.4048
-38.9389	514.398	13.4243
-38.938	529.128	13.4438
-38.93594	509.78	13.4634
-38.9342	517.1507	13.48291
-38.9312	533.618	13.5024
-38.9296	518.994	13.522
-38.9298	510.3653	13.5415
-38.9268	533.747	13.561
-38.9262	523.056	13.5806
-38.9238	515.1181	13.6001
-38.9225	534.074	13.6196
-38.9214	531.179	13.63916
-38.91951	514.104	13.6587
-38.9181	530.898	13.6782
-38.91655	534.554	13.6978
-38.9145	519.3349	13.7173
-38.9124	530.831	13.7368
-38.9121	541.198	13.7563
-38.90971	523.042	13.7759
-38.9077	526.778	13.79541
-38.9055	544.83	13.8149
-38.90411	530.346	13.8345
-38.9031	528.434	13.854
-38.9012	541.585	13.8735
-38.9	538.08	13.8931
-38.8982	526.001	13.9126
-38.8979	545.102	13.9321
-38.8949	541.456	13.95166
-38.89423	528.563	13.9712
-38.8915	539.812	13.9907
-38.89006	549.834	14.0103
-38.8887	529.56	14.0298
-38.8857	539.068	14.0493
-38.8841	552.975	14.0688
-38.8839	537.457	14.0884
-38.881	535.598	14.10791
-38.8809	554.894	14.1274
-38.8796	540.314	14.147
-38.8767	537.722	14.1665
-38.8757	556.874	14.186
-38.8744	547.459	14.2056
-38.8719	536.695	14.2251
-38.8717	557.499	14.2446
-38.8692	554.192	14.26416
-38.8674	540.238	14.2837
-38.8653	555.352	14.3032
-38.864	559.316	14.3228
-38.8626	542.609	14.3423
-38.86105	552.39	14.3618
-38.859	563.495	14.3813
-38.8581	547.9187	14.4009
-38.8557	551.902	14.42041
-38.8524	564.6286	14.4399
-38.8528	551.138	14.4595
-38.8516	548.211	14.479
-38.8505	567.608	14.4985
-38.8475	559.943	14.5181
-38.8461	549.974	14.5376
-38.8443	561.329	14.5571
-38.8426	566.2395	14.57666
-38.8403	550.079	14.5962
-38.8392	565.462	14.6157
-38.8384	570.388	14.6353
-38.8354	554.966	14.6548
-38.8347	561.6535	14.6743
-38.8328	575.477	14.6938
-38.8311	555.002	14.7134
-38.83	560.576	14.73291
-38.8288	576.598	14.7524
-38.8264	564.867	14.772
-38.8261	555.514	14.7915
-38.8236	577.6239	14.811
-38.8229	566.7583	14.8306
-38.8216	558.545	14.8501
-38.8186	577.891	14.8696
-38.81572	575.614	14.88916
-38.8153	557.483	14.9087
-38.8134	575.186	14.9282
-38.81324	578.8	14.9478
-38.8096	562.8941	14.9673
-38.8087	573.38	14.9868
-38.8071	582.883	15.0063
-38.8063	566.708	15.0259
-38.8028	571.15	15.04541
-38.80217	586.737	15.0649
-38.8007	572.774	15.0845
-38.79892	571.659	15.104
-38.7976	586.044	15.1235
-38.7951	579.966	15.1431
-38.7937	568.019	15.1626
-38.7931	586.887	15.1821
-38.7908	586.06	15.20166
-38.7889	572.7713	15.2212
-38.7882	580.477	15.2407
-38.7852	590.182	15.2603
-38.7838	571.278	15.2798
-38.7831	583.609	15.2993
-38.7811	593.97	15.3188
-38.7793	578.539	15.3384
-38.7773	577.119	15.35791
-38.7769	595.789	15.3774
-38.7736	580.988	15.397
-38.7727	577.938	15.4165
-38.7719	597.8114	15.436
-38.77	587.973	15.4556
-38.768	575.935	15.4751
-38.7663	596.1178	15.4946
-38.7639	590.858	15.51416
-38.76379	575.284	15.5337
-38.7621	595.36	15.5532
-38.76	596.34	15.5728
-38.7582	579.012	15.5923
-38.757	589.375	15.6118
-38.7555	602.459	15.6313
-38.7526	584.998	15.6509
-38.75238	589.091	15.67041
-38.7503	601.305	15.6899
-38.7489	591.18	15.7095
-38.7471	584.269	15.729
-38.7458	602.495	15.7485
-38.7435	595.226	15.7681
-38.7423	586.2373	15.7876
-38.7407	599.728	15.8071
-38.7385	601.186	15.82666
-38.7375	583.459	15.8462
-38.7354	599.88	15.8657
-38.7342	605.201	15.8853
-38.7331	590.643	15.9048
-38.7317	593.515	15.9243
-38.7287	609.121	15.9438
-38.72686	589.697	15.9634
-38.7251	593.551	15.98291
-38.7249	610.997	16.0024
-38.7218	595.965	16.022
-38.7207	589.184	16.0415
-38.7181	611.085	16.061
-38.7174	600.328	16.0806
-38.715	588.468	16.1001
-38.714	608.348	16.1196
-38.7128	605.652	16.13916
-38.7115	589.868	16.1587
-38.71011	604.909	16.1782
-38.7084	607.898	16.1978
-38.70676	591.488	16.2173
-38.7041	604.856	16.2368
-38.7027	611.986	16.2563
-38.7019	595.898	16.2759
-38.6992	596.703	16.29541
-38.6984	613.571	16.3149
-38.6961	601.721	16.3345
-38.696	597.508	16.354
-38.6953	611.301	16.3735
-38.6917	606.705	16.3931
-38.6902	593.978	16.4126
-38.6887	612.318	16.4321
-38.688	610.79	16.45166
-38.6857	596.092	16.4712
-38.6825	607.358	16.4907
-38.6821	616.504	16.5103
-38.6794	594.703	16.5298
-38.6786	606.3252	16.5493
-38.6764	617.952	16.5688
-38.6744	600.875	16.5884
-38.6738	601.1178	16.60791
-38.6723	619.426	16.6274
-38.6706	604.1969	16.647
-38.6686	600.372	16.6665
-38.6674	619.128	16.686
-38.6656	608.4776	16.7056
-38.6644	597.147	16.7251
-38.6623	615.808	16.7446
-38.6605	614.036	16.76416
-38.6587	596.409	16.7837
-38.6568	613.406	16.8032
-38.6559	616.457	16.8228
-38.6543	599.899	16.8423
-38.6525	609.189	16.8618
-38.6499	619.22	16.8813
-38.6494	602.352	16.9009
-38.6478	607.737	16.92041
-38.6453	619.651	16.9399
-38.6452	607.184	16.9595
-38.6426	600.888	16.979
-38.6417	620.161	16.9985
-38.6393	611.185	17.0181
-38.6378	600.3	17.0376
-38.6356	614.641	17.0571
-38.6341	616.502	17.07666
-38.6333	598.283	17.0962
-38.6314	615.784	17.1157
-38.6295	617.972	17.1353
-38.6281	602.958	17.1548
-38.6259	608.019	17.1743
-38.6238	620.775	17.1938
-38.62273	602.948	17.2134
-38.6225	604.781	17.23291
-38.6204	623.7442	17.2524
-38.6186	606.851	17.272
-38.6164	600.257	17.2915
-38.61541	619.612	17.311
-38.613	610.81	17.3306
-38.6119	601.459	17.3501
-38.6093	617.838	17.3696
-38.6089	612.713	17.38916
-38.60714	597.796	17.4087
-38.6053	613.895	17.4282
-38.6051	617.996	17.4478
-38.6028	599.452	17.4673
-38.6001	611.051	17.4868
-38.5989	619.103	17.5063
-38.5965	602.84	17.5259
-38.5955	603.958	17.54541
-38.5942	620.063	17.5649
-38.5916	605.764	17.5845
-38.5918	603.133	17.604
-38.5888	617.884	17.6235
-38.587	610.333	17.6431
-38.5849	598.416	17.6626
-38.5846	618.7901	17.6821
-38.5815	615.197	17.70166
-38.57972	599.522	17.7212
-38.5781	609.483	17.7407
-38.5785	619.552	17.7603
-38.5756	597.957	17.7798
-38.5738	610.497	17.7993
-38.5715	617.698	17.8188
-38.5708	601.604	17.8384
-38.56908	601.883	17.85791
-38.568	619.97	17.8774
-38.5666	603.492	17.897
-38.5642	598.892	17.9165
-38.563	619.5564	17.936
-38.5621	607.473	17.9556
-38.5593	597.833	17.9751
-38.5586	614.012	17.9946
-38.5563	612.313	18.01416
-38.5552	596.599	18.0337
-38.5529	613.655	18.0532
-38.5522	612.824	18.0728
-38.5504	598.808	18.0923
-38.5475	606.134	18.1118
-38.54694	619.403	18.1313
-38.5447	599.702	18.1509
-38.5437	604.394	18.17041
-38.5413	617.211	18.1899
-38.5386	605.078	18.2095
-38.5383	597.177	18.229
-38.5362	616.667	18.2485
-38.5351	607.283	18.2681
-38.534	598.2652	18.2876
-38.533	612.507	18.3071
-38.5307	611.157	18.32666
-38.5281	594.474	18.3462
-38.5264	609.8114	18.3657
-38.5244	614.217	18.3853
-38.5236	596.668	18.4048
-38.5222	602.803	18.4243
-38.5205	615.676	18.4438
-38.51873	597.704	18.4634
-38.5175	601.566	18.48291
-38.5155	616.874	18.5024
-38.5139	599.399	18.522
-38.5132	595.99	18.5415
-38.5104	614.978	18.561
-38.5104	604.97	18.5806
-38.5079	593.726	18.6001
-38.506	612.869	18.6196
-38.5039	606.425	18.63916
-38.5037	593.077	18.6587
-38.5003	606.4353	18.6782
-38.4988	611.459	18.6978
-38.4972	593.779	18.7173
-38.4964	604.642	18.7368
-38.4945	609.294	18.7563
-38.4928	595.148	18.7759
-38.491	597.336	18.79541
-38.4904	614.795	18.8149
-38.4875	599.9483	18.8345
-38.48563	596.9566	18.854
-38.4855	609.183	18.8735
-38.4835	603.841	18.8931
-38.4821	591.875	18.9126
-38.47979	608.79	18.9321
-38.4786	607.335	18.95166
-38.47723	591.878	18.9712
-38.475	602.785	18.9907
-38.4728	609.801	19.0103
-38.4718	589.237	19.0298
-38.4708	600.262	19.0493
-38.4685	612.639	19.0688
-38.4667	592.482	19.0884
-38.4651	593.6394	19.10791
-38.4627	610.038	19.1274
-38.46207	595.492	19.147
-38.4611	592.121	19.1665
-38.4585	610.425	19.186
-38.4569	597.54	19.2056
-38.4554	587.724	19.2251
-38.4541	605.496	19.2446
-38.4526	603.7334	19.26416
-38.4514	587.199	19.2837
-38.4493	605.394	19.3032
-38.4469	604.044	19.3228
-38.4457	591.109	19.3423
-38.4437	596.018	19.3618
-38.4426	608.132	19.3813
-38.43985	592.245	19.4009
-38.43866	594.889	19.42041
-38.4367	606.674	19.4399
-38.4355	594.685	19.4595
-38.434	588.407	19.479
-38.4325	607.35	19.4985
-38.4313	598.53	19.5181
-38.4298	588.156	19.5376
-38.4277	602.03	19.5571
-38.42786	602.842	19.57666
-38.4247	585.803	19.5962
-38.4227	599.177	19.6157
-38.4208	605.2605	19.6353
-38.4198	587.522	19.6548
-38.4177	593.695	19.6743
-38.4157	606.203	19.6938
-38.4142	587.447	19.7134
-38.4134	589.437	19.73291
-38.411	607.701	19.7524
-38.4107	591.928	19.772
-38.4083	586.057	19.7915
-38.4059	604.666	19.811
-38.405	595.493	19.8306
-38.4048	585.014	19.8501
-38.401	603.8136	19.8696
-38.4001	596.496	19.88916
-38.3983	583.978	19.9087
-38.3969	596.809	19.9282
-38.3947	602.687	19.9478
-38.3927	584.706	19.9673
-38.3915	595.092	19.9868
-38.3898	600.771	20.0063
-38.3886	593.864	20.0161

Data Header:			0.254_solid_uprint_typeiv_4545_r0			Time:	34.2524	s	4/13/2019 6:42:09 PM
Data Acquisition:	Timed
Station Name:	ft40.cfg
Test File Name:	Type IV_Monotonic.tst
Displacement	Force	Running Time
mm	N	s
-38.3882	587.226	20.0259
-38.38805	583.382	20.0356
-38.38728	586.58	20.04541
-38.3864	598.6344	20.0552
-38.3854	604.607	20.0649
-38.38446	598.951	20.0747
-38.385	590.3952	20.0845
-38.3829	582.345	20.0942
-38.3818	587.922	20.104
-38.3809	594.19	20.11377
-38.381	600.6532	20.1235
-38.3795	601.7337	20.1333
-38.3793	594.644	20.1431
-38.3786	586.104	20.1528
-38.3779	580.946	20.1626
-38.37582	587.4566	20.1724
-38.3765	600.302	20.1821
-38.375	602.351	20.1919
-38.3737	598.31	20.20166
-38.3729	584.303	20.2114
-38.3723	581.635	20.2212
-38.3709	587.105	20.231
-38.3703	594.072	20.2407
-38.36982	602.9812	20.2505
-38.3695	600.359	20.2603
-38.36702	591.628	20.27002
-38.3669	581.718	20.2798
-38.3676	579.6535	20.2896
-38.366	591.441	20.2993
-38.3658	602.632	20.3091
-38.3641	603.13	20.3188
-38.3638	593.749	20.3286
-38.3633	583.262	20.3384
-38.3621	581.429	20.3481
-38.3611	587.748	20.35791
-38.3597	598.231	20.3677
-38.3602	602.114	20.3774
-38.3592	598.5072	20.3872
-38.3587	586.51	20.397
-38.3574	578.395	20.4067
-38.3557	581.8949	20.4165
-38.3561	593.075	20.42627
-38.3542	603.0824	20.436
-38.3528	597.756	20.4458
-38.353	589.719	20.4556
-38.3527	582.304	20.4653
-38.351	580.357	20.4751
-38.3506	589.113	20.4849
-38.3499	595.378	20.4946
-38.3484	602.8783	20.5044
-38.3479	595.375	20.51416
-38.3463	582.265	20.5239
-38.3461	580.757	20.5337
-38.3456	584.067	20.5435
-38.3451	595.79	20.5532
-38.3439	599.808	20.563
-38.3415	594.794	20.5728
-38.3416	588.24	20.58252
-38.3403	581.8006	20.5923
-38.3412	580.8	20.6021
-38.3401	588.532	20.6118
-38.3385	598.812	20.6216
-38.339	600.669	20.6313
-38.3381	590.818	20.6411
-38.3358	584.495	20.6509
-38.3355	579.839	20.6606
-38.3352	586.871	20.67041
-38.3355	595.953	20.6802
-38.33345	598.5304	20.6899
-38.3326	595.049	20.6997
-38.3321	589.166	20.7095
-38.3311	580.764	20.7192
-38.3297	580.39	20.729
-38.3296	590.724	20.73877
-38.3283	598.754	20.7485
-38.3269	599.052	20.7583
-38.3272	588.995	20.7681
-38.3252	578.994	20.7778
-38.3249	579.94	20.7876
-38.3242	586.175	20.7974
-38.3235	594.325	20.8071
-38.323	599.902	20.8169
-38.3206	593.476	20.82666
-38.3208	584.744	20.8364
-38.3199	577.383	20.8462
-38.3195	580.283	20.856
-38.3185	592.383	20.8657
-38.318	601.234	20.8755
-38.3168	596.804	20.8853
-38.3171	584.591	20.89502
-38.315	576.886	20.9048
-38.3145	579.192	20.9146
-38.3132	585.454	20.9243
-38.3132	597.214	20.9341
-38.3118	598.834	20.9438
-38.3122	591.727	20.9536
-38.3121	582.04	20.9634
-38.3092	575.289	20.9731
-38.3084	583.034	20.98291
-38.3088	595.082	20.9927
-38.3084	598.989	21.0024
-38.3063	592.182	21.0122
-38.3049	580.702	21.022
-38.3059	577.221	21.0317
-38.3035	579.352	21.0415
-38.3043	588.428	21.05127
-38.3019	596.714	21.061
-38.3017	597.95	21.0708
-38.2999	588.623	21.0806
-38.29953	577.162	21.0903
-38.2995	576.629	21.1001
-38.2983	587.288	21.1099
-38.2968	596.845	21.1196
-38.2966	595.89	21.1294
-38.2953	589.1709	21.13916
-38.2955	580.348	21.1489
-38.29438	578.78	21.1587
-38.2937	581.15	21.1685
-38.2923	589.526	21.1782
-38.2915	596.796	21.188
-38.2911	594.426	21.1978
-38.2902	582.725	21.20752
-38.2895	578.24	21.2173
-38.2896	577.594	21.2271
-38.288	588.793	21.2368
-38.2868	594.776	21.2466
-38.2867	593.524	21.2563
-38.2854	588.633	21.2661
-38.2852	578.823	21.2759
-38.28421	576.68	21.2856
-38.2833	580.742	21.29541
-38.2815	589.787	21.3052
-38.2799	597.741	21.3149
-38.2801	591.588	21.3247
-38.2793	584.043	21.3345
-38.2791	576.022	21.3442
-38.2789	577.888	21.354
-38.2766	588.106	21.36377
-38.27578	592.293	21.3735
-38.27552	595.724	21.3833
-38.27507	586.76	21.3931
-38.2728	579.311	21.4028
-38.272	574.025	21.4126
-38.2719	580.8717	21.4224
-38.2724	590.129	21.4321
-38.2697	595.963	21.4419
-38.2694	589.896	21.45166
-38.269	577.423	21.4614
-38.26712	574.917	21.4712
-38.2672	578.37	21.481
-38.2658	587.347	21.4907
-38.2662	595.158	21.5005
-38.2656	593.358	21.5103
-38.2641	585.803	21.52002
-38.26342	574.266	21.5298
-38.2621	571.768	21.5396
-38.262	583.6897	21.5493
-38.26181	593.291	21.5591
-38.2606	597.554	21.5688
-38.2591	585.9787	21.5786
-38.2585	576.9043	21.5884
-38.2578	575.334	21.5981
-38.257	580.022	21.60791
-38.25563	590.618	21.6177
-38.2552	594.286	21.6274
-38.2546	592.075	21.6372
-38.2521	580.564	21.647
-38.2526	570.691	21.6567
-38.2515	576.063	21.6665
-38.25095	587.235	21.67627
-38.2501	593.255	21.686
-38.2498	592.165	21.6958
-38.2492	582.486	21.7056
-38.2476	574.881	21.7153
-38.2464	575.588	21.7251
-38.2463	581.3	21.7349
-38.2451	589.905	21.7446
-38.2448	593.447	21.7544
-38.243	588.97	21.76416
-38.2433	576.736	21.7739
-38.2423	572.115	21.7837
-38.24157	578.585	21.7935
-38.2406	589.577	21.8032
-38.2397	592.5752	21.813
-38.2385	589.367	21.8228
-38.2386	580.888	21.83252
-38.2365	575.729	21.8423
-38.2366	575.963	21.8521
-38.2358	581.6366	21.8618
-38.2353	591.733	21.8716
-38.2345	592.686	21.8813
-38.2332	585.664	21.8911
-38.2336	577.107	21.9009
-38.2314	572.473	21.9106
-38.2316	579.91	21.92041
-38.2296	588.34	21.9302
-38.2294	590.551	21.9399
-38.2283	587.058	21.9497
-38.2281	578.979	21.9595
-38.2271	574.062	21.9692
-38.2261	573.589	21.979
-38.2258	582.271	21.98877
-38.2237	590.52	21.9985
-38.2227	593.349	22.0083
-38.222	582.608	22.0181
-38.2214	571.742	22.0278
-38.2225	571.027	22.0376
-38.2201	580.356	22.0474
-38.2194	586.761	22.0571
-38.2191	593.299	22.0669
-38.218	588.622	22.07666
-38.2164	578.776	22.0864
-38.2147	571.274	22.0962
-38.2165	573.387	22.106
-38.2139	584.286	22.1157
-38.2134	595.586	22.1255
-38.2119	590.29	22.1353
-38.2116	578.273	22.14502
-38.21109	572.162	22.1548
-38.2105	573.016	22.1646
-38.2095	580.825	22.1743
-38.2084	589.9007	22.1841
-38.2084	592.09	22.1938
-38.2065	585.0058	22.2036
-38.20533	573.541	22.2134
-38.2056	568.234	22.2231
-38.205	575.785	22.23291
-38.2035	589.055	22.2427
-38.2028	593.878	22.2524
-38.2021	586.4317	22.2622
-38.2001	574.364	22.272
-38.1997	570.017	22.2817
-38.2006	574.604	22.2915
-38.1989	584.14	22.30127
-38.1981	590.876	22.311
-38.1964	590.721	22.3208
-38.1969	582.3642	22.3306
-38.1957	570.227	22.3403
-38.195	571.896	22.3501
-38.1937	579.681	22.3599
-38.1939	591.606	22.3696
-38.1926	590.102	22.3794
-38.191	582.188	22.38916
-38.1908	574.827	22.3989
-38.1897	572.398	22.4087
-38.1885	574.767	22.4185
-38.1884	582.5907	22.4282
-38.18774	589.427	22.438
-38.1877	589.041	22.4478
-38.1857	578.774	22.45752
-38.186	570.5462	22.4673
-38.18499	571.235	22.4771
-38.1838	582.254	22.4868
-38.1819	588.8606	22.4966
-38.1824	588.198	22.5063
-38.1807	581.2157	22.5161
-38.1804	575.722	22.5259
-38.1792	570.928	22.5356
-38.1787	574.646	22.54541
-38.1774	584.112	22.5552
-38.1764	590.8136	22.5649
-38.176	587.941	22.5747
-38.17519	577.716	22.5845
-38.1746	568.628	22.5942
-38.1736	572.491	22.604
-38.1718	582.392	22.61377
-38.1721	587.736	22.6235
-38.1712	588.48	22.6333
-38.17	580.694	22.6431
-38.1698	574.519	22.6528
-38.1691	570.099	22.6626
-38.1677	575.765	22.6724
-38.1662	586.458	22.6821
-38.1667	591.2674	22.6919
-38.1655	586.465	22.70166
-38.1653	573.712	22.7114
-38.1638	567.765	22.7212
-38.1631	575.1676	22.731
-38.1631	581.654	22.7407
-38.1619	590.844	22.7505
-38.1603	587.852	22.7603
-38.16	579.347	22.77002
-38.15958	569.367	22.7798
-38.1591	566.851	22.7896
-38.1574	575.709	22.7993
-38.1565	588.6087	22.8091
-38.1559	589.659	22.8188
-38.1547	580.329	22.8286
-38.153	569.2356	22.8384
-38.15369	567.918	22.8481
-38.1516	575.175	22.85791
-38.1514	585.4458	22.8677
-38.1511	587.963	22.8774
-38.1505	584.9	22.8872
-38.1494	575.925	22.897
-38.1481	566.55	22.9067
-38.1475	572.123	22.9165
-38.1468	581.38	22.92627
-38.1448	590.861	22.936
-38.145	586.053	22.9458
-38.1449	576.182	22.9556
-38.1436	569.333	22.9653
-38.1436	569.352	22.9751
-38.1422	577.053	22.9849
-38.1409	584.187	22.9946
-38.1401	589.205	23.0044
-38.1398	582.895	23.01416
-38.1391	572.5	23.0239
-38.1378	568.84	23.0337
-38.139	572.48	23.0435
-38.1364	582.266	23.0532
-38.1358	589.473	23.063
-38.1345	583.036	23.0728
-38.133	576.958	23.08252
-38.1329	568.968	23.0923
-38.1316	568.885	23.1021
-38.1314	577.986	23.1118
-38.131	584.001	23.1216
-38.1298	588.2323	23.1313
-38.1288	581.626	23.1411
-38.1281	570.898	23.1509
-38.1269	567.883	23.1606
-38.1267	573.841	23.17041
-38.12492	584.208	23.1802
-38.125	587.158	23.1899
-38.1236	584.033	23.1997
-38.1239	575.098	23.2095
-38.1231	567.839	23.2192
-38.1209	568.164	23.229
-38.121	577.6637	23.23877
-38.1207	585.893	23.2485
-38.1185	588.9491	23.2583
-38.1173	578.598	23.2681
-38.11731	566.779	23.2778
-38.1171	567.112	23.2876
-38.1157	574.578	23.2974
-38.1154	582.728	23.3071
-38.1147	587.862	23.3169
-38.1138	581.942	23.32666
-38.1132	573.125	23.3364
-38.1117	566.496	23.3462
-38.11097	568.829	23.356
-38.1104	580.985	23.3657
-38.10915	588.022	23.3755
-38.1089	587.58	23.3853
-38.1079	574.244	23.39502
-38.1076	562.859	23.4048
-38.10585	567.5434	23.4146
-38.1059	575.1698	23.4243
-38.104	585.887	23.4341
-38.1033	585.448	23.4438
-38.103	579.621	23.4536
-38.1017	569.266	23.4634
-38.1007	564.201	23.4731
-38.1002	571.319	23.48291
-38.1008	582.637	23.4927
-38.0977	588.8562	23.5024
-38.0979	581.744	23.5122
-38.097	570.31	23.522
-38.0966	564.505	23.5317
-38.0952	569.326	23.5415
-38.0945	579.471	23.55127
-38.09478	584.334	23.561
-38.0936	585.27	23.5708
-38.0921	577.192	23.5806
-38.0921	567.504	23.5903
-38.0898	566.425	23.6001
-38.0902	573.141	23.6099
-38.0897	584.153	23.6196
-38.0886	585.405	23.6294
-38.0893	577.756	23.63916
-38.0872	569.922	23.6489
-38.086	566.625	23.6587
-38.0852	571.466	23.6685
-38.0845	577.196	23.6782
-38.0838	584.31	23.688
-38.0827	584.666	23.6978
-38.0818	573.297	23.70752
-38.081	566.535	23.7173
-38.0801	565.21	23.7271
-38.079	575.067	23.7368
-38.0791	585.068	23.7466
-38.0769	582.048	23.7563
-38.0762	576.805	23.7661
-38.0759	568.642	23.7759
-38.0745	565.604	23.7856
-38.0743	569.448	23.79541
-38.0725	576.966	23.8052
-38.0732	585.084	23.8149
-38.0715	582.861	23.8247
-38.0707	573.074	23.8345
-38.0705	562.956	23.8442
-38.0693	565.411	23.854
-38.0683	576.276	23.86377
-38.06794	584.159	23.8735
-38.0674	584.634	23.8833
-38.06604	576.08	23.8931
-38.0654	568.55	23.9028
-38.0643	563.993	23.9126
-38.06358	569.971	23.9224
-38.0632	579.07	23.9321
-38.0621	586.6731	23.9419
-38.0606	580.514	23.95166
-38.0611	567.047	23.9614
-38.0612	562.637	23.9712
-38.058	568.699	23.981
-38.058	578.4823	23.9907
-38.0573	583.866	24.0005
-38.0567	580.783	24.0103
-38.0552	573.547	24.02002
-38.05616	565.699	24.0298
-38.0544	562.425	24.0396
-38.05175	573.721	24.0493
-38.0521	581.724	24.0591
-38.0506	586.773	24.0688
-38.05175	577.683	24.0786
-38.0497	564.383	24.0884
-38.0485	563.197	24.0981
-38.0474	570.827	24.10791
-38.0482	580.046	24.1177
-38.0473	581.882	24.1274
-38.0451	580.172	24.1372
-38.04644	572.136	24.147
-38.0443	563.059	24.1567
-38.0438	567.52	24.1665
-38.0435	575.584	24.17627
-38.0414	584.635	24.186
-38.0405	582.315	24.1958
-38.0404	571.1604	24.2056
-38.04	564.187	24.2153
-38.03957	566.348	24.2251
-38.0381	571.767	24.2349
-38.036	579.088	24.2446
-38.0364	583.325	24.2544
-38.0353	577.543	24.26416
-38.034	569.3374	24.2739
-38.0352	562.323	24.2837
-38.032	566.108	24.2935
-38.0328	578.462	24.3032
-38.0314	582.509	24.313
-38.0307	579.527	24.3228
-38.0299	571.883	24.33252
-38.02911	564.343	24.3423
-38.0277	566.408	24.3521
-38.0276	571.5	24.3618
-38.0257	578.602	24.3716
-38.0246	581.0708	24.3813
-38.0236	575.756	24.3911
-38.0236	567.148	24.4009
-38.0232	560.665	24.4106
-38.0222	568.135	24.42041
-38.0221	578.689	24.4302
-38.021	581.4	24.4399
-38.0205	580.6582	24.4497
-38.0184	569.223	24.4595
-38.0191	562.999	24.4692
-38.018	564.593	24.479
-38.0164	571.108	24.48877
-38.016	581.444	24.4985
-38.0145	582.834	24.5083
-38.0143	573.338	24.5181
-38.014	563.922	24.5278
-38.0111	561.235	24.5376
-38.012	569.664	24.5474
-38.0113	579.656	24.5571
-38.011	583.833	24.5669
-38.00914	576.506	24.57666
-38.0081	567.332	24.5864
-38.0072	561.228	24.5962
-38.00676	564.154	24.606
-38.0063	575.3324	24.6157
-38.0055	583.286	24.6255
-38.0042	582.424	24.6353
-38.0031	569.017	24.64502
-38.0036	561.754	24.6548
-38.0025	563.053	24.6646
-38.0012	574.121	24.6743
-38.0005	582.04	24.6841
-37.9984	579.279	24.6938
-37.9985	574.5213	24.7036
-37.9979	565.426	24.7134
-37.99728	559.662	24.7231
-37.9954	569.579	24.73291
-37.9956	577.077	24.7427
-37.9948	585.158	24.7524
-37.9939	578.538	24.7622
-37.9931	565.481	24.772
-37.99073	560.028	24.7817
-37.9919	565.116	24.7915
-37.9908	573.977	24.80127
-37.9908	581.446	24.811
-37.98988	578.703	24.8208
-37.9891	573.708	24.8306
-37.98735	563.355	24.8403
-37.9859	562.22	24.8501
-37.9857	570.202	24.8599
-37.9847	579.389	24.8696
-37.9841	583.006	24.8794
-37.9832	573.425	24.88916
-37.9831	567.402	24.8989
-37.9821	561.849	24.9087
-37.9815	567.731	24.9185
-37.9803	575.408	24.9282
-37.9801	580.402	24.938
-37.978	578.7691	24.9478
-37.9766	571.992	24.95752
-37.9776	562.788	24.9673
-37.9766	562.621	24.9771
-37.9752	570.426	24.9868
-37.9739	580.241	24.9966
-37.9724	580.41	25.0063
-37.9728	574.651	25.0161
-37.9725	564.381	25.0259
-37.9721	563.352	25.0356
-37.9702	568.357	25.04541
-37.9708	575.148	25.0552
-37.9684	580.352	25.0649
-37.9678	578.411	25.0747
-37.967	571.091	25.0845
-37.9669	559.174	25.0942
-37.9649	564.182	25.104
-37.9641	573.294	25.11377
-37.964	579.669	25.1235
-37.9632	581.62	25.1333
-37.9621	571.896	25.1431
-37.9617	563.594	25.1528
-37.9607	562.442	25.1626
-37.96	565.9118	25.1724
-37.9591	578.457	25.1821
-37.9581	582.832	25.1919
-37.957	577.242	25.20166
-37.956	565.08	25.2114
-37.9545	557.655	25.2212
-37.9535	564.92	25.231
-37.9553	577.761	25.2407
-37.9535	582.644	25.2505
-37.9521	578.496	25.2603
-37.9508	568.628	25.27002
-37.9503	561.786	25.2798
-37.9496	560.971	25.2896
-37.949	569.725	25.2993
-37.94899	578.927	25.3091
-37.948	582.117	25.3188
-37.9467	572.754	25.3286
-37.9451	562.205	25.3384
-37.9445	558.313	25.3481
-37.9443	569.901	25.35791
-37.9443	576.706	25.3677
-37.9427	579.268	25.3774
-37.9427	574.473	25.3872
[...]
-37.8477	574.16	26.5103
-37.8468	565.386	26.52002
-37.8477	557.992	26.5298
-37.8457	557.624	26.5396
-37.8443	569.793	26.5493
-37.8452	576.583	26.5591
-37.844	578.165	26.5688
-37.8421	571.1748	26.5786
-37.8422	558.096	26.5884
-37.8412	556.8576	26.5981
-37.8401	564.583	26.60791
-37.8395	574.548	26.6177
-37.8389	576.993	26.6274
-37.8382	570.655	26.6372
-37.8367	564.209	26.647
-37.8357	557.27	26.6567
-37.8355	559.815	26.6665
-37.8348	567.841	26.67627
-37.8334	578.117	26.686
-37.8323	576.484	26.6958
-37.8319	565.717	26.7056
-37.8312	559.123	26.7153
-37.8303	557.847	26.7251
-37.8296	564.594	26.7349
-37.8275	571.785	26.7446
-37.8271	575.717	26.7544
-37.82645	569.769	26.76416
-37.8259	563.851	26.7739
-37.8255	557.123	26.7837
-37.825	557.649	26.7935
-37.8235	570.358	26.8032
-37.8226	577.9364	26.813
-37.8221	574.015	26.8228
-37.8212	567.097	26.83252
-37.8207	556.808	26.8423
-37.8189	559.23	26.8521
-37.8193	566.457	26.8618
-37.8182	571.899	26.8716
-37.8173	575.063	26.8813
-37.8172	570.284	26.8911
-37.81654	563.097	26.9009
-37.8153	554.813	26.9106
-37.8147	559.102	26.92041
-37.8144	571.787	26.9302
-37.8108	576.997	26.9399
-37.8129	573.208	26.9497
-37.81	562.07	26.9595
-37.8093	555.517	26.9692
-37.8099	558.646	26.979
-37.8082	565.323	26.98877
-37.8076	575.399	26.9985
-37.8064	576.1394	27.0083
-37.8062	568.042	27.0181
-37.8052	557.533	27.0278
-37.8047	553.249	27.0376
-37.80349	563.136	27.0474
-37.803	574.594	27.0571
-37.8017	577.441	27.0669
-37.8006	569.9632	27.07666
-37.8011	560.502	27.0864
-37.7986	556.452	27.0962
-37.7974	559.03	27.106
-37.7982	569.922	27.1157
-37.7976	575.826	27.1255
-37.7962	575.61	27.1353
-37.7956	562.7041	27.14502
-37.7939	553.503	27.1548
-37.794	555.564	27.1646
-37.79372	566.412	27.1743
-37.7919	575.393	27.1841
-37.7908	573.197	27.1938
-37.7899	566.621	27.2036
-37.7896	558.9447	27.2134
-37.7892	554.954	27.2231
-37.7874	562.089	27.23291
-37.7872	569.487	27.2427
-37.7856	576.301	27.2524
-37.7846	572.268	27.2622
-37.7846	557.267	27.272
-37.7841	555.618	27.2817
-37.7832	558.325	27.2915
-37.78159	568.736	27.30127
-37.78035	574.126	27.311
-37.78	571.056	27.3208
-37.77911	565.0174	27.3306
-37.7799	557.852	27.3403
-37.77795	556.768	27.3501
-37.77737	562.063	27.3599
-37.7774	572.174	27.3696
-37.7753	575.405	27.3794
-37.7754	567.71	27.38916
-37.7747	559.389	27.3989
-37.7742	554.157	27.4087
-37.7727	560.931	27.4185
-37.7709	569.033	27.4282
-37.7711	572.574	27.438
-37.7699	572.43	27.4478
-37.7695	564.03	27.45752
-37.7687	556.842	27.4673
-37.7685	553.996	27.4771
-37.7664	563.408	27.4868
-37.7652	574.134	27.4966
-37.7651	576.5484	27.5063
-37.7643	568.33	27.5161
-37.7639	556.399	27.5259
-37.7632	555.698	27.5356
-37.7619	560.7132	27.54541
-37.7613	568.27	27.5552
-37.7607	575.834	27.5649
-37.7594	570.268	27.5747
-37.7593	563.347	27.5845
-37.7582	553.5415	27.5942
-37.7566	553.467	27.604
-37.7555	566.456	27.61377
-37.755	574.612	27.6235
-37.7532	575.541	27.6333
-37.7536	563.1767	27.6431
-37.7532	554.62	27.6528
-37.7524	555.1543	27.6626
-37.7505	560.618	27.6724
-37.7506	572.093	27.6821
-37.7492	574.541	27.6919
-37.74913	569.813	27.70166
-37.7481	559.8	27.7114
-37.7472	551.511	27.7212
-37.7469	555.248	27.731
-37.74604	570.156	27.7407
-37.7438	575.724	27.7505
-37.744	570.615	27.7603
-37.7444	559.764	27.77002
-37.7422	553.821	27.7798
-37.7418	556.112	27.7896
-37.7413	564.737	27.7993
-37.7396	572.555	27.8091
-37.7393	574.266	27.8188
-37.7384	565.307	27.8286
-37.7372	554.785	27.8384
-37.7366	552.884	27.8481
-37.7359	559.911	27.85791
-37.7346	571.422	27.8677
-37.7341	573.144	27.8774
-37.7334	567.245	27.8872
-37.7326	560.04	27.897
-37.7316	554.24	27.9067
-37.7311	558.964	27.9165
-37.7304	564.532	27.92627
-37.7294	573.741	27.936
-37.7275	574.365	27.9458
-37.727	561.481	27.9556
-37.7269	555.701	27.9653
-37.7256	553.4693	27.9751
-37.7253	561.905	27.9849
-37.7246	571.569	27.9946
-37.7229	571.758	28.0044
-37.7233	568.309	28.01416
-37.7224	558.612	28.0239
-37.7221	554.316	28.0337
-37.7214	556.504	28.0435
-37.7196	565.197	28.0532
-37.7187	575.106	28.063
-37.71817	571.98	28.0728
-37.7186	562.094	28.08252
-37.7169	553.839	28.0923
-37.7159	555.989	28.1021
-37.7153	561.206	28.1118
-37.7151	569.856	28.1216
-37.712	572.541	28.1313
-37.7119	567.941	28.1411
-37.711	558.585	28.1509
-37.7104	552.5047	28.1606
-37.7089	556.533	28.17041
-37.7092	567.951	28.1802
-37.7075	576.122	28.1899
-37.7068	569.706	28.1997
-37.7063	557.709	28.2095
-37.7052	552.243	28.2192
-37.7058	555.422	28.229
-37.7038	563.342	28.23877
-37.7032	573.993	28.2485
-37.7017	572.065	28.2583
-37.70097	565.322	28.2681
-37.7017	553.852	28.2778
-37.6993	550.904	28.2876
-37.69912	559.089	28.2974
-37.6973	571.255	28.3071
-37.6972	575.229	28.3169
-37.6965	565.816	28.32666
-37.6956	555.615	28.3364
-37.6949	553.149	28.3462
-37.6935	555.134	28.356
-37.6934	568.8739	28.3657
-37.6928	572.108	28.3755
-37.6916	570.635	28.3853
-37.6912	562.448	28.39502
-37.6898	549.395	28.4048
-37.6896	552.388	28.4146
-37.6884	563.293	28.4243
-37.688	572.867	28.4341
-37.6865	572.091	28.4438
-37.6858	562.077	28.4536
-37.6859	554.629	28.4634
-37.6857	553.3595	28.4731
-37.6845	558.991	28.48291
-37.6832	566.274	28.4927
-37.6816	573.568	28.5024
-37.6808	567.686	28.5122
-37.6796	556.646	28.522
-37.6799	551.558	28.5317
-37.68	554.661	28.5415
-37.6774	565.928	28.55127
-37.6781	570.775	28.561
-37.6762	568.581	28.5708
-37.6761	561.51	28.5806
-37.6739	555.169	28.5903
-37.6747	554.814	28.6001
-37.6726	558.832	28.6099
-37.6729	568.269	28.6196
-37.6715	575.447	28.6294
-37.6703	565.478	28.63916
-37.6689	559.43	28.6489
-37.66721	551.456	28.6587
-37.6689	556.567	28.6685
-37.668	567.876	28.6782
-37.6656	569.632	28.688
-37.6661	569.701	28.6978
-37.6643	561.948	28.70752
-37.6637	552.137	28.7173
-37.66378	553.289	28.7271
-37.6624	559.394	28.7368
-37.6616	571.349	28.7466
-37.6609	573.731	28.7563
-37.6614	564.655	28.7661
-37.6592	555.445	28.7759
-37.6602	551.565	28.7856
-37.6575	557.789	28.79541
-37.6572	565.123	28.8052
-37.6564	572.266	28.8149
-37.655	567.628	28.8247
-37.6551	559.002	28.8345
-37.6536	551.464	28.8442
-37.6526	552.151	28.854
-37.652	562.378	28.86377
-37.6515	574.1637	28.8735
-37.6493	571.488	28.8833
-37.6497	560.808	28.8931
-37.6472	552.702	28.9028
-37.648	552.665	28.9126
-37.6465	559.562	28.9224
-37.6462	570.183	28.9321
-37.6453	572.174	28.9419
-37.644	568.437	28.95166
-37.6432	557.1908	28.9614
-37.6436	547.993	28.9712
-37.6424	555.644	28.981
-37.6404	565.939	28.9907
-37.6419	574.062	29.0005
-37.6388	568.179	29.0103
-37.6388	557.249	29.02002
-37.6383	553.223	29.0298
-37.6379	553.941	29.0396
-37.63702	562.791	29.0493
-37.6355	568.538	29.0591
-37.6345	570.093	29.0688
-37.6342	564.562	29.0786
-37.6338	553.19	29.0884
-37.6326	551.0918	29.0981
-37.6322	556.448	29.10791
-37.6322	566.685	29.1177
-37.6305	572.127	29.1274
-37.6298	564.618	29.1372
-37.6278	555.146	29.147
-37.6284	551.906	29.1567
-37.6261	554.5163	29.1665
-37.6271	560.391	29.17627
-37.6248	571.085	29.186
-37.6247	569.949	29.1958
-37.623	561.134	29.2056
-37.6214	553.855	29.2153
-37.6223	550.56	29.2251
-37.6213	560.537	29.2349
-37.62	567.35	29.2446
-37.6199	569.528	29.2544
-37.6181	563.616	29.26416
-37.6179	555.024	29.2739
-37.618	554.308	29.2837
-37.6163	552.856	29.2935
-37.61607	564.4826	29.3032
-37.6148	571.097	29.313
-37.6125	569.369	29.3228
-37.6134	559.784	29.33252
-37.613	549.676	29.3423
-37.6113	553.3631	29.3521
-37.6096	562.331	29.3618
-37.61018	567.722	29.3716
-37.61005	570.928	29.3813
-37.6078	564.444	29.3911
-37.6074	554.993	29.4009
-37.6076	550.413	29.4106
-37.6062	552.1	29.42041
-37.60516	565.715	29.4302
-37.6039	573.184	29.4399
-37.6033	568.563	29.4497
-37.6025	556.319	29.4595
-37.602	548.76	29.4692
-37.6023	552.957	29.479
-37.5994	561.9505	29.48877
-37.5988	571.845	29.4985
-37.5981	570.067	29.5083
-37.5973	560.859	29.5181
-37.5955	551.9397	29.5278
-37.5965	548.87	29.5376
-37.5955	556.93	29.5474
-37.5933	569.966	29.5571
-37.594	571.835	29.5669
-37.5922	563.376	29.57666
-37.5911	553.201	29.5864
-37.5905	548.753	29.5962
-37.5906	554.906	29.606
-37.5899	564.859	29.6157
-37.589	569.35	29.6255
-37.5884	568.009	29.6353
-37.5885	559.273	29.64502
-37.5867	548.755	29.6548
-37.5844	552.2453	29.6646
-37.58482	560.898	29.6743
-37.5837	572.003	29.6841
-37.58345	570.178	29.6938
-37.5813	560.291	29.7036
-37.5813	551.561	29.7134
-37.5816	550.671	29.7231
-37.5791	557.076	29.73291
-37.5795	563.948	29.7427
-37.5775	568.931	29.7524
-37.5771	565.748	29.7622
-37.577	554.778	29.772
-37.5759	550.817	29.7817
-37.5742	550.785	29.7915
-37.57386	562.089	29.80127
-37.573	570.334	29.811
-37.5719	565.87	29.8208
-37.5723	558.338	29.8306
-37.5711	551.947	29.8403
-37.5703	551.227	29.8501
-37.56818	556.257	29.8599
-37.5693	565.9765	29.8696
-37.5674	569.674	29.8794
-37.5664	564.968	29.88916
-37.5665	555	29.8989
-37.565	548.0658	29.9087
-37.5644	554.624	29.9185
-37.5633	564.402	29.9282
-37.56258	567.546	29.938
-37.5619	567.45	29.9478
-37.5607	558.278	29.95752
-37.5602	551.371	29.9673
-37.55901	549.606	29.9771
-37.5579	556.344	29.9868
-37.5579	566.714	29.9966
-37.5565	570.459	30.0063
-37.5557	562.822	30.0161
-37.5552	549.417	30.0259
-37.5549	549.224	30.0356
-37.555	556.168	30.04541
-37.5529	563.996	30.0552
-37.5527	571.287	30.0649
-37.5507	564.046	30.0747
-37.5507	556.545	30.0845
-37.5503	549.463	30.0942
-37.5482	548.736	30.104
-37.5477	561.409	30.11377
-37.5475	571.281	30.1235
-37.545	568.331	30.1333
-37.5454	558.276	30.1431
-37.546	548.2843	30.1528
-37.5435	549.535	30.1626
-37.5433	558.146	30.1724
-37.542	566.262	30.1821
-37.5421	567.976	30.1919
-37.5414	564.577	30.20166
-37.5398	554.013	30.2114
-37.5393	545.715	30.2212
-37.5393	551.903	30.231
-37.5369	563.8277	30.2407
-37.5372	569.245	30.2505
-37.5355	564.935	30.2603
-37.535	553.898	30.27002
-37.5344	546.399	30.2798
-37.5333	550.808	30.2896
-37.5321	558.776	30.2993
-37.5323	564.624	30.3091
-37.5317	567.197	30.3188
-37.5303	560.2016	30.3286
-37.52919	550.808	30.3384
-37.5291	549.412	30.3481
-37.52697	552.417	30.35791
-37.5265	565.183	30.3677
-37.52607	566.959	30.3774
-37.52496	561.44	30.3872
-37.5235	553.226	30.397
-37.5245	548.877	30.4067
-37.5219	551.521	30.4165
-37.5215	559.699	30.42627
-37.5202	564.935	30.436
-37.5201	567.182	30.4458
-37.51841	559.254	30.4556
-37.5195	549.811	30.4653
-37.518	545.462	30.4751
-37.5167	555.089	30.4849
-37.5172	567.131	30.4946
-37.5163	566.029	30.5044
-37.5159	562.973	30.51416
-37.513	552.886	30.5239
-37.5126	548.142	30.5337
-37.5124	551.659	30.5435
-37.5118	559.718	30.5532
-37.5103	566.493	30.563
-37.5081	565.921	30.5728
-37.50943	556.154	30.58252
-37.5087	548.092	30.5923
-37.5076	547.76	30.6021
-37.5061	558.13	30.6118
-37.50642	565.91	30.6216
-37.5049	567.707	30.6313
-37.5043	559.292	30.6411
-37.5043	552.361	30.6509
-37.503	546.4223	30.6606
-37.5022	550.222	30.67041
-37.5005	562.09	30.6802
-37.4997	568.225	30.6899
-37.4983	564.464	30.6997
-37.4985	551.631	30.7095
-37.4977	544.689	30.7192
-37.4963	549.1355	30.729
-37.4958	558.202	30.73877
-37.4946	567.8938	30.7485
-37.4947	564.379	30.7583
-37.49308	558.097	30.7681
-37.4922	548.866	30.7778
-37.4922	544.576	30.7876
-37.4908	554.244	30.7974
-37.48925	564.245	30.8071
-37.489	567.91	30.8169
-37.4884	561.143	30.82666
-37.4884	547.862	30.8364
-37.4874	547.726	30.8462
-37.48592	552.613	30.856
-37.4857	562.261	30.8657
-37.4845	565.66	30.8755
-37.483	563.429	30.8853
-37.4827	555.48	30.89502
-37.482	546.3631	30.9048
-37.4807	548.23	30.9146
-37.4808	556.638	30.9243
-37.4804	566.141	30.9341
-37.4785	565.6864	30.9438
-37.4784	555.75	30.9536
-37.4763	548.349	30.9634
-37.4764	548.3468	30.9731
-37.4758	552.708	30.98291
-37.4745	559.409	30.9927
-37.47438	564.407	31.0024
-37.4742	561.442	31.0122
-37.4728	553.3042	31.022
-37.4712	546.611	31.0317
-37.4707	546.046	31.0415
-37.4695	558.924	31.05127
-37.46899	566.228	31.061
-37.4683	563.234	31.0708
-37.4673	557.46	31.0806
-37.4648	547.714	31.0903
-37.4657	547.191	31.1001
-37.4659	552.182	31.1099
-37.4648	559.28	31.1196
-37.4636	565.964	31.1294
-37.4631	559.602	31.13916
-37.4612	551.254	31.1489
-37.4601	545.386	31.1587
-37.4596	547.363	31.1685
-37.4595	561.375	31.1782
-37.4589	563.058	31.188
-37.4568	563.242	31.1978
-37.4572	553.411	31.20752
-37.4569	547.4422	31.2173
-37.4552	546.641	31.2271
-37.4548	552.1106	31.2368
-37.4545	562.2005	31.2466
-37.4531	567.675	31.2563
-37.4511	559.463	31.2661
-37.4519	548.125	31.2759
-37.45	543.844	31.2856
-37.4505	550.472	31.29541
-37.4486	561.727	31.3052
-37.4481	566.541	31.3149
-37.4466	560.04	31.3247
-37.4472	551.859	31.3345
-37.4445	544.521	31.3442
-37.4446	545.58	31.354
-37.4435	555.69	31.36377
-37.4422	564.862	31.3735
-37.4416	566.159	31.3833
-37.4417	554.369	31.3931
-37.4402	544.323	31.4028
-37.43985	544.665	31.4126
-37.4386	553.733	31.4224
-37.4378	564.437	31.4321
-37.4375	563.921	31.4419
-37.4364	558.563	31.45166
-37.43681	550.612	31.4614
-37.436	541.84	31.4712
-37.4331	548.426	31.481
-37.4333	559.081	31.4907
-37.4325	566.535	31.5005
-37.4308	561.798	31.5103
-37.4309	549.671	31.52002
-37.43045	545.209	31.5298
-37.4288	545.767	31.5396
-37.4285	554.607	31.5493
-37.4277	561.722	31.5591
-37.4262	561.5863	31.5688
-37.4265	558.39	31.5786
-37.4254	547.018	31.5884
-37.4248	543.485	31.5981
-37.4235	549.478	31.60791
-37.4234	559.51	31.6177
-37.4221	565.594	31.6274
-37.4215	558.266	31.6372
-37.4203	548.112	31.647
-37.4194	545.05	31.6567
-37.4185	549.712	31.6665
-37.4181	553.296	31.67627
-37.4169	559.682	31.686
-37.4157	561.207	31.6958
-37.4157	555.57	31.7056
-37.4146	546.595	31.7153
-37.41449	542.994	31.7251
-37.4122	551.355	31.7349
-37.4119	561.815	31.7446
-37.4116	562.182	31.7544
-37.4109	557.955	31.76416
-37.4093	546.052	31.7739
-37.4089	544.409	31.7837
-37.4072	546.529	31.7935
-37.407	552.931	31.8032
-37.4058	561.454	31.813
-37.4055	561.039	31.8228
-37.4036	552.834	31.83252
-37.4041	541.775	31.8423
-37.4031	541.716	31.8521
-37.4021	551.983	31.8618
-37.4019	560.06	31.8716
-37.4019	562.815	31.8813
-37.3999	554.386	31.8911
-37.39835	545.689	31.9009
-37.3981	541.954	31.9106
-37.3968	543.615	31.92041
-37.3961	555.856	31.9302
-37.3958	562.163	31.9399
-37.3955	558.674	31.9497
-37.3943	547.317	31.9595
-37.3934	539.477	31.9692
-37.39257	543.399	31.979
-37.39119	553.793	31.98877
-37.3906	561.791	31.9985
-37.3902	559.348	32.0083
-37.38974	551.205	32.0181
-37.3888	542.58	32.0278
-37.3869	539.725	32.0376
-37.3866	547.133	32.0474
-37.3868	558.769	32.0571
-37.38509	562.297	32.0669
-37.3852	553.755	32.07666
-37.3841	542.039	32.0864
-37.3833	539.598	32.0962
-37.3812	545.825	32.106
-37.3812	555.32	32.1157
-37.3812	558.263	32.1255
-37.3794	557.922	32.1353
-37.3798	548.911	32.14502
-37.3774	539.555	32.1548
-37.3769	543.209	32.1646
-37.3758	548.6405	32.1743
-37.3757	558.665	32.1841
-37.3742	560.29	32.1938
-37.3737	550.137	32.2036
-37.3734	542.839	32.2134
-37.3728	539.85	32.2231
-37.3711	546.7793	32.23291
-37.3701	554.5022	32.2427
-37.3703	556.797	32.2524
-37.368	555.622	32.2622
-37.3677	546.7005	32.272
-37.3679	539.667	32.2817
-37.3659	540.073	32.2915
-37.3657	549.844	32.30127
-37.3643	559.711	32.311
-37.3638	556.453	32.3208
-37.3623	548.819	32.3306
-37.3625	539.435	32.3403
-37.3618	539.702	32.3501
-37.3601	545.251	32.3599
-37.3606	551.924	32.3696
-37.3583	556.058	32.3794
-37.358	554.0368	32.38916
-37.3568	543.351	32.3989
-37.357	535.364	32.4087
-37.3556	540.868	32.4185
-37.3553	551.2876	32.4282
-37.3541	556.781	32.438
-37.3518	556.1734	32.4478
-37.353	544.575	32.45752
-37.35173	538.714	32.4673
-37.35231	537.384	32.4771
-37.35096	544.7995	32.4868
-37.3497	554.77	32.4966
-37.3484	556.227	32.5063
-37.3482	550.418	32.5161
-37.3469	538.42	32.5259
-37.3459	532.424	32.5356
-37.346	542.183	32.54541
-37.3442	550.6181	32.5552
-37.3437	556.842	32.5649
-37.3427	549.677	32.5747
-37.3418	541.452	32.5845
-37.3417	536.214	32.5942
-37.3412	534.477	32.604
-37.3412	545.799	32.61377
-37.3398	554.422	32.6235
-37.3379	553.205	32.6333
-37.3363	545.356	32.6431
-37.3364	532.9801	32.6528
-37.3345	532.167	32.6626
-37.3346	543.0694	32.6724
-37.334	550.023	32.6821
-37.3329	552.632	32.6919
-37.3324	546.578	32.70166
-37.3317	536.01	32.7114
-37.3306	530.282	32.7212
-37.3299	534.0517	32.731
-37.3289	545.46	32.7407
-37.32835	552.0722	32.7505
-37.3278	548.925	32.7603
-37.32864	536.268	32.77002
-37.3264	529.698	32.7798
-37.3246	531.042	32.7896
-37.3237	539.223	32.7993
-37.323	545.998	32.8091
-37.3221	544.138	32.8188
-37.3213	539.417	32.8286
-37.3213	529.691	32.8384
-37.3208	526.401	32.8481
-37.32	527.673	32.85791
-37.3184	538.423	32.8677
-37.318	541.7	32.8774
-37.3175	532.516	32.8872
-37.3123	-18.2813	32.897
-37.31134	-30.4454	32.9067
-37.3119	-68.8339	32.9165
-37.31065	-35.2775	32.92627
-37.3109	-37.4432	32.936
-37.3104	-32.1951	32.9458
-37.3104	-38.6943	32.9556
-37.3089	-48.9827	32.9653
-37.3085	-52.6892	32.9751
-37.3076	-44.049	32.9849
-37.3063	-32.686	32.9946
-37.306	-32.22591	33.0044
-37.3053	-37.19878	33.01416
-37.3047	-47.6311	33.0239
-37.3046	-49.933	33.0337
-37.3035	-47.2456	33.0435
-37.3025	-39.03434	33.0532
-37.3014	-31.5542	33.063
-37.301	-32.7021	33.0728
-37.3008	-42.0273	33.08252
-37.2997	-53.31826	33.0923
-37.2979	-51.4423	33.1021
-37.2981	-42.1525	33.1118
-37.29678	-31.63818	33.1216
-37.2965	-32.3876	33.1313
-37.2952	-42.0154	33.1411
-37.2948	-48.1322	33.1509
-37.2925	-50.6855	33.1606
-37.2928	-46.5283	33.17041
-37.2917	-34.516	33.1802
-37.2917	-31.4867	33.1899
-37.2899	-35.4552	33.1997
-37.2897	-48.5639	33.2095
-37.2894	-54.2406	33.2192
-37.2887	-47.4685	33.229
-37.286	-37.18573	33.23877
-37.2858	-29.8062	33.2485
-37.2847	-36.0328	33.2583
-37.2856	-45.2584	33.2681
-37.28318	-49.179	33.2778
-37.2825	-51.1033	33.2876
-37.2819	-40.4437	33.2974
-37.2812	-33.6335	33.3071
-37.2801	-29.1436	33.3169
-37.2789	-38.1457	33.32666
-37.2793	-50.1551	33.3364
-37.2782	-51.5708	33.3462
-37.27702	-43.7269	33.356
-37.27644	-35.7521	33.3657
-37.2757	-32.4555	33.3755
-37.27393	-37.5505	33.3853
-37.2734	-45.4277	33.39502
-37.2731	-51.2439	33.4048
-37.2728	-48.6754	33.4146
-37.2703	-40.2235	33.4243
-37.2712	-31.465	33.4341
-37.2708	-32.9934	33.4438
-37.2698	-42.9671	33.4536
-37.2685	-50.3619	33.4634
-37.269	-49.3035	33.4731
-37.267	-40.0962	33.48291
-37.2675	-36.5451	33.4927
-37.2657	-33.5248	33.5024
-37.2644	-39.191	33.5122
-37.2635	-45.632	33.522
-37.2629	-50.12101	33.5317
-37.2625	-48.594	33.5415
-37.2623	-37.3959	33.55127
-37.26078	-30.4688	33.561
-37.2597	-36.2063	33.5708
-37.2592	-43.4126	33.5806
-37.2571	-50.6438	33.5903
-37.2578	-48.8078	33.6001
-37.2557	-42.0877	33.6099
-37.2551	-36.7012	33.6196
-37.2552	-33.1994	33.6294
-37.2539	-38.1132	33.63916
-37.2528	-46.9379	33.6489
-37.2531	-53.1807	33.6587
-37.253	-47.5215	33.6685
-37.2514	-34.8054	33.6782
-37.2501	-31.38271	33.688
-37.24987	-35.44252	33.6978
-37.2475	-45.4303	33.70752
-37.2481	-50.6488	33.7173
-37.2465	-48.07	33.7271
-37.246	-40.912	33.7368
-37.24641	-33.794	33.7466
-37.2451	-31.96007	33.7563
-37.2438	-39.7788	33.7661
-37.2426	-51.4572	33.7759
-37.24147	-55.26659	33.7856
-37.2409	-45.2014	33.79541
-37.2408	-33.6075	33.8052
-37.2396	-30.873	33.8149
-37.2392	-39.99683	33.8247
-37.2379	-47.3926	33.8345
-37.2372	-51.3601	33.8442
-37.2363	-47.5949	33.854
-37.2355	-37.4464	33.86377
-37.2352	-33.8441	33.8735
-37.233	-32.35165	33.8833
-37.2323	-45.4548	33.8931
-37.2323	-54.3034	33.9028
-37.2311	-51.6491	33.9126
-37.2305	-40.9258	33.9224
-37.2292	-31.9084	33.9321
-37.2291	-34.5959	33.9419
-37.2273	-42.3972	33.95166
-37.22636	-50.1522	33.9614
-37.227	-52.7517	33.9712
-37.2253	-43.9556	33.981
-37.2244	-36.4795	33.9907
-37.2238	-31.7072	34.0005
-37.2233	-36.8686	34.0103
-37.2217	-48.5159	34.02002
-37.222	-51.4043	34.0298
-37.2214	-47.9609	34.0396
-37.2208	-37.527	34.0493
-37.2186	-31.8866	34.0591
-37.2175	-37.1983	34.0688
-37.2174	-42.9775	34.0786
-37.2165	-49.547	34.0884
-37.2172	-49.56	34.0981
-37.2155	-43.7784	34.10791
-37.2134	-34.2214	34.1177
-37.2132	-32.35976	34.1274
-37.212	-38.35	34.1372
-37.2118	-48.9273	34.147
-37.2114	-50.8113	34.1567
-37.2101	-45.0249	34.1665
-37.2087	-38.69622	34.17627
-37.2085	-34.2063	34.186
-37.20813	-35.1282	34.1958
-37.2063	-42.822	34.2056
-37.2065	-49.7506	34.2153
-37.2046	-52.5107	34.2251
-37.2026	-42.7654	34.2349
-37.20335	-34.2112	34.2446