File: data/processed_data_files/tensile/0.254_solid_uprint_typeiv_090_r(3).dat
MTS793|BTW|ENU|1|2|.|/|:|1|0|0|A

Data Header:			0.254_solid_uprint_typeiv_090_r0			Time:	20.02124	s	4/14/2019 1:04:37 AM
Data Acquisition:	Timed
Station Name:	ft40.cfg
Test File Name:	monotonic_0.2540_typeiv_solid_090_uprint.tst
Displacement	Force	Running Time
mm	N	s
-40.0403	-203.276	0.0229492
-40.0403	-199.951	0.0424805
-40.0416	-197.385	0.0620117
-40.0406	-200.573	0.081543
-40.0394	-203.403	0.101074
-40.0378	-194.2547	0.120605
-40.0367	-197.776	0.140137
-40.0353	-199.123	0.159668
-40.0338	-195.321	0.179199
-40.0326	-190.215	0.19873
-40.0299	-195.983	0.218262
-40.0289	-191.312	0.237793
-40.0266	-190.788	0.257324
-40.0255	-190.66	0.276855
-40.0232	-189.517	0.296387
-40.0209	-184.37	0.315918
-40.0209	-191.131	0.335449
-40.0186	-188.347	0.35498
-40.0166	-182.4626	0.374512
-40.0161	-183.676	0.394043
-40.0137	-184.717	0.413574
-40.0121	-180.153	0.433105
-40.01149	-182.299	0.452637
-40.0091	-181.861	0.472168
-40.0077	-178.882	0.491699
-40.0061	-177.1	0.51123
-40.00404	-178.388	0.530762
-40.0019	-177.387	0.550293
-40.0001	-171.952	0.569824
-39.9995	-176.772	0.589355
-39.99725	-173.515	0.608887
-39.9951	-168.664	0.628418
-39.9937	-169.496	0.647949
-39.9926	-174.983	0.66748
-39.9904	-166.567	0.687012
-39.99	-168.684	0.706543
-39.9875	-168.879	0.726074
-39.9867	-164.196	0.745605
-39.9843	-160.771	0.765137
-39.9826	-171.749	0.784668
-39.98246	-161.434	0.804199
-39.97897	-160.408	0.82373
-39.9767	-164.396	0.843262
-39.9762	-159.448	0.862793
-39.9746	-154.748	0.882324
-39.9728	-163.048	0.901855
-39.9719	-155.376	0.921387
-39.9703	-155.245	0.940918
-39.9688	-155.75	0.960449
-39.96653	-156.041	0.97998
-39.9644	-148.4967	0.999512
-39.9632	-154.998	1.019043
-39.9617	-154.635	1.03857
-39.9606	-150.841	1.05811
-39.95853	-148.228	1.07764
-39.9571	-150.164	1.097168
-39.9545	-147.117	1.1167
-39.95409	-146.819	1.13623
-39.9519	-146.988	1.15576
-39.9513	-145.912	1.175293
-39.9483	-141.116	1.19482
-39.9478	-144.854	1.21436
-39.9447	-143.711	1.23389
-39.9436	-138.455	1.253418
-39.9433	-140.527	1.27295
-39.9402	-141.509	1.29248
-39.939	-137.58	1.31201
-39.9375	-135.16	1.331543
-39.9358	-141.0386	1.35107
-39.9351	-132.397	1.37061
-39.9323	-134.855	1.39014
-39.9301	-136.51	1.409668
-39.9296	-130.6563	1.4292
-39.92783	-126.956	1.44873
-39.9263	-136.6797	1.46826
-39.9247	-127.014	1.487793
-39.9221	-126.013	1.50732
-39.9207	-128.496	1.52686
-39.9204	-127.211	1.54639
-39.9175	-121.64	1.565918
-39.9163	-126.924	1.58545
-39.9146	-124.037	1.60498
-39.9127	-121.03	1.62451
-39.912	-123.111	1.644043
-39.9096	-121.9788	1.66357
-39.9078	-116.211	1.68311
-39.9062	-118.4437	1.70264
-39.9054	-120.857	1.722168
-39.9038	-116.7713	1.7417
-39.9006	-112.667	1.76123
-39.9004	-114.178	1.78076
-39.8987	-114.202	1.800293
-39.8968	-111.203	1.81982
-39.8958	-115.271	1.83936
-39.8932	-111.148	1.85889
-39.8928	-107.519	1.878418
-39.8895	-109.218	1.89795
-39.8891	-112.136	1.91748
-39.8869	-102.957	1.93701
-39.8855	-105.432	1.956543
-39.8841	-107.611	1.97607
-39.8824	-103.199	1.99561
-39.8803	-100.297	2.01514
-39.8807	-105.382	2.034668
-39.877	-96.7966	2.0542
-39.8755	-99.5982	2.07373
-39.873	-101.26	2.09326
-39.8723	-97.3795	2.112793
-39.8715	-90.458	2.13232
-39.8699	-100.917	2.15186
-39.8662	-96.8016	2.17139
-39.8663	-92.3195	2.190918
-39.8651	-92.56826	2.21045
-39.8627	-92.6649	2.22998
-39.8609	-87.0203	2.24951
-39.8604	-92.3897	2.269043
-39.8591	-89.8342	2.28857
-39.8568	-87.7239	2.30811
-39.85466	-87.3683	2.32764
-39.8529	-89.0324	2.347168
-39.8509	-83.9899	2.3667
-39.84882	-83.6096	2.38623
-39.8488	-86.4478	2.40576
-39.8477	-85.70639	2.425293
-39.8454	-79.6679	2.44482
-39.8434	-80.6504	2.46436
-39.8413	-81.2875	2.48389
-39.8404	-76.484	2.503418
-39.8376	-78.827	2.52295
-39.83527	-79.183	2.54248
-39.8342	-73.1553	2.56201
-39.8336	-72.999	2.581543
-39.8317	-78.7305	2.60107
-39.8307	-69.3094	2.62061
-39.8284	-70.5396	2.64014
-39.8269	-73.357	2.659668
-39.8257	-70.2266	2.6792
-39.8223	-63.9429	2.69873
-39.8226	-71.311	2.71826
-39.8199	-66.3312	2.737793
-39.81945	-66.0824	2.75732
-39.8176	-67.2513	2.77686
-39.8156	-64.0397	2.79639
-39.8131	-56.8093	2.815918
-39.8125	-64.513	2.83545
-39.80925	-62.7424	2.85498
-39.8088	-58.6562	2.87451
-39.8078	-58.0205	2.894043
-39.8049	-57.9306	2.91357
-39.8043	-54.7181	2.93311
-39.80312	-57.3511	2.95264
-39.801	-55.9355	2.972168
-39.7994	-51.8274	2.9917
-39.7974	-51.0675	3.01123
-39.7959	-55.2925	3.03076
-39.7946	-52.7984	3.050293
-39.7928	-46.5899	3.06982
-39.7906	-50.1096	3.08936
-39.79	-51.3337	3.10889
-39.7856	-47.0564	3.128418
-39.7863	-45.4878	3.14795
-39.7844	-47.7933	3.16748
-39.7833	-42.0707	3.18701
-39.7814	-43.9125	3.206543
-39.7801	-45.8795	3.22607
-39.7789	-39.21492	3.24561
-39.77597	-37.8017	3.26514
-39.7758	-43.4111	3.284668
-39.7727	-37.22963	3.3042
-39.7726	-35.2154	3.32373
-39.77	-38.40337	3.34326
-39.7689	-36.2055	3.362793
-39.7656	-31.3411	3.38232
-39.766	-37.1049	3.40186
-39.7635	-30.6441	3.42139
-39.7625	-28.8337	3.440918
-39.76059	-31.9415	3.46045
-39.7583	-31.9805	3.47998
-39.7565	-23.497	3.49951
-39.757	-28.8644	3.519043
-39.7544	-28.7675	3.53857
-39.7528	-25.3172	3.55811
-39.7511	-23.21563	3.57764
-39.7495	-25.2448	3.597168
-39.7458	-21.6822	3.6167
-39.7456	-23.1966	3.63623
-39.7442	-22.6022	3.65576
-39.7425	-20.68177	3.675293
-39.7408	-16.1069	3.69482
-39.7401	-20.0079	3.71436
-39.7372	-18.7062	3.73389
-39.7357	-13.8425	3.753418
-39.7341	-15.1059	3.77295
-39.7332	-18.6681	3.79248
-39.7318	-13.1163	3.81201
-39.7292	-11.6286	3.831543
-39.727	-14.96615	3.85107
-39.727	-8.62276	3.87061
-39.7248	-9.95431	3.89014
-39.72327	-11.2352	3.909668
-39.7203	-8.41917	3.9292
-39.7193	-1.88188	3.94873
-39.717	-10.1305	3.96826
-39.7183	-4.09822	3.987793
-39.7152	-3.88778	4.00732
-39.7131	-5.157928	4.02686
-39.7123	-3.6572	4.04639
-39.7089	3.19968	4.065918
-39.7082	-4.11521	4.08545
-39.7064	0.15882	4.10498
-39.705	3.47213	4.12451
-39.7041	2.5691	4.144043
-39.7024	0.901559	4.16357
-39.7002	8.56119	4.18311
-39.6978	4.58568	4.20264
-39.6963	4.14823	4.222168
-39.6956	7.20369	4.2417
-39.6942	10.4261	4.26123
-39.6922	8.93277	4.28076
-39.6904	11.00955	4.300293
-39.6889	12.7773	4.31982
-39.6863	12.52728	4.33936
-39.6847	11.9174	4.35889
-39.6833	17.8055	4.378418
-39.6823	15.1645	4.39795
-39.681	12.66834	4.41748
-39.6789	19.7993	4.43701
-39.6768	20.3277	4.456543
-39.676	16.3804	4.47607
-39.6749	20.0725	4.49561
-39.6733	22.8955	4.51514
-39.6697	17.0509	4.534668
-39.66922	24.4965	4.5542
-39.6673	25.6527	4.57373
-39.6659	22.644	4.59326
-39.6632	25.5005	4.612793
-39.6619	31.8901	4.63232
-39.662	25.4165	4.65186
-39.6586	28.5176	4.67139
-39.6578	32.0267	4.690918
-39.656	30.8797	4.71045
-39.6541	32.1702	4.72998
-39.6524	37.9596	4.74951
-39.6506	31.9938	4.769043
-39.6493	33.47139	4.78857
-39.6496	38.5966	4.80811
-39.6464	39.665	4.82764
-39.6453	34.8488	4.847168
-39.6429	41.9461	4.8667
-39.6418	41.0524	4.88623
-39.6394	41.1179	4.90576
-39.6386	40.1473	4.925293
-39.6377	44.5338	4.94482
-39.6349	42.6023	4.96436
-39.6343	45.75304	4.98389
-39.6316	47.6268	5.003418
-39.62989	47.2137	5.02295
-39.62809	45.3943	5.04248
-39.6269	51.3668	5.06201
-39.6243	51.7807	5.081543
-39.6238	46.9391	5.10107
-39.6213	53.2453	5.12061
-39.6201	54.959	5.14014
-39.6176	50.9399	5.159668
-39.6175	54.0777	5.1792
-39.6159	60.4508	5.19873
-39.614	53.9381	5.21826
-39.613	58.7733	5.237793
-39.6101	63.442	5.25732
-39.6078	58.1343	5.27686
-39.6084	58.9153	5.29639
-39.6047	66.7151	5.315918
-39.6044	60.7597	5.33545
-39.603	62.1795	5.35498
-39.5997	66.3883	5.37451
-39.5989	67.4438	5.394043
-39.5977	65.386	5.41357
-39.5962	72.3461	5.43311
-39.5944	67.2682	5.45264
-39.5925	67.6279	5.472168
-39.5912	69.8343	5.4917
-39.5888	74.773	5.51123
-39.5872	69.6482	5.53076
-39.5859	73.4432	5.550293
-39.5849	75.87809	5.56982
-39.5813	74.8703	5.58936
-39.581	74.2257	5.60889
-39.5801	78.8212	5.628418
-39.5791	76.7831	5.64795
-39.5763	77.8027	5.66748
-39.5743	80.6063	5.68701
-39.57338	81.2104	5.706543
-39.5717	78.1053	5.72607
-39.5701	84.8062	5.74561
-39.5681	87.1609	5.76514
-39.5662	81.2332	5.784668
-39.564	83.7721	5.8042
-39.5634	90.4329	5.82373
-39.5626	85.7183	5.84326
-39.5612	88.4686	5.862793
-39.5584	93.4873	5.88232
-39.5573	86.5866	5.90186
-39.5549	91.1059	5.92139
-39.5531	97.0488	5.940918
-39.5519	92.3967	5.96045
-39.5508	91.0185	5.97998
-39.549	98.8145	5.99951
-39.5467	96.7675	6.019043
-39.5452	95.8172	6.03857
-39.5445	97.7438	6.05811
-39.5423	99.7216	6.07764
-39.5409	98.11055	6.097168
-39.5379	105.341	6.1167
-39.5371	102.2393	6.13623
-39.5362	101.006	6.15576
-39.5347	103.343	6.175293
-39.5329	108.673	6.19482
-39.5306	103.49	6.21436
-39.5288	106.51	6.23389
-39.5282	108.569	6.253418
-39.5249	109.029	6.27295
-39.5243	107.41	6.29248
-39.5219	113.96	6.31201
-39.5224	113.354	6.331543
-39.5186	109.516	6.35107
-39.5175	114.48	6.37061
-39.5164	118.2618	6.39014
-39.5149	110.95	6.409668
-39.5118	115.889	6.4292
-39.512	122.2466	6.44873
-39.5099	114.141	6.46826
-39.5081	117.504	6.487793
-39.506	121.8759	6.50732
-39.50523	119.496	6.52686
-39.50251	121.964	6.54639
-39.5004	129.052	6.565918
-39.5006	120.059	6.58545
-39.4983	124.218	6.60498
-39.4961	129.115	6.62451
-39.4936	128.344	6.644043
-39.4943	123.7712	6.66357
-39.4919	132.4697	6.68311
-39.4902	128.972	6.70264
-39.4884	131.103	6.722168
-39.4866	132.139	6.7417
-39.4855	133.092	6.76123
-39.485	130.649	6.78076
-39.4831	137.565	6.800293
-39.4805	137.339	6.81982
-39.4788	135.799	6.83936
-39.4764	132.874	6.85889
-39.4761	141.082	6.878418
-39.47419	139.387	6.89795
-39.4721	139.262	6.91748
-39.4718	140.039	6.93701
-39.4699	144.187	6.956543
-39.4674	138.867	6.97607
-39.46735	146.497	6.99561
-39.4634	146.732	7.01514
-39.4635	143.514	7.034668
-39.4616	147.114	7.0542
-39.4592	149.636	7.07373
-39.458	144.446	7.09326
-39.4563	148.481	7.112793
-39.4542	154.489	7.13232
-39.45174	149.526	7.15186
-39.4515	149.476	7.17139
-39.4499	156.082	7.190918
-39.4484	152.361	7.21045
-39.4466	152.536	7.22998
-39.4441	162.708	7.24951
-39.4434	154.493	7.269043
-39.4411	154.565	7.28857
-39.4407	160.326	7.30811
-39.4374	161.352	7.32764
-39.4362	158.881	7.347168
-39.43412	163.55	7.3667
-39.4329	161.5701	7.38623
-39.4319	161.181	7.40576
-39.4295	164.127	7.425293
-39.4281	169.534	7.44482
-39.4263	163.088	7.46436
-39.4249	166.552	7.48389
-39.4238	169.194	7.503418
-39.4213	169.93	7.52295
-39.4204	166.536	7.54248
-39.4183	173.027	7.56201
-39.4169	173.597	7.581543
-39.4162	171.764	7.60107
-39.4135	173.261	7.62061
-39.4114	175.951	7.64014
-39.4112	169.982	7.659668
-39.4089	177.487	7.6792
-39.4063	180.146	7.69873
-39.405	174.921	7.71826
-39.40332	178.662	7.737793
-39.4027	184.3299	7.75732
-39.4015	178.966	7.77686
-39.3982	179.841	7.79639
-39.3974	186.801	7.815918
-39.3963	181.714	7.83545
-39.3932	183.535	7.85498
-39.3921	187.341	7.87451
-39.3911	185.124	7.894043
-39.3901	183.894	7.91357
-39.3875	193.688	7.93311
-39.3861	189.126	7.95264
-39.3843	187.382	7.972168
-39.3833	191.309	7.9917
-39.3807	194.495	8.01123
-39.3797	190.542	8.03076
-39.378	195.968	8.050293
-39.3766	195.323	8.06982
-39.37439	193.927	8.08936
-39.3729	194.675	8.10889
-39.3716	201.971	8.128418
-39.3701	195.537	8.14795
-39.3688	196.775	8.16748
-39.3664	201.6459	8.18701
-39.365	202.266	8.206543
-39.3628	198.23	8.22607
-39.3606	203.932	8.24561
-39.3599	206.514	8.26514
-39.3586	203.258	8.284668
-39.3561	205.439	8.3042
-39.3546	209.5363	8.32373
-39.3543	204.2373	8.34326
-39.3523	208.073	8.362793
-39.3502	213.583	8.38232
-39.349	208.598	8.40186
-39.3468	205.362	8.42139
-39.3458	215.071	8.440918
-39.3436	212.764	8.46045
-39.3421	210.077	8.47998
-39.3397	218.78	8.49951
-39.339	214.511	8.519043
-39.3372	212.822	8.53857
-39.3349	220.787	8.55811
-39.3331	218.972	8.57764
-39.333	215.329	8.597168
-39.3313	222.76	8.6167
-39.3291	222.109	8.63623
-39.32769	220.644	8.65576
-39.3252	221.348	8.675293
-39.32457	227.41	8.69482
-39.3238	223.034	8.71436
-39.3208	226.757	8.73389
-39.3187	226.073	8.753418
-39.3182	227.606	8.77295
-39.3165	223.373	8.79248
-39.3154	233.245	8.81201
-39.3125	230.847	8.831543
-39.3108	228.78	8.85107
-39.30817	230.5502	8.87061
-39.3082	237.195	8.89014
-39.3069	229.261	8.909668
-39.304	235.98	8.9292
-39.30328	238.413	8.94873
-39.3001	235.603	8.96826
-39.3002	236.691	8.987793
-39.2986	241.364	9.00732
-39.2971	234.987	9.02686
-39.2946	238.637	9.04639
-39.2941	245.947	9.065918
-39.2926	242.236	9.08545
-39.291	237.841	9.10498
-39.2879	245.563	9.12451
-39.287	244.367	9.144043
-39.286	240.738	9.16357
-39.284	248.554	9.18311
-39.282	247.411	9.20264
-39.2797	243.149	9.222168
-39.27808	249.937	9.2417
-39.2774	251.88	9.26123
-39.2744	245.516	9.28076
-39.2739	254.143	9.300293
-39.2718	254.046	9.31982
-39.27	252.935	9.33936
-39.2692	251.423	9.35889
-39.267	255.696	9.378418
-39.265	254.14	9.39795
-39.2641	256.2215	9.41748
-39.263	258.738	9.43701
-39.261	259.834	9.456543
-39.259	254.799	9.47607
-39.2583	263.608	9.49561
-39.2563	262.587	9.51514
-39.2542	260.135	9.534668
-39.2523	261.912	9.5542
-39.2497	269.018	9.57373
-39.2496	261.177	9.59326
-39.24823	265.383	9.612793
-39.2463	269.2	9.63232
-39.2435	265.09	9.65186
-39.24305	265.524	9.67139
-39.2398	273.999	9.690918
-39.2398	267.046	9.71045
-39.2385	266.347	9.72998
-39.2367	275.67	9.74951
-39.2338	273.0809	9.769043
-39.233	268.623	9.78857
-39.2318	274.806	9.80811
-39.2288	276.607	9.82764
-39.2278	272.39	9.847168
-39.2262	278.885	9.8667
-39.2249	277.772	9.88623
-39.2231	273.208	9.90576
-39.2208	279.992	9.925293
-39.2208	284.339	9.94482
-39.21804	276.359	9.96436
-39.2166	280.791	9.98389
-39.2149	285.131	10.0034
-39.2135	284.056	10.0229
-39.2118	280.9711	10.04248
-39.2105	288.036	10.062
-39.2079	285.779	10.0815
-39.207	286.739	10.1011
-39.2056	289.975	10.1206
-39.2031	293.155	10.1401
-39.2024	284.043	10.1597
-39.2009	292.267	10.1792
-39.2002	294.729	10.19873
-39.1968	289.845	10.2183
-39.1968	288.153	10.2378
-39.1939	297.709	10.2573
-39.19186	293.234	10.2769
-39.1903	294.177	10.2964
-39.1901	300.729	10.3159
-39.1875	296.373	10.3354
-39.1858	292.84	10.35498
-39.1843	303.518	10.3745
-39.1827	298.533	10.394
-39.181	297.153	10.4136
-39.1791	303.132	10.4331
-39.1768	304.394	10.4526
-39.1754	297.76	10.4722
-39.174	303.544	10.4917
-39.173	306.236	10.51123
-39.1712	301.81	10.5308
-39.1688	308.061	10.5503
-39.1672	309.6987	10.5698
-39.166	303.774	10.5894
-39.1649	306.292	10.6089
-39.1619	314.868	10.6284
-39.1618	310.225	10.6479
-39.1596	311.387	10.66748
-39.1599	312.511	10.687
-39.1577	314.204	10.7065
-39.1547	311.633	10.7261
-39.1534	315.927	10.7456
-39.1522	315.836	10.7651
-39.1505	313.868	10.7847
-39.1495	316.269	10.8042
-39.1461	321.37	10.82373
-39.1456	313.944	10.8433
-39.1429	318.97	10.8628
-39.1426	323.773	10.8823
-39.1404	321.688	10.9019
-39.1389	318.364	10.9214
-39.136	327.053	10.9409
-39.1356	320.742	10.9604
-39.13446	322.694	10.97998
-39.1327	328.183	10.9995
-39.1317	325.055	11.019
-39.1302	321.241	11.0386
-39.1277	330.336	11.0581
-39.1255	329.474	11.0776
-39.1238	324.334	11.0972
-39.122	331.163	11.1167
-39.1201	332.864	11.13623
-39.1192	326.105	11.1558
-39.1184	330.7764	11.1753
-39.11578	334.6481	11.1948
-39.114	329.839	11.2144
-39.1129	336.674	11.2339
-39.1118	337.44	11.2534
-39.1091	333.031	11.2729
-39.1079	333.608	11.29248
-39.1061	340.258	11.312
-39.1049	336.911	11.3315
-39.1023	337.64	11.3511
-39.1013	339.637	11.3706
-39.0999	342.614	11.3901
-39.0989	338.478	11.4097
-39.0966	342.996	11.4292
-39.0938	345.097	11.44873
-39.0933	342.674	11.4683
-39.09227	342.714	11.4878
-39.0909	350.572	11.5073
-39.0891	342.123	11.5269
-39.0874	344.712	11.5464
-39.0853	351.6077	11.5659
-39.0833	348.956	11.5854
-39.083	345.729	11.60498
-39.0802	354.687	11.6245
-39.0792	348.309	11.644
-39.0769	348.99	11.6636
-39.0759	355.242	11.6831
-39.07375	354.957	11.7026
-39.0719	346.649	11.7222
-39.0705	355.473	11.7417
-39.0679	357.495	11.76123
-39.0678	352.92	11.7808
-39.0658	356.208	11.8003
-39.0642	360.041	11.8198
-39.0619	354.2915	11.8394
-39.0615	358.485	11.8589
-39.0582	363.303	11.8784
-39.057	359.139	11.8979
-39.0561	360.446	11.91748
-39.0553	366.288	11.937
-39.0532	360.624	11.9565
-39.0508	359.124	11.9761
-39.0498	366.131	11.9956
-39.04784	367.787	12.0151
-39.0465	364.894	12.0347
-39.044	367.217	12.0542
-39.0423	371.059	12.07373
-39.04097	362.959	12.0933
-39.0382	369.072	12.1128
-39.0388	372.4418	12.1323
-39.0362	368.5675	12.1519
-39.0342	366.5437	12.1714
-39.03199	377.615	12.1909
-39.0312	370.028	12.2104
-39.0299	371.094	12.22998
-39.0287	377.263	12.2495
-39.0259	378.159	12.269
-39.0247	368.829	12.2886
-39.02253	380.11	12.3081
-39.0217	377.734	12.3276
-39.0195	373.861	12.3472
-39.0182	381.201	12.3667
-39.0175	380.245	12.38623
-39.0136	374.13	12.4058
-39.0137	381.447	12.4253
-39.0117	383.284	12.4448
-39.0083	380.072	12.4644
-39.0096	380.08	12.4839
-39.0061	386.96	12.5034
-39.0062	380.078	12.5229
-39.0037	383.691	12.54248
-39.00124	388.7626	12.562
-39.0014	384.065	12.5815
-38.9989	384.258	12.6011
-38.9976	387.144	12.6206
-38.99522	389.334	12.6401
-38.9943	384.0318	12.6597
-38.9932	390.121	12.6792
-38.9902	391.72	12.69873
-38.9889	390.171	12.7183
-38.9883	388.05	12.7378
-38.9859	394.344	12.7573
-38.9841	387.245	12.7769
-38.9819	391.203	12.7964
-38.9806	397.168	12.8159
-38.9792	395.024	12.8354
-38.97921	389.093	12.85498
-38.9753	400.976	12.8745
-38.9739	396.594	12.894
-38.9742	394.706	12.9136
-38.9721	400.335	12.9331
-38.9689	400.785	12.9526
-38.9683	393.105	12.9722
-38.96611	403.375	12.9917
-38.9648	401.488	13.01123
-38.9642	397.181	13.0308
-38.9603	401.6868	13.0503
-38.9594	406.705	13.0698
-38.9576	398.322	13.0894
-38.95649	402.187	13.1089
-38.9556	406.91	13.1284
-38.953	403.819	13.1479
-38.95155	403.757	13.16748
-38.9509	408.3082	13.187
-38.949	403.901	13.2065
-38.9467	404.3139	13.2261
-38.9458	409.857	13.2456
-38.9436	408.539	13.2651
-38.9416	406.009	13.2847
-38.94006	408.16	13.3042
-38.9378	413.146	13.32373
-38.9377	408.579	13.3433
-38.9351	410.04	13.3628
-38.93277	414.073	13.3823
-38.931	412.385	13.4019
-38.9318	409.395	13.4214
-38.9286	418.607	13.4409
-38.9267	411.298	13.4604
-38.9254	411.435	13.47998
-38.9233	418.968	13.4995
-38.9217	417.474	13.519
-38.9197	409.968	13.5386
-38.91811	420.357	13.5581
-38.9172	417.528	13.5776
-38.9157	414.794	13.5972
-38.9147	420.481	13.6167
-38.9134	421.6	13.63623
-38.9115	413.633	13.6558
-38.9096	422.157	13.6753
-38.9079	424.135	13.6948
-38.9063	417.142	13.7144
-38.9044	419.707	13.7339
-38.9032	426.374	13.7534
-38.9017	419.557	13.7729
-38.8992	422.47	13.79248
-38.898	424.437	13.812
-38.8951	424.297	13.8315
-38.8937	422.629	13.8511
-38.8924	426.972	13.8706
-38.8909	424.164	13.8901
-38.8894	421.017	13.9097
-38.8888	426.62	13.9292
-38.8865	429.771	13.94873
-38.8848	425.561	13.9683
-38.88385	426.478	13.9878
-38.8816	431.254	14.0073
-38.8802	426.283	14.0269
-38.8784	428.611	14.0464
-38.8771	431.662	14.0659
-38.8751	430.886	14.0854
-38.87328	425.776	14.10498
-38.8716	436.534	14.1245
-38.8705	431.801	14.144
-38.8693	429.059	14.1636
-38.86705	435.024	14.1831
-38.86562	436.314	14.2026
-38.8652	426.543	14.2222
-38.8616	434.196	14.2417
-38.8604	434.388	14.26123
-38.8573	432.0697	14.2808
-38.85775	435.279	14.3003
-38.8558	438.032	14.3198
-38.8541	429.818	14.3394
-38.8513	436.552	14.3589
-38.8503	437.509	14.3784
-38.85006	435.397	14.3979
-38.8475	434.135	14.41748
-38.8459	441.171	14.437
-38.8443	435.789	14.4565
-38.8429	435.341	14.4761
-38.8412	438.271	14.4956
-38.8386	437.853	14.5151
-38.8372	435.824	14.5347
-38.8368	440.417	14.5542
-38.83297	440.087	14.57373
-38.833	435.531	14.5933
-38.83094	440.157	14.6128
-38.8308	442.498	14.6323
-38.828	439.063	14.6519
-38.8271	436.905	14.6714
-38.82465	444.437	14.6909
-38.8229	440.07	14.7104
-38.8213	439.165	14.72998
-38.8204	443.955	14.7495
-38.8183	444.609	14.769
-38.8158	435.64	14.7886
-38.8147	445.681	14.8081
-38.814	441.567	14.8276
-38.8112	438.799	14.8472
-38.8101	443.31	14.8667
-38.808	447.079	14.88623
-38.8062	436.758	14.9058
-38.8058	444.127	14.9253
-38.8037	445.208	14.9448
-38.8019	441.714	14.9644
-38.7997	443.369	14.9839
-38.7988	449.141	15.0034
-38.7963	439.1073	15.0229
-38.7959	442.708	15.04248
-38.7938	447.399	15.062
-38.7921	445.762	15.0815
-38.7898	441.436	15.1011
-38.7895	449.07	15.1206
-38.7871	443.311	15.1401
-38.7852	442.65	15.1597
-38.7837	446.028	15.1792
-38.7817	447.051	15.19873
-38.7808	443.737	15.2183
-38.7798	447.347	15.2378
-38.7781	447.73	15.2573
-38.7757	441.885	15.2769
-38.7746	443.469	15.2964
-38.7717	450.325	15.3159
-38.771	447.251	15.3354
-38.76997	440.823	15.35498
-38.7675	449.4968	15.3745
-38.7655	447.857	15.394
-38.7638	444.421	15.4136
-38.7636	448.97	15.4331
-38.763	450.602	15.4526
-38.7585	441.568	15.4722
-38.7577	449.015	15.4917
-38.7565	449.7	15.51123
-38.7532	444.585	15.5308
-38.75333	446.498	15.5503
-38.751	451.438	15.5698
-38.7497	444.173	15.5894
-38.7482	448.742	15.6089
-38.7461	448.501	15.6284
-38.7451	447.494	15.6479
-38.7433	445.739	15.66748
-38.7421	452.552	15.687
-38.7397	445.86	15.7065
-38.7382	444.564	15.7261
-38.7366	448.936	15.7456
-38.73605	450.417	15.7651
-38.733	444.559	15.7847
-38.7323	448.69	15.8042
-38.7306	448.147	15.82373
-38.7288	448.037	15.8433
-38.7271	447.72	15.8628
-38.726	449.7218	15.8823
-38.7239	446.125	15.9019
-38.7222	446.82	15.9214
-38.7205	451.262	15.9409
-38.7194	446.563	15.9604
-38.7174	442.913	15.97998
-38.7144	450.049	15.9995
-38.713	449.948	16.019
-38.7123	442.256	16.0386
-38.7106	450.107	16.0581
-38.7101	449.499	16.0776
-38.7082	444.9704	16.0972
-38.70657	450.181	16.1167
-38.70327	453.076	16.13623
-38.703	443.242	16.1558
-38.7008	449.312	16.1753
-38.6996	450.046	16.1948
-38.6968	447.1376	16.2144
-38.6957	445.4502	16.2339
-38.6943	452.997	16.2534
-38.6936	444.788	16.2729
-38.6912	448.33	16.29248
-38.6898	451.435	16.312
-38.6877	446.79	16.3315
-38.68605	444.705	16.3511
-38.6855	450.739	16.3706
-38.6821	446.911	16.3901
-38.6813	445.145	16.4097
-38.6798	447.579	16.4292
-38.6782	451.31	16.44873
-38.6765	445.887	16.4683
-38.6756	448.1	16.4878
-38.6724	449.783	16.5073
-38.6725	446.452	16.5269
-38.6704	445.804	16.5464
-38.6676	451.092	16.5659
-38.6664	447.99	16.5854
-38.6654	444.737	16.60498
-38.6638	449.295	16.6245
-38.6625	447.92	16.644
-38.6602	444.013	16.6636
-38.6579	447.096	16.6831
-38.6571	449.599	16.7026
-38.6567	442.276	16.7222
-38.6535	446.343	16.7417
-38.65324	448.172	16.76123
-38.6506	443.373	16.7808
-38.6486	446.307	16.8003
-38.6479	452.763	16.8198
-38.6453	441.553	16.8394
-38.6423	446.482	16.8589
-38.6421	448.7276	16.8784
-38.6409	447.549	16.8979
-38.6391	442.442	16.91748
-38.6369	450.571	16.937
-38.636	444.399	16.9565
-38.6344	445.703	16.9761
-38.63221	446.777	16.9956
-38.6325	446.105	17.0151
-38.6285	441.7413	17.0347
-38.6269	448.788	17.0542
-38.6263	444.276	17.07373
-38.624	444.082	17.0933
-38.6236	442.246	17.1128
-38.6206	447.735	17.1323
-38.6197	442.9693	17.1519
-38.6185	443.194	17.1714
-38.6172	445.238	17.1909
-38.6156	443.245	17.2104
-38.6131	442.722	17.22998
-38.6116	446.477	17.2495
-38.6107	445.244	17.269
-38.6069	439.493	17.2886
-38.60627	444.341	17.3081
-38.6055	447.364	17.3276
-38.6033	440.132	17.3472
-38.6014	442.068	17.3667
-38.5999	446.786	17.38623
-38.5985	437.7066	17.4058
-38.597	443.548	17.4253
-38.5946	444.651	17.4448
-38.59375	439.347	17.4644
-38.5919	441.242	17.4839
-38.5905	449.166	17.5034
-38.5878	439.003	17.5229
-38.5871	441.681	17.54248
-38.5845	444.324	17.562
-38.5844	442.544	17.5815
-38.5827	438.784	17.6011
-38.5809	445.996	17.6206
-38.5802	441.36	17.6401
-38.5775	440.197	17.6597
-38.576	441.43	17.6792
-38.5735	445.169	17.69873
-38.5727	437.357	17.7183
-38.5709	442.474	17.7378
-38.5684	442.178	17.7573
-38.5678	440.1236	17.7769
-38.5658	438.447	17.7964
-38.5636	444.195	17.8159
-38.5631	441.4408	17.8354
-38.5611	439.456	17.85498
-38.56	441.491	17.8745
-38.5574	441.215	17.894
-38.5567	437.2724	17.9136
-38.5542	441.946	17.9331
-38.5528	442.947	17.9526
-38.5515	436.254	17.9722
-38.5489	439.907	17.9917
-38.5482	442.896	18.01123
-38.5452	436.5	18.0308
-38.5454	437.7251	18.0503
-38.5437	443.301	18.0698
-38.5418	435.369	18.0894
-38.5405	438.732	18.1089
-38.5388	441.036	18.1284
-38.53664	438.093	18.1479
-38.5347	434.918	18.16748
-38.5338	444.682	18.187
-38.5313	437.748	18.2065
-38.5303	438.178	18.2261
-38.5281	439.6	18.2456
-38.52721	442.151	18.2651
-38.526	436.353	18.2847
-38.5239	439.9725	18.3042
-38.5226	436.942	18.32373
-38.5197	436.595	18.3433
-38.5199	436.8526	18.3628
-38.5175	442.027	18.3823
-38.5144	437.482	18.4019
-38.5135	437.193	18.4214
-38.5128	439.102	18.4409
-38.5109	437.912	18.4604
-38.5098	432.67	18.47998
-38.5075	440.008	18.4995
-38.5049	440.219	18.519
-38.5028	435.232	18.5386
-38.5018	437.823	18.5581
-38.5011	437.937	18.5776
-38.4991	432.215	18.5972
-38.49699	437.443	18.6167
-38.4949	441.491	18.63623
-38.4953	432.481	18.6558
-38.49345	435.39	18.6753
-38.492	440.105	18.6948
-38.4888	434.83	18.7144
-38.4877	434.38	18.7339
-38.48748	442.3226	18.7534
-38.4846	432.074	18.7729
-38.4829	435.088	18.79248
-38.48101	438.759	18.812
-38.4802	437.021	18.8315
-38.4779	430.842	18.8511
-38.4767	438.486	18.8706
-38.4747	435.395	18.8901
-38.47319	434.98	18.9097
-38.4712	433.426	18.9292
-38.47	437.401	18.94873
-38.4686	433.656	18.9683
-38.4664	438.391	18.9878
-38.4656	436.55	19.0073
-38.4625	435.7876	19.0269
-38.4623	433.589	19.0464
-38.461	439.617	19.0659
-38.4596	434.899	19.0854
-38.4571	433.885	19.10498
-38.4545	434.728	19.1245
-38.4532	437.512	19.144
-38.4517	431.686	19.1636
-38.4501	435.722	19.1831
-38.4478	438.799	19.2026
-38.4477	432.1431	19.2222
-38.4456	434.355	19.2417
-38.4429	439.574	19.26123
-38.4428	430.8765	19.2808
-38.4399	434.895	19.3003
-38.4392	439.675	19.3198
-38.4376	430.637	19.3394
-38.4355	431.336	19.3589
-38.434	437.396	19.3784
-38.43412	433.714	19.3979
-38.431	430.479	19.41748
-38.4298	440.432	19.437
-38.4264	433.535	19.4565
-38.4261	432.086	19.4761
-38.4237	436.769	19.4956
-38.42326	436.875	19.5151
-38.4217	431.024	19.5347
-38.4192	437.882	19.5542
-38.4171	433.7106	19.57373
-38.4164	433.67	19.5933
-38.4149	432.066	19.6128
-38.41404	435.531	19.6323
-38.4107	432.894	19.6519
-38.4089	435.157	19.6714
-38.4079	434.936	19.6909
-38.4072	433.312	19.7104
-38.4061	429.061	19.72998
-38.4023	437.4498	19.7495
-38.4008	436.3866	19.769
-38.3993	430.387	19.7886
-38.3984	433.687	19.8081
-38.3968	436.163	19.8276
-38.3955	429.861	19.8472
-38.3935	434.662	19.8667
-38.3923	437.589	19.88623
-38.3909	429.856	19.9058
-38.3898	431.692	19.9253
-38.3867	437.452	19.9448
-38.3854	429.314	19.9644
-38.3841	431.0455	19.9839
-38.3827	438.134	20.0034
-38.3813	434.143	20.0132

Data Header:			0.254_solid_uprint_typeiv_090_r0			Time:	27.8977	s	4/14/2019 1:04:45 AM
Data Acquisition:	Timed
Station Name:	ft40.cfg
Test File Name:	monotonic_0.2540_typeiv_solid_090_uprint.tst
Displacement	Force	Running Time
mm	N	s
-38.3788	431.265	20.0229
-38.3805	430.182	20.0327
-38.3782	428.824	20.04248
-38.3771	433.662	20.0522
-38.3774	435.41	20.062
-38.37574	436.499	20.0718
-38.3753	433.052	20.0815
-38.3749	428.712	20.0913
-38.3734	428.517	20.1011
-38.3735	432.807	20.11084
-38.3725	436.814	20.1206
-38.37141	436.179	20.1304
-38.3692	432.976	20.1401
-38.3698	431.391	20.1499
-38.36953	428.1622	20.1597
-38.3688	431.002	20.1694
-38.3671	433.3428	20.1792
-38.3655	437.1366	20.189
-38.3663	436.917	20.19873
-38.3651	430.351	20.2085
-38.36388	429.919	20.2183
-38.3636	431.287	20.228
-38.3624	433.346	20.2378
-38.3618	435.83	20.2476
-38.3613	435.947	20.2573
-38.3602	432.017	20.26709
-38.3581	433.189	20.2769
-38.3591	429.462	20.2866
-38.3565	428.47	20.2964
-38.3575	433.319	20.3062
-38.3567	435.094	20.3159
-38.3549	433.611	20.3257
-38.3539	431.558	20.3354
-38.3533	429.063	20.3452
-38.3523	432.5658	20.35498
-38.3532	432.827	20.3647
-38.3509	433.425	20.3745
-38.3515	433.805	20.3843
-38.3478	434.483	20.394
-38.3481	432.475	20.4038
-38.3477	427.787	20.4136
-38.3471	430.623	20.42334
-38.3469	434.8244	20.4331
-38.3449	435.3175	20.4429
-38.344	434.732	20.4526
-38.3439	428.5733	20.4624
-38.342	430.336	20.4722
-38.3413	429.832	20.4819
-38.3421	430.599	20.4917
-38.34	435.133	20.5015
-38.3396	435.517	20.51123
-38.3385	434.2	20.521
-38.3385	428.36	20.5308
-38.3368	425.719	20.5405
-38.3359	431.993	20.5503
-38.33519	436.222	20.5601
-38.3349	436.316	20.5698
-38.3343	433.021	20.57959
-38.3328	428.893	20.5894
-38.3319	429.744	20.5991
-38.3319	429.557	20.6089
-38.33136	433.485	20.6187
-38.3299	436.434	20.6284
-38.33009	435.354	20.6382
-38.3286	430.911	20.6479
-38.3257	426.896	20.6577
-38.3258	427.96	20.66748
-38.32592	431.318	20.6772
-38.325	436.422	20.687
-38.3243	433.91	20.6968
-38.3222	431.4252	20.7065
-38.32333	428.1904	20.7163
-38.3224	427.049	20.7261
-38.32069	429.1799	20.73584
-38.3197	431.93	20.7456
-38.3202	437.5228	20.7554
-38.3178	431.805	20.7651
-38.319	426.896	20.7749
-38.3172	427.278	20.7847
-38.3157	430.227	20.7944
-38.3157	435.7179	20.8042
-38.3147	432.577	20.814
-38.3144	432.18	20.82373
-38.3124	430.424	20.8335
-38.3117	427.543	20.8433
-38.31115	429.923	20.853
-38.311	430.323	20.8628
-38.3102	434.0329	20.8726
-38.3077	434.781	20.8823
-38.3081	430.051	20.89209
-38.3068	429.067	20.9019
-38.3064	427.962	20.9116
-38.3054	431.076	20.9214
-38.3047	432.39	20.9312
-38.3032	431.692	20.9409
-38.3037	431.892	20.9507
-38.3007	432.148	20.9604
-38.3019	428.3829	20.9702
-38.3005	426.9097	20.97998
-38.2993	430.443	20.9897
-38.2988	434.532	20.9995
-38.298	434.4263	21.0093
-38.2974	431.851	21.019
-38.2966	429.476	21.0288
-38.2949	430.0358	21.0386
-38.2942	429.164	21.04834
-38.2928	430.55	21.0581
-38.2925	431.787	21.0679
-38.29229	433.871	21.0776
-38.2908	430.644	21.0874
-38.29	425.468	21.0972
-38.2895	428.118	21.1069
-38.2887	431.029	21.1167
-38.2885	434.322	21.1265
-38.2874	433.847	21.13623
-38.286	429.222	21.146
-38.2861	428.946	21.1558
-38.2845	427.464	21.1655
-38.2854	427.827	21.1753
-38.2824	432.855	21.1851
-38.2829	434.554	21.1948
-38.2818	433.641	21.20459
-38.2811	428.153	21.2144
-38.2796	423.975	21.2241
-38.2793	429.743	21.2339
-38.2782	433.265	21.2437
-38.2781	435.4574	21.2534
-38.2769	431.468	21.2632
-38.277	427.546	21.2729
-38.2758	427.095	21.2827
-38.2742	425.491	21.29248
-38.2729	431.463	21.3022
-38.2726	434.348	21.312
-38.2721	433.4292	21.3218
-38.2705	430.18	21.3315
-38.2701	424.648	21.3413
-38.2688	425.923	21.3511
-38.26878	431.848	21.36084
-38.2689	433.401	21.3706
-38.2672	433.355	21.3804
-38.2661	429.002	21.3901
-38.2664	429.425	21.3999
-38.26429	428.017	21.4097
-38.2638	428.202	21.4194
-38.2633	430.979	21.4292
-38.2624	436.135	21.439
-38.26133	431.408	21.44873
-38.26	427.806	21.4585
-38.2604	426.603	21.4683
-38.2596	428.024	21.478
-38.2576	431.643	21.4878
-38.25737	432.063	21.4976
-38.2571	431.468	21.5073
-38.2558	430.5108	21.51709
-38.2546	428.202	21.5269
-38.2541	428.699	21.5366
-38.25248	425.15	21.5464
-38.2526	432.481	21.5562
-38.2533	433.012	21.5659
-38.2507	430.107	21.5757
-38.2509	430.163	21.5854
-38.2489	425.431	21.5952
-38.2485	428.7037	21.60498
-38.2481	430.26	21.6147
-38.2467	430.199	21.6245
-38.2464	433.638	21.6343
-38.2453	431.438	21.644
-38.2439	426.835	21.6538
-38.2433	427.122	21.6636
-38.2425	427.722	21.67334
-38.2424	433.722	21.6831
-38.2411	433.204	21.6929
-38.241	430.4924	21.7026
-38.2404	428.427	21.7124
-38.2393	427.14	21.7222
-38.2387	427.063	21.7319
-38.2371	428.619	21.7417
-38.2365	431.549	21.7515
-38.2358	434.5	21.76123
-38.2343	430.7861	21.771
-38.23241	425.17	21.7808
-38.2326	424.664	21.7905
-38.2319	427.332	21.8003
-38.231	434.17	21.8101
-38.2304	432.974	21.8198
-38.2306	429.3	21.82959
-38.2276	429.282	21.8394
-38.2276	425.831	21.8491
-38.2274	427.441	21.8589
-38.2272	432.371	21.8687
-38.2263	433.487	21.8784
-38.225	435.104	21.8882
-38.2236	427.428	21.8979
-38.222	426.1687	21.9077
-38.2213	428.958	21.91748
-38.2216	431.339	21.9272
-38.2198	435.608	21.937
-38.2191	432.705	21.9468
-38.2189	428.498	21.9565
-38.2188	428.2406	21.9663
-38.2164	424.765	21.9761
-38.2168	430.4209	21.98584
-38.2163	431.697	21.9956
-38.2152	434.4079	22.0054
-38.2143	432.145	22.0151
-38.2133	424.285	22.0249
-38.2127	425.639	22.0347
-38.2109	429.463	22.0444
-38.2114	432.672	22.0542
-38.2094	432.848	22.064
-38.2097	430.976	22.07373
-38.2093	429.876	22.0835
-38.2074	427.271	22.0933
-38.2077	427.974	22.103
-38.205	427.544	22.1128
-38.206	434.478	22.1226
-38.2034	433.419	22.1323
-38.205	428.048	22.14209
-38.2032	426.399	22.1519
-38.20192	427.332	22.1616
-38.2002	430.706	22.1714
-38.2002	429.318	22.1812
-38.2	431.822	22.1909
-38.1984	430.417	22.2007
-38.1984	430.963	22.2104
-38.19733	427.893	22.2202
-38.1956	423.829	22.22998
-38.195	429.852	22.2397
-38.1942	432.847	22.2495
-38.1937	430.127	22.2593
-38.1925	431.164	22.269
-38.19154	425.586	22.2788
-38.19202	427.24	22.2886
-38.19054	426.66	22.29834
-38.1899	429.022	22.3081
-38.188	432.999	22.3179
-38.1886	431.678	22.3276
-38.187	429.638	22.3374
-38.1867	424.844	22.3472
-38.18446	425.471	22.3569
-38.1835	430.17	22.3667
-38.1844	432.4129	22.3765
-38.1832	432.739	22.38623
-38.1824	428.721	22.396
-38.1817	425.628	22.4058
-38.1815	425.603	22.4155
-38.1804	426.912	22.4253
-38.1794	431.2634	22.4351
-38.1777	434.913	22.4448
-38.178	430.555	22.45459
-38.1755	426.738	22.4644
-38.1763	423.512	22.4741
-38.1749	424.765	22.4839
-38.1747	432.4736	22.4937
-38.173	434.489	22.5034
-38.1732	430.493	22.5132
-38.1721	429.485	22.5229
-38.17075	424.998	22.5327
-38.1693	425.177	22.54248
-38.1698	430.379	22.5522
-38.1687	431.753	22.562
-38.1687	434.781	22.5718
-38.1676	427.12	22.5815
-38.1674	424.495	22.5913
-38.1646	423.281	22.6011
-38.1639	429.728	22.61084
-38.1637	433.261	22.6206
-38.1628	431.966	22.6304
-38.1616	430.214	22.6401
-38.162	426.76	22.6499
-38.1607	422.465	22.6597
-38.15905	428.614	22.6694
-38.1589	428.6973	22.6792
-38.1582	432.188	22.689
-38.15654	431.955	22.69873
-38.1565	424.932	22.7085
-38.1556	423.915	22.7183
-38.1549	426.743	22.728
-38.1535	428.094	22.7378
-38.1529	429.718	22.7476
-38.1534	429.224	22.7573
-38.15134	428.5853	22.76709
-38.15	426.757	22.7769
-38.14909	426.384	22.7866
-38.1499	424.824	22.7964
-38.1487	430.7012	22.8062
-38.1475	431.246	22.8159
-38.1468	428.262	22.8257
-38.1457	425.854	22.8354
-38.145	425.164	22.8452
-38.14386	427.531	22.85498
-38.1433	427.416	22.8647
-38.1415	429.218	22.8745
-38.1426	431.169	22.8843
-38.1409	431.131	22.894
-38.1398	425.551	22.9038
-38.13916	423.0842	22.9136
-38.138	429.247	22.92334
-38.13847	429.272	22.9331
-38.1379	430.251	22.9429
-38.1362	430.868	22.9526
-38.1344	425.871	22.9624
-38.1351	426.57	22.9722
-38.13472	427.503	22.9819
-38.1324	426.159	22.9917
-38.1329	431.7912	23.0015
-38.1311	431.193	23.01123
-38.1307	431.834	23.021
-38.12875	423.015	23.0308
-38.1289	423.665	23.0405
-38.1282	428.776	23.0503
-38.1272	430.135	23.0601
-38.1266	432.432	23.0698
-38.125	428.565	23.07959
-38.1243	426.3609	23.0894
-38.124	425.22	23.0991
-38.1223	422.873	23.1089
-38.1223	429.569	23.1187
-38.1215	431.974	23.1284
-38.1208	431.145	23.1382
-38.12	428.091	23.1479
-38.1199	421.4574	23.1577
-38.1184	424.119	23.16748
-38.1183	429.318	23.1772
-38.1168	431.057	23.187
-38.1141	430.947	23.1968
-38.1143	427.764	23.2065
-38.1132	424.753	23.2163
-38.1143	421.863	23.2261
-38.1134	425.493	23.23584
-38.1117	431.834	23.2456
-38.1103	431.865	23.2554
-38.1107	428.754	23.2651
-38.1092	422.559	23.2749
-38.1084	423.119	23.2847
-38.1076	426.445	23.2944
-38.1065	431.095	23.3042
-38.10574	429.051	23.314
-38.1045	430.12	23.32373
-38.1045	427.657	23.3335
-38.1034	423.9064	23.3433
-38.1026	424.456	23.353
-38.1021	426.528	23.3628
-38.10162	430.751	23.3726
-38.1012	431.798	23.3823
-38.1003	424.58	23.39209
-38.0988	426.328	23.4019
-38.0981	424.602	23.4116
-38.0966	427.664	23.4214
-38.0969	428.9371	23.4312
-38.0958	430.149	23.4409
-38.09494	430.818	23.4507
-38.09399	427.734	23.4604
-38.0925	422.828	23.4702
-38.09235	423.577	23.47998
-38.0919	427.96	23.4897
-38.0914	431.152	23.4995
-38.08997	430.093	23.5093
-38.088	427.721	23.519
-38.0876	426.445	23.5288
-38.0868	423.824	23.5386
-38.0858	425.885	23.54834
-38.0875	427.601	23.5581
-38.0842	429.516	23.5679
-38.0841	429.998	23.5776
-38.0842	425.6637	23.5874
-38.08226	421.932	23.5972
-38.0809	425.627	23.6069
-38.0808	427.85	23.6167
-38.0809	430.297	23.6265
-38.0791	430.4491	23.63623
-38.0773	426.13	23.646
-38.0774	426.332	23.6558
-38.0771	422.702	23.6655
-38.0764	424.241	23.6753
-38.0756	429.264	23.6851
-38.075	431.565	23.6948
-38.0739	430.711	23.70459
-38.0718	423.305	23.7144
-38.0717	421.754	23.7241
-38.0707	427.0253	23.7339
-38.0705	429.272	23.7437
-38.0684	434.722	23.7534
-38.068	429.969	23.7632
-38.0675	425.445	23.7729
-38.0673	424.956	23.7827
-38.0657	421.237	23.79248
-38.065	427.635	23.8022
-38.0639	430.675	23.812
-38.0636	429.45	23.8218
-38.0634	426.457	23.8315
-38.0618	420.084	23.8413
-38.0617	420.922	23.8511
-38.0605	426.905	23.86084
-38.0599	428.341	23.8706
-38.059	428.021	23.8804
-38.0574	427.153	23.8901
-38.0566	426.017	23.8999
-38.056	420.465	23.9097
-38.05629	424.562	23.9194
-38.0545	427.598	23.9292
-38.0533	430.513	23.939
-38.054	426.869	23.94873
-38.0526	423.167	23.9585
-38.0518	420.125	23.9683
-38.0502	425.053	23.978
-38.0496	426.775	23.9878
-38.0488	425.744	23.9976
-38.048	427.6	24.0073
-38.0468	426.733	24.01709
-38.0467	422.956	24.0269
-38.0466	422.057	24.0366
-38.046	422.344	24.0464
-38.0436	428.4668	24.0562
-38.0431	429.201	24.0659
-38.0425	425.815	24.0757
-38.0419	424.001	24.0854
-38.0417	422.402	24.0952
-38.0394	424.17	24.10498
-38.0392	425.735	24.1147
-38.0383	426.215	24.1245
-38.03825	428.257	24.1343
-38.0368	427.621	24.144
-38.0363	423.068	24.1538
-38.03537	420.281	24.1636
-38.0352	423.282	24.17334
-38.0334	427.967	24.1831
-38.03307	426.902	24.1929
-38.0323	426.969	24.2026
-38.0307	424.489	24.2124
-38.03046	421.471	24.2222
-38.0295	421.099	24.2319
-38.0274	422.072	24.2417
-38.0267	425.298	24.2515
-38.0276	428.407	24.26123
-38.025	422.598	24.271
-38.0256	420.298	24.2808
-38.0247	419.2337	24.2905
-38.0247	423.248	24.3003
-38.0217	425.11	24.3101
-38.0232	427.082	24.3198
-38.0218	422.588	24.32959
-38.02	421.111	24.3394
-38.0193	418.693	24.3491
-38.0196	416.858	24.3589
-38.0187	422.951	24.3687
-38.0166	426.915	24.3784
-38.0171	426.927	24.3882
-38.01556	418.683	24.3979
-38.0145	416.201	24.4077
-38.0134	417.401	24.41748
-38.0126	419.143	24.4272
-38.0124	422.781	24.437
-38.011	418.784	24.4468
-38.0103	417.856	24.4565
-38.0101	415.828	24.4663
-38.0096	409.345	24.4761
-38.008	410.012	24.48584
-38.0049	-58.4772	24.4956
-38.00349	-52.9248	24.5054
-38.0031	-52.8863	24.5151
-38.0036	-38.5873	24.5249
-38.0026	-41.848	24.5347
-38.00161	-42.45993	24.5444
-38.0015	-41.5251	24.5542
-38.0004	-40.402	24.564
-37.9998	-40.6251	24.57373
-37.9994	-41.8605	24.5835
-37.9993	-47.071	24.5933
-37.998	-45.9769	24.603
-37.9974	-42.744	24.6128
-37.995	-39.1877	24.6226
-37.9957	-39.9457	24.6323
-37.9953	-43.7333	24.64209
-37.995	-46.4673	24.6519
-37.9936	-46.30864	24.6616
-37.99276	-43.9894	24.6714
-37.9931	-42.6165	24.6812
-37.9913	-38.1581	24.6909
-37.9898	-39.2743	24.7007
-37.9895	-43.6081	24.7104
-37.9877	-46.3425	24.7202
-37.9885	-45.1266	24.72998
-37.9854	-41.2845	24.7397
-37.9857	-39.9552	24.7495
-37.9848	-42.3765	24.7593
-37.9838	-42.8206	24.769
-37.9835	-44.2442	24.7788
-37.983	-43.2882	24.7886
-37.9829	-44.741	24.79834
-37.9818	-42.2351	24.8081
-37.9799	-38.8572	24.8179
-37.97998	-41.627	24.8276
-37.9791	-42.1916	24.8374
-37.97784	-48.8785	24.8472
-37.9776	-45.3086	24.8569
-37.9765	-41.8577	24.8667
-37.9764	-41.6916	24.8765
-37.9755	-37.7341	24.88623
-37.9739	-43.1302	24.896
-37.9733	-44.1242	24.9058
-37.97163	-46.4405	24.9155
-37.9712	-45.9452	24.9253
-37.971	-40.0072	24.9351
-37.9701	-38.7957	24.9448
-37.96833	-39.4819	24.95459
-37.9677	-45.558	24.9644
-37.9671	-46.457	24.9741
-37.9671	-44.5056	24.9839
-37.9659	-39.97588	24.9937
-37.96542	-38.8105	25.0034
-37.9645	-40.3609	25.0132
-37.96394	-41.65765	25.0229
-37.9623	-45.6722	25.0327
-37.9624	-47.4773	25.04248
-37.96	-44.5307	25.0522
-37.9604	-37.6281	25.062
-37.9586	-38.341	25.0718
-37.9586	-43.9413	25.0815
-37.9581	-46.1964	25.0913
-37.9566	-46.4511	25.1011
-37.9567	-42.1413	25.11084
-37.9546	-38.9204	25.1206
-37.9549	-40.0321	25.1304
-37.954	-39.5181	25.1401
-37.95319	-43.5778	25.1499
-37.9529	-48.3093	25.1597
-37.9504	-44.4324	25.1694
-37.9497	-39.9589	25.1792
-37.94788	-37.2771	25.189
-37.9497	-39.5047	25.19873
-37.9481	-45.6667	25.2085
-37.9465	-45.067	25.2183
-37.9464	-45.13549	25.228
-37.9456	-41.2568	25.2378
-37.945	-41.425	25.2476
-37.9443	-40.7973	25.2573
-37.9422	-39.2082	25.26709
-37.94228	-46.5424	25.2769
-37.9403	-45.09771	25.2866
-37.9407	-45.1412	25.2964
-37.9395	-42.0727	25.3062
-37.9399	-39.0264	25.3159
-37.938	-42.4576	25.3257
-37.93705	-44.5156	25.3354
-37.9357	-42.204	25.3452
-37.9364	-43.1837	25.35498
-37.9353	-42.4125	25.3647
-37.934	-41.245	25.3745
-37.933	-40.9646	25.3843
-37.932	-42.39629	25.394
-37.9317	-45.2381	25.4038
-37.9311	-45.722	25.4136
-37.9302	-42.4965	25.42334
-37.929	-40.1144	25.4331
-37.929	-40.4009	25.4429
-37.9275	-42.6809	25.4526
-37.9271	-42.2465	25.4624
-37.926	-44.453	25.4722
-37.9254	-45.65752	25.4819
-37.9241	-43.1024	25.4917
-37.9233	-38.481	25.5015
-37.92347	-38.057	25.51123
-37.9223	-40.7145	25.521
-37.9211	-47.81559	25.5308
-37.9198	-45.0284	25.5405
-37.9199	-42.0743	25.5503
-37.9181	-41.9843	25.5601
-37.9175	-37.1267	25.5698
-37.9165	-42.1633	25.57959
-37.9167	-42.3827	25.5894
-37.9153	-46.2267	25.5991
-37.9144	-47.3372	25.6089
-37.9134	-41.4627	25.6187
-37.9127	-37.9387	25.6284
-37.9123	-39.04948	25.6382
-37.9103	-43.02235	25.6479
-37.9098	-47.1333	25.6577
-37.9105	-44.1341	25.66748
-37.9089	-43.0913	25.6772
-37.9077	-39.6327	25.687
-37.9073	-38.5449	25.6968
-37.907	-42.2551	25.7065
-37.9054	-45.6859	25.7163
-37.9056	-48.9062	25.7261
-37.9043	-46.0718	25.73584
-37.902	-38.9982	25.7456
-37.902	-38.1349	25.7554
-37.9013	-40.7733	25.7651
-37.90062	-46.2903	25.7749
-37.8992	-47.4387	25.7847
-37.8997	-42.3662	25.7944
-37.8981	-41.0182	25.8042
-37.8978	-40.9887	25.814
-37.8963	-39.9	25.82373
-37.89518	-43.37421	25.8335
-37.895	-46.7545	25.8433
-37.893	-46.0504	25.853
-37.8937	-41.8407	25.8628
-37.8929	-36.4486	25.8726
-37.8922	-40.9804	25.8823
-37.8916	-43.9212	25.89209
-37.88892	-44.9262	25.9019
-37.889	-45.29961	25.9116
-37.8891	-40.2453	25.9214
-37.888	-41.7745	25.9312
-37.8876	-40.39188	25.9409
-37.8863	-37.9573	25.9507
-37.88549	-43.4975	25.9604
-37.8841	-44.2441	25.9702
-37.8852	-45.0893	25.97998
-37.8821	-39.0868	25.9897
-37.8815	-38.0021	25.9995
-37.8816	-42.5993	26.0093
-37.8805	-40.8095	26.019
-37.8794	-43.8106	26.0288
-37.8783	-44.8989	26.0386
-37.8773	-43.5127	26.04834
-37.8764	-41.2769	26.0581
-37.8765	-38.2319	26.0679
-37.8752	-39.0014	26.0776
-37.8746	-43.4512	26.0874
-37.8744	-45.5372	26.0972
-37.8724	-44.1104	26.1069
-37.8724	-42.412	26.1167
-37.8713	-39.11887	26.1265
-37.8708	-40.5922	26.13623
-37.87	-39.0305	26.146
-37.8698	-45.1878	26.1558
-37.8683	-46.44	26.1655
-37.86742	-44.3767	26.1753
-37.8665	-41.1717	26.1851
-37.86647	-38.44252	26.1948
-37.8641	-39.2572	26.20459
-37.8641	-46.8877	26.2144
-37.8634	-43.9908	26.2241
-37.8634	-44.98801	26.2339
-37.8619	-42.7874	26.2437
-37.8611	-38.3105	26.2534
-37.8604	-40.7617	26.2632
-37.8587	-41.3977	26.2729
-37.8591	-45.5932	26.2827
-37.8574	-48.5838	26.29248
-37.8577	-43.4477	26.3022
-37.8569	-38.5556	26.312
-37.8557	-37.0058	26.3218
-37.8537	-44.5156	26.3315
-37.8537	-47.1596	26.3413
-37.8523	-45.2461	26.3511
-37.8522	-43.1346	26.36084
-37.8502	-40.15675	26.3706
-37.84977	-38.40451	26.3804
-37.8487	-39.9128	26.3901
-37.8483	-43.22551	26.3999
-37.8477	-48.2451	26.4097
-37.8469	-45.0198	26.4194
-37.84621	-39.7968	26.4292
-37.8455	-38.2136	26.439
-37.8451	-39.6821	26.44873
-37.8433	-45.2609	26.4585
-37.8424	-45.5903	26.4683
-37.8423	-42.53244	26.478
-37.8415	-43.0992	26.4878
-37.8407	-41.001	26.4976
-37.8406	-37.6683	26.5073
-37.8393	-41.22163	26.51709
-37.8384	-44.35236	26.5269
-37.8375	-45.0285	26.5366
-37.8361	-42.7218	26.5464
-37.8357	-37.6031	26.5562
-37.8349	-39.8733	26.5659
-37.8341	-40.2869	26.5757
-37.8329	-44.0125	26.5854
-37.8329	-43.5128	26.5952
-37.8308	-42.8183	26.60498
-37.8311	-43.7871	26.6147
-37.8293	-40.0011	26.6245
-37.8293	-36.8444	26.6343
-37.8272	-43.1482	26.644
-37.82798	-42.5842	26.6538
-37.8269	-47.1777	26.6636
-37.8251	-40.2918	26.67334
-37.8241	-38.7218	26.6831
-37.8247	-41.65704	26.6929
-37.8242	-39.4688	26.7026
-37.8235	-43.2804	26.7124
-37.8219	-44.7242	26.7222
-37.821	-43.7115	26.7319
-37.8194	-42.8204	26.7417
-37.8191	-37.9113	26.7515
-37.8185	-38.7508	26.76123
-37.8179	-42.62035	26.771
-37.817	-45.4763	26.7808
-37.8161	-46.1364	26.7905
-37.8161	-42.0516	26.8003
-37.8133	-42.2918	26.8101
-37.8128	-39.61602	26.8198
-37.8127	-38.8	26.82959
-37.8123	-43.0865	26.8394
-37.811	-46.2446	26.8491
-37.8109	-46.7204	26.8589
-37.8095	-42.9964	26.8687
-37.8088	-36.2995	26.8784
-37.80809	-39.0203	26.8882
-37.8073	-44.4606	26.8979
-37.80632	-45.9862	26.9077
-37.8066	-46.2462	26.91748
-37.8039	-42.0985	26.9272
-37.8041	-38.9068	26.937
-37.8028	-38.8477	26.9468
-37.8029	-38.737	26.9565
-37.8022	-45.30875	26.9663
-37.8011	-48.6421	26.9761
-37.8002	-44.1659	26.98584
-37.7988	-39.0654	26.9956
-37.7985	-36.903	27.0054
-37.7976	-40.9173	27.0151
-37.7965	-45.1832	27.0249
-37.797	-44.0931	27.0347
-37.7944	-47.0077	27.0444
-37.7942	-39.4626	27.0542
-37.7929	-40.2604	27.064
-37.7927	-40.045	27.07373
-37.7918	-42.8146	27.0835
-37.7903	-48.621	27.0933
-37.79	-44.6848	27.103
-37.7898	-40.588	27.1128
-37.7885	-40.1245	27.1226
-37.7876	-39.0519	27.1323
-37.7866	-43.3956	27.14209
-37.7859	-44.3662	27.1519
-37.7853	-43.1022	27.1616
-37.78569	-44.5042	27.1714
-37.7827	-42.353	27.1812
-37.783	-39.2151	27.1909
-37.7822	-40.476	27.2007
-37.7814	-44.1873	27.2104
-37.7789	-44.37759	27.2202
-37.7794	-42.9388	27.22998
-37.7778	-40.5195	27.2397
-37.7783	-40.6778	27.2495
-37.7774	-40.292	27.2593
-37.7774	-43.9658	27.269
-37.7751	-42.6393	27.2788
-37.7748	-43.3928	27.2886
-37.7736	-45.3932	27.29834
-37.7728	-39.04166	27.3081
-37.7731	-38.3378	27.3179
-37.7701	-40.5099	27.3276
-37.7713	-42.7087	27.3374
-37.771	-46.629	27.3472
-37.7686	-42.71904	27.3569
-37.7688	-40.0175	27.3667
-37.7668	-41.404	27.3765
-37.767	-40.7026	27.38623
-37.7647	-42.433	27.396
-37.7662	-43.185	27.4058
-37.764	-48.2097	27.4155
-37.7641	-43.4155	27.4253
-37.7623	-38.7266	27.4351
-37.7621	-38.5526	27.4448
-37.7621	-40.3543	27.45459
-37.7597	-45.0334	27.4644
-37.76	-46.6673	27.4741
-37.7581	-42.4052	27.4839
-37.75647	-43.5165	27.4937
-37.7575	-40.1011	27.5034
-37.7561	-37.549	27.5132
-37.7557	-42.3258	27.5229
-37.7538	-46.0066	27.5327
-37.7543	-47.6812	27.54248
-37.752	-43.5917	27.5522
-37.7515	-36.19738	27.562
-37.75087	-38.656	27.5718
-37.75034	-43.2844	27.5815
-37.7476	-44.7557	27.5913
-37.7489	-45.1228	27.6011
-37.7481	-44.6259	27.61084
-37.7479	-40.7819	27.6206
-37.7454	-38.9541	27.6304
-37.7451	-39.6085	27.6401
-37.7451	-44.9626	27.6499
-37.7433	-49.35247	27.6597
-37.7429	-45.25843	27.6694
-37.74184	-40.6686	27.6792
-37.741	-37.2677	27.689
-37.7407	-39.9314	27.69873
-37.7392	-43.4636	27.7085
-37.7374	-46.0728	27.7183
-37.7375	-44.8658	27.728
-37.737	-41.5573	27.7378
-37.7369	-41.1041	27.7476
-37.73579	-38.9093	27.7573
-37.7349	-40.0852	27.76709
-37.7348	-47.5912	27.7769
-37.734	-45.0995	27.7866
-37.73143	-43.8106	27.7964
-37.7314	-38.8886	27.8062
-37.7303	-40.709	27.8159
-37.7306	-44.0694	27.8257
-37.7298	-42.5958	27.8354
-37.7275	-44.3157	27.8452
-37.7285	-44.11787	27.85498
-37.726	-43.9026	27.8647
-37.7258	-41.0611	27.8745
-37.7255	-38.5689	27.8843