File: data/processed_data_files/tensile/0.254_solid_uprint_typeiv_4545_r(4).dat
MTS793|BTW|ENU|1|2|.|/|:|1|0|0|A

Data Header:			0.254_solid_uprint_typeiv_4545_r0			Time:	20.0168	s	4/13/2019 6:53:58 PM
Data Acquisition:	Timed
Station Name:	ft40.cfg
Test File Name:	Type IV_Monotonic.tst
Displacement	Force	Running Time
mm	N	s
-40.0461	-257.691	0.0217285
-40.0455	-259.451	0.0412598
-40.0455	-261.6268	0.060791
-40.0458	-260.756	0.0803223
-40.0447	-257.053	0.0998535
-40.0421	-258.127	0.119385
-40.0415	-258.322	0.138916
-40.0404	-254.633	0.158447
-40.0385	-253.6532	0.177979
-40.03648	-255.356	0.19751
-40.0355	-252.473	0.217041
-40.033	-250.569	0.236572
-40.0315	-251.893	0.256104
-40.0295	-251.713	0.275635
-40.0273	-246.78	0.295166
-40.0258	-246.073	0.314697
-40.0248	-250.885	0.334229
-40.0229	-244.0824	0.35376
-40.0222	-246.694	0.373291
-40.02	-247.219	0.392822
-40.0185	-240.572	0.412354
-40.0165	-239.586	0.431885
-40.0143	-246.046	0.451416
-40.0136	-236.366	0.470947
-40.0117	-237.244	0.490479
-40.0097	-240.494	0.51001
-40.0093	-235.349	0.529541
-40.007	-230.701	0.549072
-40.00605	-240.147	0.568604
-40.004	-232.564	0.588135
-40.0032	-231.212	0.607666
-40.0009	-233.851	0.627197
-39.999	-229.555	0.646729
-39.9973	-226.38	0.66626
-39.9957	-231.163	0.685791
-39.9934	-228.668	0.705322
-39.9917	-224.844	0.724854
-39.9909	-224.757	0.744385
-39.989	-226.985	0.763916
-39.9873	-224.363	0.783447
-39.9852	-222.606	0.802979
-39.9843	-222.433	0.82251
-39.9831	-220.7093	0.842041
-39.9807	-218.242	0.861572
-39.9795	-220.456	0.881104
-39.9775	-221.404	0.900635
-39.9767	-211.804	0.920166
-39.9748	-217.824	0.939697
-39.9735	-216.649	0.959229
-39.9709	-211.224	0.97876
-39.9699	-211.019	0.998291
-39.9675	-217.489	1.01782
-39.96579	-206.0041	1.03735
-39.9635	-209.091	1.05688
-39.9624	-210.107	1.076416
-39.9615	-205.242	1.09595
-39.9595	-202.995	1.11548
-39.9591	-210.1582	1.13501
-39.9566	-202.165	1.154541
-39.9553	-202.065	1.17407
-39.9532	-203.765	1.1936
-39.9509	-203.667	1.21313
-39.9494	-196.356	1.232666
-39.9487	-200.866	1.2522
-39.9472	-198.617	1.27173
-39.94503	-195.148	1.29126
-39.9434	-196.883	1.310791
-39.9415	-196.346	1.33032
-39.9414	-193.807	1.34985
-39.939	-191.731	1.36938
-39.9374	-195.4436	1.388916
-39.9361	-190.7081	1.40845
-39.9337	-188.793	1.42798
-39.9314	-189.5769	1.44751
-39.9298	-189.928	1.467041
-39.9289	-183.5262	1.48657
-39.9278	-188.267	1.5061
-39.9265	-185.987	1.52563
-39.9237	-180.593	1.545166
-39.9224	-183.718	1.5647
-39.9192	-185.392	1.58423
-39.9188	-177.089	1.60376
-39.9179	-180.665	1.623291
-39.916	-180.707	1.64282
-39.9151	-173.724	1.66235
-39.9112	-172.6738	1.68188
-39.911	-181.482	1.701416
-39.9095	-170.26	1.72095
-39.9073	-171.483	1.74048
-39.9057	-175.102	1.76001
-39.9039	-169.111	1.779541
-39.9035	-165.336	1.79907
-39.9007	-173.461	1.8186
-39.8989	-167.116	1.83813
-39.8972	-163.204	1.857666
-39.8957	-167.146	1.8772
-39.8936	-166.348	1.89673
-39.8939	-161.639	1.91626
-39.8909	-163.687	1.935791
-39.8903	-162.801	1.95532
-39.888	-157.908	1.97485
-39.8862	-159.268	1.99438
-39.8852	-160.307	2.013916
-39.8833	-157.602	2.03345
-39.8814	-153.221	2.05298
-39.8806	-159.379	2.07251
-39.878	-154.809	2.092041
-39.8776	-150.855	2.11157
-39.8751	-152.742	2.1311
-39.87331	-155.57	2.15063
-39.8718	-146.502	2.170166
-39.8703	-150.647	2.1897
-39.86837	-149.673	2.20923
-39.8672	-144.647	2.22876
-39.8656	-145.5558	2.248291
-39.8629	-150.232	2.26782
-39.86161	-140.423	2.28735
-39.8596	-141.574	2.30688
-39.8592	-145.705	2.326416
-39.8568	-139.814	2.34595
-39.855	-136.871	2.36548
-39.8545	-144.241	2.38501
-39.8524	-136.621	2.404541
-39.8512	-135.29	2.42407
-39.8489	-138.178	2.4436
-39.84798	-134.936	2.46313
-39.8468	-131.874	2.482666
-39.844	-136.049	2.5022
-39.8424	-134.238	2.52173
-39.8402	-125.839	2.54126
-39.839	-129.268	2.560791
-39.8368	-130.872	2.58032
-39.8353	-127.013	2.59985
-39.83506	-124.173	2.61938
-39.83316	-126.707	2.638916
-39.8323	-121.87	2.65845
-39.8301	-120.269	2.67798
-39.828	-123.073	2.69751
-39.8261	-122.517	2.717041
-39.82375	-115.299	2.73657
-39.8237	-122.302	2.7561
-39.82093	-118.06	2.77563
-39.8196	-112.504	2.795166
-39.8187	-114.2529	2.8147
-39.8172	-120.139	2.83423
-39.8147	-110.338	2.85376
-39.813	-111.003	2.873291
-39.8115	-114.258	2.89282
-39.81	-108.716	2.91235
-39.8074	-108.998	2.93188
-39.80764	-115.937	2.951416
-39.8047	-105.899	2.97095
-39.8047	-105.042	2.99048
-39.8017	-109.718	3.01001
-39.8008	-104.425	3.029541
-39.7988	-101.087	3.04907
-39.7973	-105.963	3.0686
-39.7947	-102.135	3.08813
-39.7949	-97.353	3.107666
-39.7926	-103.144	3.1272
-39.7906	-98.4038	3.14673
-39.7891	-96.0917	3.16626
-39.7872	-97.0851	3.185791
-39.7853	-98.98114	3.20532
-39.7842	-90.977	3.22485
-39.7823	-92.1548	3.24438
-39.7806	-94.6344	3.263916
-39.7796	-93.905	3.28345
-39.7773	-86.4594	3.30298
-39.77639	-92.8477	3.32251
-39.7752	-88.3787	3.342041
-39.7719	-83.5144	3.36157
-39.77103	-87.42527	3.3811
-39.7694	-88.2373	3.40063
-39.76791	-78.9626	3.420166
-39.7665	-84.5335	3.4397
-39.76458	-83.0181	3.45923
-39.7626	-77.3373	3.47876
-39.7613	-77.9687	3.498291
-39.7592	-83.0322	3.51782
-39.7572	-75.1584	3.53735
-39.7563	-75.6963	3.55688
-39.7545	-78.4365	3.576416
-39.7526	-71.12722	3.59595
-39.7517	-71.15696	3.61548
-39.7504	-75.4523	3.63501
-39.74749	-71.6989	3.654541
-39.7466	-65.89769	3.67407
-39.7456	-72.1846	3.6936
-39.7449	-66.9076	3.71313
-39.7408	-65.3089	3.732666
-39.7399	-66.4424	3.7522
-39.73888	-67.5956	3.77173
-39.7359	-59.9871	3.79126
-39.73592	-62.3591	3.810791
-39.733	-61.9	3.83032
-39.7324	-59.8697	3.84985
-39.7289	-55.1856	3.86938
-39.7283	-61.8206	3.888916
-39.7275	-55.955	3.90845
-39.726	-53.4059	3.92798
-39.7232	-57.2267	3.94751
-39.722	-57.0063	3.967041
-39.72131	-49.0223	3.98657
-39.7194	-54.5523	4.0061
-39.7173	-52.3309	4.02563
-39.7166	-45.75798	4.045166
-39.714	-49.5334	4.0647
-39.7119	-51.531	4.08423
-39.7106	-42.1294	4.10376
-39.7089	-46.4247	4.123291
-39.70681	-48.3684	4.14282
-39.70467	-40.9092	4.16235
-39.7047	-41.5407	4.18188
-39.7025	-45.32732	4.201416
-39.7007	-39.2694	4.22095
-39.70005	-37.2726	4.24048
-39.6972	-42.8024	4.26001
-39.69664	-35.1449	4.279541
-39.6946	-34.3951	4.29907
-39.6923	-37.44791	4.3186
-39.6916	-36.0728	4.33813
-39.6889	-29.90045	4.357666
-39.6886	-32.1496	4.3772
-39.687	-32.5651	4.39673
-39.68491	-30.60486	4.41626
-39.6835	-26.68996	4.435791
-39.6812	-30.3716	4.45532
-39.6798	-23.85392	4.47485
-39.6782	-23.684	4.49438
-39.6762	-26.7327	4.513916
-39.6741	-25.1419	4.53345
-39.674	-18.6443	4.55298
-39.6723	-25.871	4.57251
-39.6705	-20.2777	4.592041
-39.6688	-16.0456	4.61157
-39.6667	-20.1513	4.6311
-39.665	-22.4251	4.65063
-39.6639	-12.9123	4.670166
-39.6617	-18.1331	4.6897
-39.6608	-17.6248	4.70923
-39.6589	-10.6748	4.72876
-39.6564	-13.4013	4.748291
-39.65564	-15.5259	4.76782
-39.6541	-6.90909	4.78735
-39.6524	-6.95043	4.80688
-39.6496	-13.0235	4.826416
-39.6485	-3.911505	4.84595
-39.6475	-4.915019	4.86548
-39.6455	-6.02532	4.88501
-39.644	-6.16386	4.904541
-39.6422	-0.581693	4.92407
-39.6415	-3.48647	4.9436
-39.6387	0.468561	4.96313
-39.6375	1.88084	4.982666
-39.6353	1.57648	5.0022
-39.6334	-1.21922	5.02173
-39.6323	6.96601	5.04126
-39.6315	6.57289	5.060791
-39.6279	3.06028	5.08032
-39.6269	5.57954	5.09985
-39.6252	10.4081	5.11938
-39.6247	4.83927	5.138916
-39.6216	10.0064	5.15845
-39.6224	12.6714	5.17798
-39.6202	8.6722	5.19751
-39.6191	11.185	5.217041
-39.6163	17.0365	5.23657
-39.6151	11.4111	5.2561
-39.6132	12.2836	5.27563
-39.6112	20.5614	5.295166
-39.6094	16.9157	5.3147
-39.6084	13.35827	5.33423
-39.6061	23.4713	5.35376
-39.6043	20.4293	5.373291
-39.60294	18.4333	5.39282
-39.6014	26.9033	5.41235
-39.6011	24.2655	5.43188
-39.5983	22.0408	5.451416
-39.5965	27.0227	5.47095
-39.59576	29.36725	5.49048
-39.5945	24.0554	5.51001
-39.5926	30.0371	5.529541
-39.5901	31.039	5.54907
-39.5893	32.0483	5.5686
-39.5872	29.4303	5.58813
-39.5848	36.898	5.607666
-39.5832	35.605	5.6272
-39.58271	34.78344	5.64673
-39.5799	37.8712	5.66626
-39.5785	39.1527	5.685791
-39.5769	35.7139	5.70532
-39.5743	43.4896	5.72485
-39.5747	43.5362	5.74438
-39.57246	39.4897	5.763916
-39.5717	41.7993	5.78345
-39.5687	47.6021	5.80298
-39.5686	40.9957	5.82251
-39.5659	44.7002	5.842041
-39.5643	50.3997	5.86157
-39.5624	45.4423	5.8811
-39.5611	46.7488	5.90063
-39.559	53.4382	5.920166
-39.5578	49.3565	5.9397
-39.5565	48.0535	5.95923
-39.5553	57.1956	5.97876
-39.5527	51.833	5.998291
-39.5509	52.0419	6.01782
-39.5495	57.3197	6.03735
-39.5476	58.9027	6.05688
-39.5466	55.24395	6.076416
-39.545	62.4722	6.09595
-39.5435	58.7107	6.11548
-39.5425	59.6254	6.13501
-39.539	60.816	6.154541
-39.5381	67.5846	6.17407
-39.53614	62.59095	6.1936
-39.53598	65.14724	6.21313
-39.5334	68.48484	6.232666
-39.5308	69.0217	6.2522
-39.5299	66.2701	6.27173
-39.5293	72.0753	6.29126
-39.52597	72.3951	6.310791
-39.5257	69.6347	6.33032
-39.5233	73.7894	6.34985
-39.522	77.0579	6.36938
-39.5205	70.8812	6.388916
-39.5186	77.7146	6.40845
-39.5175	81.4645	6.42798
-39.5152	75.9845	6.44751
-39.5139	78.8013	6.467041
-39.5125	83.72673	6.48657
-39.5106	79.5776	6.5061
-39.5092	79.1348	6.52563
-39.506	88.0022	6.545166
-39.5063	81.393	6.5647
-39.5043	84.274	6.58423
-39.5031	88.9553	6.60376
-39.5007	88.2146	6.623291
-39.4987	86.4094	6.64282
-39.4985	92.7894	6.66235
-39.4955	89.4422	6.68188
-39.4955	91.001	6.701416
-39.4935	92.4453	6.72095
-39.49173	97.5049	6.74048
-39.4895	92.7571	6.76001
-39.487	97.3039	6.779541
-39.4866	97.1528	6.79907
-39.4848	96.7578	6.8186
-39.4823	98.1161	6.83813
-39.4796	105.57	6.857666
-39.4797	99.9818	6.8772
-39.4782	99.7792	6.89673
-39.477	103.746	6.91626
-39.4748	106.788	6.935791
-39.4735	101.915	6.95532
-39.4712	108.029	6.97485
-39.4698	110.64	6.99438
-39.4685	105.827	7.013916
-39.4663	109.318	7.03345
-39.4649	114.347	7.05298
-39.4645	108.41	7.07251
-39.4623	111.707	7.092041
-39.4603	119.231	7.11157
-39.45882	111.251	7.1311
-39.4571	114.392	7.15063
-39.4554	120.047	7.170166
-39.4535	117.273	7.1897
-39.4526	116.496	7.20923
-39.4502	122.857	7.22876
-39.4491	118.928	7.248291
-39.4474	120.069	7.26782
-39.4466	126.545	7.28735
-39.44429	127.079	7.30688
-39.4415	120.505	7.326416
-39.4408	129.473	7.34595
-39.4392	126.438	7.36548
-39.438	128.572	7.38501
-39.4365	126.906	7.404541
-39.4348	133.768	7.42407
-39.4318	130.1	7.4436
-39.4305	131.653	7.46313
-39.4281	134.354	7.482666
-39.4271	133.348	7.5022
-39.4256	132.475	7.52173
-39.4239	139.694	7.54126
-39.4227	139.568	7.560791
-39.4213	135.308	7.58032
-39.4191	139.743	7.59985
-39.4176	142.344	7.61938
-39.416	140.689	7.638916
-39.4162	141.7708	7.65845
-39.4133	145.823	7.67798
-39.4114	140.047	7.69751
-39.40942	145.763	7.717041
-39.4088	150.138	7.73657
-39.4055	146.051	7.7561
-39.405	146.8082	7.77563
-39.4037	153.795	7.795166
-39.4006	147.227	7.8147
-39.3995	149.99	7.83423
-39.399	153.086	7.85376
-39.3968	155.214	7.873291
-39.395	153.122	7.89282
-39.3925	159.219	7.91235
-39.3923	155.533	7.93188
-39.39106	156.478	7.951416
-39.38818	158.774	7.97095
-39.3864	164.1129	7.99048
-39.3845	159.402	8.01001
-39.3841	162.061	8.029541
-39.3821	163.201	8.04907
-39.3801	163.243	8.0686
-39.3793	162.682	8.08813
-39.3767	168.261	8.107666
-39.3758	166.194	8.1272
-39.3745	163.978	8.14673
-39.3721	170.145	8.16626
-39.3697	169.522	8.185791
-39.3696	166.115	8.20532
-39.3675	173.825	8.22485
-39.3676	175.6151	8.24438
-39.3635	168.883	8.263916
-39.3625	174.751	8.28345
-39.3605	179.562	8.30298
-39.3599	174.65	8.32251
-39.3582	177.493	8.342041
-39.3558	181.816	8.36157
-39.3544	174.393	8.3811
-39.353	181.084	8.40063
-39.3516	185.012	8.420166
-39.3505	184.2439	8.4397
-39.34803	181.571	8.45923
-39.34684	190.443	8.47876
-39.3444	183.14	8.498291
-39.3424	185.08	8.51782
-39.3416	187.796	8.53735
-39.33984	191.477	8.55688
-39.3382	187.3056	8.576416
-39.3364	196.075	8.59595
-39.3342	191.024	8.61548
-39.3335	190.9606	8.63501
-39.3315	193.556	8.654541
-39.3303	198.248	8.67407
-39.3277	194.51	8.6936
-39.3275	194.042	8.71313
-39.3249	199.024	8.732666
-39.3225	198.568	8.7522
-39.322	196.882	8.77173
-39.3207	202.5657	8.79126
-39.3183	204.0173	8.810791
-39.3171	199.373	8.83032
-39.3154	205.727	8.84985
-39.3148	206.033	8.86938
-39.3125	202.901	8.888916
-39.3106	207.425	8.90845
-39.3083	212.2468	8.92798
-39.3072	204.455	8.94751
-39.305	211.36	8.967041
-39.3039	212.591	8.98657
-39.3025	211.0632	9.0061
-39.301	212.685	9.02563
-39.2993	218.5934	9.045166
-39.2971	211.087	9.0647
-39.2963	216.992	9.08423
-39.2945	219.355	9.10376
-39.2932	219.158	9.123291
-39.2917	217.217	9.14282
-39.2897	222.936	9.16235
-39.288	219.595	9.18188
-39.2867	220.207	9.201416
-39.28521	223.793	9.22095
-39.2828	226.355	9.24048
-39.2807	224.983	9.26001
-39.2799	225.813	9.279541
-39.2782	227.816	9.29907
-39.275	226.468	9.3186
-39.2753	228.384	9.33813
-39.273	232.409	9.357666
-39.2708	230.912	9.3772
-39.2701	228.609	9.39673
-39.2674	235.063	9.41626
-39.2663	235.0112	9.435791
-39.2644	232.25	9.45532
-39.2635	237.5435	9.47485
-39.261	239.306	9.49438
-39.2589	233.412	9.513916
-39.2581	241.242	9.53345
-39.2569	241.497	9.55298
-39.2555	238.01	9.57251
-39.2541	241.069	9.592041
-39.2511	247.685	9.61157
-39.2505	240.3307	9.6311
-39.249	244.354	9.65063
-39.2461	248.11	9.670166
-39.2452	246.428	9.6897
-39.24276	246.431	9.70923
-39.242	252.051	9.72876
-39.2412	247.683	9.748291
-39.2393	249.176	9.76782
-39.2384	254.564	9.78735
-39.23653	254.142	9.80688
-39.2328	251.646	9.826416
-39.2322	254.725	9.84595
-39.231	255.979	9.86548
-39.2283	254.918	9.88501
-39.2268	256.342	9.904541
-39.2258	261.132	9.92407
-39.2242	259.485	9.9436
-39.2215	258.019	9.96313
-39.2215	263.608	9.982666
-39.2201	260.642	10.0022
-39.2179	261.989	10.0217
-39.21587	268.436	10.04126
-39.2153	267.956	10.0608
-39.2127	260.964	10.0803
-39.21	271.353	10.0999
-39.20871	269.941	10.1194
-39.209	268.53	10.1389
-39.2057	273.322	10.1584
-39.2045	275.218	10.178
-39.2034	267.605	10.19751
-39.2015	274.387	10.217
-39.2005	276.596	10.2366
-39.1975	273.977	10.2561
-39.1963	274.691	10.2756
-39.1948	282.504	10.2952
-39.1931	276.978	10.3147
-39.1923	278.0098	10.3342
-39.1893	281.452	10.35376
-39.1883	282.455	10.3733
-39.1871	281.48	10.3928
-39.1849	285.644	10.4124
-39.1837	283.213	10.4319
-39.1806	283.414	10.4514
-39.1788	286.672	10.4709
-39.1786	290.669	10.4905
-39.1777	286.6084	10.51001
-39.1757	287.897	10.5295
-39.1733	292.086	10.5491
-39.1735	288.921	10.5686
-39.1706	290.6131	10.5881
-39.17	294.88	10.6077
-39.1666	294.112	10.6272
-39.1658	292.204	10.6467
-39.165	299.558	10.66626
-39.162	296.992	10.6858
-39.1624	294.21	10.7053
-39.1585	302.035	10.7249
-39.1574	304.28	10.7444
-39.1551	294.713	10.7639
-39.1539	303.032	10.7834
-39.1521	304.332	10.803
-39.1503	301.913	10.82251
-39.1496	305.5824	10.842
-39.1481	309.518	10.8616
-39.14613	302.015	10.8811
-39.144	309.166	10.9006
-39.1426	312.414	10.9202
-39.1413	309.3092	10.9397
-39.141	308.774	10.9592
-39.1381	315.594	10.97876
-39.1371	311.605	10.9983
-39.1334	312.204	11.0178
-39.13266	314.278	11.0374
-39.133	314.311	11.0569
-39.1298	313.912	11.0764
-39.1274	317.789	11.0959
-39.1261	318.482	11.1155
-39.125	315.714	11.13501
-39.1243	318.497	11.1545
-39.1224	325.1059	11.1741
-39.1194	319.326	11.1936
-39.1184	319.219	11.2131
-39.117	327.97	11.2327
-39.11573	323.39	11.2522
-39.1129	324.002	11.2717
-39.112	329.528	11.29126
-39.1113	329.836	11.3108
-39.1103	322.622	11.3303
-39.1081	335.345	11.3499
-39.1054	330.218	11.3694
-39.1049	327.026	11.3889
-39.1019	333.667	11.4084
-39.1	336.909	11.428
-39.1002	328.473	11.44751
-39.0978	336.138	11.467
-39.0966	337.2453	11.4866
-39.0942	335.611	11.5061
-39.092	337.04	11.5256
-39.0911	342.285	11.5452
-39.0886	335.665	11.5647
-39.0877	338.253	11.5842
-39.0862	344.893	11.60376
-39.0858	342.297	11.6233
-39.083	340.084	11.6428
-39.08054	344.663	11.6624
-39.0784	346.942	11.6819
-39.0784	343.261	11.7014
-39.0763	348.202	11.7209
-39.0756	350.12	11.7405
-39.073	348.15	11.76001
-39.0717	348.329	11.7795
-39.0694	354.739	11.7991
-39.0685	349.243	11.8186
-39.067	352.007	11.8381
-39.0652	358.094	11.8577
-39.0639	355.247	11.8772
-39.0621	350.807	11.8967
-39.0603	360.76	11.91626
-39.0569	356.0105	11.9358
-39.0564	355.33	11.9553
-39.0549	362.495	11.9749
-39.0538	362.027	11.9944
-39.0513	353.9895	12.0139
-39.0505	366.413	12.0334
-39.048	365.517	12.053
-39.0471	359.564	12.07251
-39.0452	363.82	12.092
-39.0433	369.604	12.1116
-39.042	363.052	12.1311
-39.0409	366.295	12.1506
-39.0381	371.043	12.1702
-39.0359	367.025	12.1897
-39.0358	367.412	12.2092
-39.0339	373.255	12.22876
-39.033	370.655	12.2483
-39.0303	370.409	12.2678
-39.0291	375.366	12.2874
-39.0273	377.25	12.3069
-39.0254	372.653	12.3264
-39.02359	375.729	12.3459
-39.0218	381.298	12.3655
-39.0218	373.901	12.38501
-39.0195	379.905	12.4045
-39.0174	384.107	12.4241
-39.0159	380.091	12.4436
-39.0134	377.288	12.4631
-39.0119	388.417	12.4827
-39.01025	382.16	12.5022
-39.0094	381.65	12.5217
-39.0081	388.718	12.54126
-39.0063	386.876	12.5608
-39.0046	380.915	12.5803
-39.00412	392.329	12.5999
-39.001	390.165	12.6194
-38.999	388.62	12.6389
-38.9987	391.523	12.6584
-38.9966	395.555	12.678
-38.9945	387.2475	12.69751
-38.99398	394.701	12.717
-38.9902	397.014	12.7366
-38.9908	391.295	12.7561
-38.9884	395.19	12.7756
-38.9871	400.3486	12.7952
-38.9852	395.371	12.8147
-38.9825	395.583	12.8342
-38.9813	402.335	12.85376
-38.9801	399.244	12.8733
-38.9788	399.1312	12.8928
-38.9776	403.516	12.9124
-38.9745	405.61	12.9319
-38.974	399.508	12.9514
-38.9716	406.462	12.9709
-38.9701	409.2496	12.9905
-38.9688	404.262	13.01001
-38.9661	404.762	13.0295
-38.965	414.424	13.0491
-38.9636	406.71	13.0686
-38.9614	409.861	13.0881
-38.9612	413.7326	13.1077
-38.9589	411.835	13.1272
-38.9583	409.452	13.1467
-38.9549	418.973	13.16626
-38.9532	414.229	13.1858
-38.9524	411.728	13.2053
-38.9506	419.226	13.2249
-38.9497	419.157	13.2444
-38.9483	411.914	13.2639
-38.9462	420.46	13.2834
-38.9441	421.868	13.303
-38.9418	418.619	13.32251
-38.9424	421.368	13.342
-38.9404	424.345	13.3616
-38.937	419.684	13.3811
-38.93544	422.861	13.4006
-38.9358	428.99	13.4202
-38.9321	423.149	13.4397
-38.9319	424.452	13.4592
-38.9309	430.034	13.47876
-38.9291	429.5271	13.4983
-38.92625	425.904	13.5178
-38.925	432.054	13.5374
-38.9241	431.75	13.5569
-38.9216	429.231	13.5764
-38.9201	431.986	13.5959
-38.9189	437.558	13.6155
-38.91655	430.802	13.63501
-38.91523	435.97	13.6545
-38.9135	440.4209	13.6741
-38.9117	436.792	13.6936
-38.9106	432.5025	13.7131
-38.9089	444.0842	13.7327
-38.9067	438.606	13.7522
-38.9054	438.1871	13.7717
-38.90329	443.531	13.79126
-38.9018	443.159	13.8108
-38.9019	438.799	13.8303
-38.8988	447.815	13.8499
-38.897	445.872	13.8694
-38.8957	441.704	13.8889
-38.8928	447.856	13.9084
-38.8925	448.297	13.928
-38.89098	443.586	13.94751
-38.8892	446.93	13.967
-38.8876	453.467	13.9866
-38.8859	447.986	14.0061
-38.88419	451.3819	14.0256
-38.88232	452.641	14.0452
-38.8808	451.681	14.0647
-38.8797	451.279	14.0842
-38.8778	458.182	14.10376
-38.8759	454.958	14.1233
-38.8749	454.276	14.1428
-38.8712	455.631	14.1624
-38.8718	461.644	14.1819
-38.8693	454.45	14.2014
-38.868	461.469	14.2209
-38.8651	462.31	14.2405
-38.8653	459.714	14.26001
-38.8629	458.99	14.2795
-38.8606	467.462	14.2991
-38.8591	459.349	14.3186
-38.85733	462.983	14.3381
-38.8563	468.825	14.3577
-38.8552	464.884	14.3772
-38.8535	460.7226	14.3967
-38.8508	470.28	14.41626
-38.8509	467.399	14.4358
-38.8484	465.333	14.4553
-38.8469	472.981	14.4749
-38.8457	470.218	14.4944
-38.8434	465.803	14.5139
-38.84164	474.03	14.5334
-38.8402	475.998	14.553
-38.8377	470.603	14.57251
-38.836	477.049	14.592
-38.8359	477.627	14.6116
-38.8338	474.831	14.6311
-38.8324	474.896	14.6506
-38.8307	482.316	14.6702
-38.829	477.646	14.6897
-38.8267	478.31	14.7092
-38.825	481.3576	14.72876
-38.8244	482.789	14.7483
-38.82172	476.79	14.7678
-38.821	485.271	14.7874
-38.8191	485.267	14.8069
-38.8176	481.711	14.8264
-38.8155	482.632	14.8459
-38.8141	491.024	14.8655
-38.812	482.61	14.88501
-38.81068	487.458	14.9045
-38.8089	489.618	14.9241
-38.8075	487.045	14.9436
-38.807	485.411	14.9631
-38.8052	494.129	14.9827
-38.8025	490.579	15.0022
-38.801	488.712	15.0217
-38.799	497.241	15.04126
-38.7975	493.623	15.0608
-38.7964	488.7637	15.0803
-38.7947	497.786	15.0999
-38.7931	498.599	15.1194
-38.7912	491.774	15.1389
-38.78957	499.168	15.1584
-38.7885	499.067	15.178
-38.7867	496.01	15.19751
-38.7849	498.637	15.217
-38.7836	503.168	15.2366
-38.7809	498.052	15.2561
-38.78	501.743	15.2756
-38.7784	503.965	15.2952
-38.7769	502.859	15.3147
-38.7754	501.37	15.3342
-38.7729	508.572	15.35376
-38.7714	505.513	15.3733
-38.7695	504.407	15.3928
-38.7675	504.367	15.4124
-38.7669	510.212	15.4319
-38.76561	503.849	15.4514
-38.7647	509.954	15.4709
-38.7625	512.516	15.4905
-38.7606	506.994	15.51001
-38.7583	508.332	15.5295
-38.757	515.728	15.5491
-38.7562	508.879	15.5686
-38.7539	511.587	15.5881
-38.7524	517.2511	15.6077
-38.7502	512.646	15.6272
-38.7488	510.825	15.6467
-38.747	519.098	15.66626
-38.7453	516.058	15.6858
-38.7437	513.436	15.7053
-38.7422	521.576	15.7249
-38.7406	519.781	15.7444
-38.7386	515.4433	15.7639
-38.7375	519.555	15.7834
-38.7371	524.1712	15.803
-38.7344	517.074	15.82251
-38.7335	523.07	15.842
-38.73045	523.181	15.8616
-38.7303	522.122	15.8811
-38.7277	520.852	15.9006
-38.7269	528.1778	15.9202
-38.72451	523.42	15.9397
-38.7219	525.267	15.9592
-38.72142	526.039	15.97876
-38.721	529.731	15.9983
-38.7182	522.426	16.0178
-38.7158	530.657	16.0374
-38.7147	531.877	16.0569
-38.7141	527.249	16.0764
-38.711	529.723	16.0959
-38.7093	534.438	16.1155
-38.7084	529.127	16.13501
-38.7072	532.6	16.1545
-38.7053	536.339	16.1741
-38.7035	531.589	16.1936
-38.703	530.893	16.2131
-38.7005	538.645	16.2327
-38.6987	534.29	16.2522
-38.6963	532.95	16.2717
-38.695	542.899	16.29126
-38.69273	536.615	16.3108
-38.6922	534.566	16.3303
-38.6897	540.51	16.3499
-38.6887	539.705	16.3694
-38.6865	535.776	16.3889
-38.6855	542.878	16.4084
-38.6843	540.879	16.428
-38.6814	538.798	16.44751
-38.6817	539.852	16.467
-38.679	546.657	16.4866
-38.67728	542.364	16.5061
-38.6767	543.535	16.5256
-38.6744	542.742	16.5452
-38.672	543.758	16.5647
-38.6709	541.272	16.5842
-38.6694	550.468	16.60376
-38.6671	547.166	16.6233
-38.6661	544.142	16.6428
-38.6642	548.003	16.6624
-38.6635	551.989	16.6819
-38.6626	544.951	16.7014
-38.6591	551.523	16.7209
-38.6586	553.362	16.7405
-38.657	546.192	16.76001
-38.6546	548.598	16.7795
-38.6527	554.564	16.7991
-38.653	549.341	16.8186
-38.6505	550.35	16.8381
-38.6478	557.049	16.8577
-38.647	550.452	16.8772
-38.644	550.727	16.8967
-38.6438	558.151	16.91626
-38.641	557.538	16.9358
-38.6395	552.838	16.9553
-38.6386	559.824	16.9749
-38.637	556.424	16.9944
-38.6344	555.69	17.0139
-38.6337	558.76	17.0334
-38.6329	562.336	17.053
-38.6294	555.32	17.07251
-38.62891	561.521	17.092
-38.628	561.344	17.1116
-38.62598	558.961	17.1311
-38.6226	557.476	17.1506
-38.6226	565.474	17.1702
-38.6198	560.444	17.1897
-38.6189	560.968	17.2092
-38.6169	562.538	17.22876
-38.61628	563.545	17.2483
-38.61438	559.84	17.2678
-38.613	566.968	17.2874
-38.6108	566.7124	17.3069
-38.6089	560.266	17.3264
-38.608	564.012	17.3459
-38.6055	570.351	17.3655
-38.6047	562.656	17.38501
-38.6019	564.33	17.4045
-38.6014	569.398	17.4241
-38.5992	564.933	17.4436
-38.5968	566.8396	17.4631
-38.5954	572.489	17.4827
-38.5948	566.971	17.5022
-38.5925	565.85	17.5217
-38.5902	573.044	17.54126
-38.591	566.813	17.5608
-38.5883	567.347	17.5803
-38.5855	572.79	17.5999
-38.5845	572.731	17.6194
-38.5828	569.422	17.6389
-38.5815	573.825	17.6584
-38.5802	571.05	17.678
-38.5793	569.778	17.69751
-38.57642	570.804	17.717
-38.5749	576.804	17.7366
-38.5737	571.193	17.7561
-38.5711	574.049	17.7756
-38.5707	574.922	17.7952
-38.5671	574.2558	17.8147
-38.5675	569.377	17.8342
-38.5644	576.813	17.85376
-38.5638	575.849	17.8733
-38.5625	572.102	17.8928
-38.5601	575.324	17.9124
-38.55809	577.623	17.9319
-38.55827	572.495	17.9514
-38.5555	577.3512	17.9709
-38.5545	581.224	17.9905
-38.5523	572.767	18.01001
-38.5506	577.702	18.0295
-38.5479	580.753	18.0491
-38.5475	578.373	18.0686
-38.545	578.336	18.0881
-38.5446	583.653	18.1077
-38.5417	576.258	18.1272
-38.5409	578.493	18.1467
-38.5391	583.536	18.16626
-38.53759	580.419	18.1858
-38.5349	577.5777	18.2053
-38.53418	583.551	18.2249
-38.5319	578.166	18.2444
-38.5312	579.3421	18.2639
-38.5304	580.1806	18.2834
-38.5276	583.285	18.303
-38.5259	579.787	18.32251
-38.5254	581.668	18.342
-38.5227	581.8	18.3616
-38.5207	580.713	18.3811
-38.5186	580.672	18.4006
-38.5169	587.589	18.4202
-38.5159	583.115	18.4397
-38.5148	580.187	18.4592
-38.5133	583.38	18.47876
-38.5116	584.804	18.4983
-38.509	578.646	18.5178
-38.509	585.363	18.5374
-38.5064	585.4024	18.5569
-38.50507	580.122	18.5764
-38.5024	583.101	18.5959
-38.5011	585.588	18.6155
-38.4992	580.133	18.63501
-38.4996	583.543	18.6545
-38.4959	587.965	18.6741
-38.4953	579.88	18.6936
-38.493	582.418	18.7131
-38.4926	587.6366	18.7327
-38.4903	585.546	18.7522
-38.4892	582.968	18.7717
-38.4871	589.287	18.79126
-38.4854	581.964	18.8108
-38.4846	584.4314	18.8303
-38.4823	587.387	18.8499
-38.4793	586.045	18.8694
-38.4794	582.57	18.8889
-38.4769	586.911	18.9084
-38.4755	586.124	18.928
-38.4739	584.111	18.94751
-38.4719	584.089	18.967
-38.4714	587.21	18.9866
-38.46962	584.666	19.0061
-38.4675	584.486	19.0256
-38.4652	587.074	19.0452
-38.4639	585.739	19.0647
-38.4631	583.796	19.0842
-38.46167	587.738	19.10376
-38.4595	587.013	19.1233
-38.45702	581.275	19.1428
-38.4566	589.188	19.1624
-38.4535	586.812	19.1819
-38.4523	583.016	19.2014
-38.4511	585.669	19.2209
-38.4499	589.247	19.2405
-38.4492	581.098	19.26001
-38.446	586.609	19.2795
-38.4454	588.17	19.2991
-38.4439	583.168	19.3186
-38.4421	584.876	19.3381
-38.4383	590.994	19.3577
-38.438	581.6217	19.3772
-38.4371	584.308	19.3967
-38.4351	588.307	19.41626
-38.4331	585.047	19.4358
-38.431	583.172	19.4553
-38.4295	589.267	19.4749
-38.428	582.1145	19.4944
-38.4267	583.251	19.5139
-38.4251	585.847	19.5334
-38.4228	588.406	19.553
-38.4223	582.462	19.57251
-38.4199	584.623	19.592
-38.4181	585.966	19.6116
-38.418	584.565	19.6311
-38.4154	583.206	19.6506
-38.4138	586.27	19.6702
-38.4132	585.4	19.6897
-38.411	582.003	19.7092
-38.4093	586.671	19.72876
-38.4078	583.773	19.7483
-38.4057	581.619	19.7678
-38.4036	586.4187	19.7874
-38.4016	586.654	19.8069
-38.3993	578.205	19.8264
-38.3994	585.509	19.8459
-38.3975	586.397	19.8655
-38.3963	581.258	19.88501
-38.39397	581.821	19.9045
-38.393	586.973	19.9241
-38.3911	578.435	19.9436
-38.3897	584.197	19.9631
-38.3877	585.567	19.9827
-38.3857	582.1123	20.0022
-38.3855	578.703	20.012

Data Header:			0.254_solid_uprint_typeiv_4545_r0			Time:	40.0166	s	4/13/2019 6:54:18 PM
Data Acquisition:	Timed
Station Name:	ft40.cfg
Test File Name:	Type IV_Monotonic.tst
Displacement	Force	Running Time
mm	N	s
-38.38393	580.862	20.0217
-38.383	586.69	20.04126
-38.38168	579.5152	20.0608
-38.3796	579.4599	20.0803
-38.3769	583.762	20.0999
-38.37627	584.014	20.1194
-38.3737	579.945	20.1389
-38.3726	583.061	20.1584
-38.3718	582.428	20.178
-38.3694	579.8064	20.19751
-38.3678	581.956	20.217
-38.3665	583.81	20.2366
-38.36478	581.155	20.2561
-38.3631	578.953	20.2756
-38.3619	584.552	20.2952
-38.3605	580.571	20.3147
-38.3577	580.127	20.3342
-38.3575	583.551	20.35376
-38.3558	583.921	20.3733
-38.3536	576.575	20.3928
-38.3524	584.261	20.4124
-38.35	581.321	20.4319
-38.3485	577.459	20.4514
-38.3475	581.842	20.4709
-38.3453	583.522	20.4905
-38.3433	574.986	20.51001
-38.3419	581.616	20.5295
-38.3401	583.463	20.5491
-38.3392	578.097	20.5686
-38.3383	578.605	20.5881
-38.3354	584.141	20.6077
-38.3341	576.25	20.6272
-38.3319	579.768	20.6467
-38.3305	581.0755	20.66626
-38.328	580.764	20.6858
-38.3281	575.802	20.7053
-38.3253	582.017	20.7249
-38.3251	579.103	20.7444
-38.32185	576.12	20.7639
-38.3205	579.677	20.7834
-38.31852	580.9325	20.803
-38.3183	577.238	20.82251
-38.3153	579.117	20.842
-38.3145	579.6344	20.8616
-38.3133	575.167	20.8811
-38.3102	576.658	20.9006
-38.3103	580.258	20.9202
-38.3085	577.687	20.9397
-38.3061	573.793	20.9592
-38.3053	581.208	20.97876
-38.3021	578.296	20.9983
-38.3015	575.971	21.0178
-38.2997	578.164	21.0374
-38.29705	580.342	21.0569
-38.2964	570.759	21.0764
-38.2938	579.2179	21.0959
-38.2938	579.11	21.1155
-38.2921	574.798	21.13501
-38.2894	578.176	21.1545
-38.2889	581.617	21.1741
-38.2873	572.649	21.1936
-38.2852	576.042	21.2131
-38.2845	579.875	21.2327
-38.28233	577.132	21.2522
-38.28056	574.636	21.2717
-38.2787	578.707	21.29126
-38.2757	574.893	21.3108
-38.275	575.609	21.3303
-38.2736	576.247	21.3499
-38.2719	576.201	21.3694
-38.2706	573.3703	21.3889
-38.2694	576.304	21.4084
-38.2678	577.744	21.428
-38.2655	572.523	21.44751
-38.2643	574.003	21.467
-38.2632	577.824	21.4866
-38.2605	573.718	21.5061
-38.259	571.823	21.5256
-38.2578	578.513	21.5452
-38.25597	571.923	21.5647
-38.2546	572.043	21.5842
-38.2521	576.805	21.60376
-38.251	574.6507	21.6233
-38.2489	567.784	21.6428
-38.2479	576.739	21.6624
-38.24535	574.476	21.6819
-38.2435	570.5769	21.7014
-38.2427	574.435	21.7209
-38.2421	576.548	21.7405
-38.2395	567.709	21.76001
-38.2376	575.425	21.7795
-38.2361	575.87	21.7991
-38.2351	572.392	21.8186
-38.23246	571.355	21.8381
-38.2318	576.803	21.8577
-38.2302	569.014	21.8772
-38.2279	570.35	21.8967
-38.2272	574.027	21.91626
-38.2254	572.5022	21.9358
-38.2227	570.318	21.9553
-38.2209	573.581	21.9749
-38.2199	571.75	21.9944
-38.2184	569.283	22.0139
-38.2153	572.659	22.0334
-38.21497	572.8114	22.053
-38.21384	569.975	22.07251
-38.2124	569.418	22.092
-38.20974	575.159	22.1116
-38.208	570.363	22.1311
-38.2063	570.535	22.1506
-38.2051	574.354	22.1702
-38.2036	571.352	22.1897
-38.2023	564.916	22.2092
-38.2	575.881	22.22876
-38.1994	569.9613	22.2483
-38.1965	568.419	22.2678
-38.19577	573.617	22.2874
-38.1943	574.034	22.3069
-38.1919	563.78	22.3264
-38.19099	574.162	22.3459
-38.1892	574.456	22.3655
-38.1879	569.04	22.38501
-38.186	570.606	22.4045
-38.1835	573.0592	22.4241
-38.1823	565.867	22.4436
-38.18034	569.435	22.4631
-38.1801	573.115	22.4827
-38.1784	568.341	22.5022
-38.177	568.874	22.5217
-38.1739	573.406	22.54126
-38.1718	568.403	22.5608
-38.1714	566.55	22.5803
-38.1705	572.322	22.5999
-38.1672	569.433	22.6194
-38.16626	566.694	22.6389
-38.1667	568.425	22.6584
-38.1628	570.182	22.678
-38.1609	566.216	22.69751
-38.1605	568.716	22.717
-38.1575	572.025	22.7366
-38.1555	567.938	22.7561
-38.1543	565.118	22.7756
-38.1522	574.112	22.7952
-38.1515	567.135	22.8147
-38.1503	565.815	22.8342
-38.14806	570.916	22.85376
-38.1469	570	22.8733
-38.1448	563.533	22.8928
-38.144	571.084	22.9124
-38.1412	568.822	22.9319
-38.13969	564.314	22.9514
-38.1382	568.4	22.9709
-38.1369	570.198	22.9905
-38.1358	561.383	23.01001
-38.1334	567.951	23.0295
-38.1332	569.887	23.0491
-38.1304	564.699	23.0686
-38.1296	567.7688	23.0881
-38.1278	570.216	23.1077
-38.1263	563.53	23.1272
-38.124	564.833	23.1467
-38.1235	569.717	23.16626
-38.1224	565.941	23.1858
-38.1195	564.724	23.2053
-38.1185	567.648	23.2249
-38.1154	569.027	23.2444
-38.1145	563.144	23.2639
-38.1128	568.504	23.2834
-38.1112	568.846	23.303
-38.1098	567.626	23.32251
-38.106	564.185	23.342
-38.106	569.205	23.3616
-38.10445	563.185	23.3811
-38.1025	567.244	23.4006
-38.1005	570.516	23.4202
-38.0988	566.4599	23.4397
-38.0987	561.197	23.4592
-38.0962	570.274	23.47876
-38.09481	564.911	23.4983
-38.09404	563.37	23.5178
-38.091	568.125	23.5374
-38.0908	567.318	23.5569
-38.0882	560.84	23.5764
-38.086	569.384	23.5959
-38.0847	567.541	23.6155
-38.0835	562.435	23.63501
-38.0818	566.0257	23.6545
-38.0801	569.226	23.6741
-38.078	561.64	23.6936
-38.0764	562.756	23.7131
-38.0753	569.576	23.7327
-38.0733	562.312	23.7522
-38.0717	564.719	23.7717
-38.0695	565.468	23.79126
-38.069	565.783	23.8108
-38.0674	562.064	23.8303
-38.0655	568.48	23.8499
-38.0641	565.303	23.8694
-38.06229	561.697	23.8889
-38.0607	561.971	23.9084
-38.05899	570.543	23.928
-38.0565	560.838	23.94751
-38.0554	564.3374	23.967
-38.0536	566.359	23.9866
-38.0523	563.45	24.0061
-38.0516	562.059	24.0256
-38.0483	570.391	24.0452
-38.04694	561.019	24.0647
-38.0463	561.29	24.0842
-38.0444	567.499	24.10376
-38.0421	563.963	24.1233
-38.0405	557.934	24.1428
-38.0393	567.647	24.1624
-38.0371	565.32	24.1819
-38.0354	559.774	24.2014
-38.0341	563.531	24.2209
-38.0327	565.085	24.2405
-38.0316	558.404	24.26001
-38.0296	564.584	24.2795
-38.0279	565.998	24.2991
-38.0257	559.487	24.3186
-38.0239	563.323	24.3381
-38.0223	564.004	24.3577
-38.0205	561.974	24.3772
-38.0202	560.437	24.3967
-38.01944	566.232	24.41626
-38.0173	562.408	24.4358
-38.0152	562.424	24.4553
-38.013	561.25	24.4749
-38.0123	565.145	24.4944
-38.0107	559.774	24.5139
-38.008	564.153	24.5334
-38.0072	564.824	24.553
-38.00528	560.5542	24.57251
-38.0041	559.786	24.592
-38.0017	566.964	24.6116
-38.0002	559.128	24.6311
-37.9981	562.37	24.6506
-37.9978	565.145	24.6702
-37.996	563.113	24.6897
-37.994	557.747	24.7092
-37.992	566.272	24.72876
-37.99012	561.716	24.7483
-37.9883	558.385	24.7678
-37.9874	564.686	24.7874
-37.9848	562.267	24.8069
-37.9849	556.029	24.8264
-37.9826	563.92	24.8459
-37.98019	566.71	24.8655
-37.9792	557.075	24.88501
-37.9779	563.1745	24.9045
-37.9761	563.872	24.9241
-37.9736	559.036	24.9436
-37.9724	559.496	24.9631
-37.9714	565.138	24.9827
-37.96957	559.908	25.0022
-37.96822	560.096	25.0217
-37.9659	562.702	25.04126
-37.9645	562.6026	25.0608
-37.9625	556.298	25.0803
-37.9605	563.61	25.0999
-37.9592	562.899	25.1194
-37.9578	560.217	25.1389
-37.9569	559.296	25.1584
-37.9546	562.87	25.178
-37.9542	556.57	25.19751
-37.9526	561.821	25.217
-37.9503	565.294	25.2366
-37.9485	559.7464	25.2561
-37.9464	557.4035	25.2756
-37.9446	565.216	25.2952
-37.9431	558.936	25.3147
-37.9412	557.092	25.3342
-37.9402	563.6	25.35376
-37.9385	559.6	25.3733
-37.9376	553.556	25.3928
-37.9353	561.974	25.4124
-37.93412	560.338	25.4319
-37.933	556.689	25.4514
-37.93	563.153	25.4709
-37.9281	562.499	25.4905
-37.9279	556.264	25.51001
-37.9248	558.592	25.5295
-37.9223	564.862	25.5491
-37.9225	557.61	25.5686
-37.9205	558.745	25.5881
-37.9186	560.454	25.6077
-37.9182	560.049	25.6272
-37.9152	556.932	25.6467
-37.9142	562.93	25.66626
-37.9124	558.679	25.6858
-37.9106	557.247	25.7053
-37.9098	559.056	25.7249
-37.90826	563.93	25.7444
-37.9054	552.579	25.7639
-37.9042	559.1145	25.7834
-37.9022	562.627	25.803
-37.9002	557.011	25.82251
-37.8984	555.079	25.842
-37.8971	563.0069	25.8616
-37.8961	556.033	25.8811
-37.8948	557.574	25.9006
-37.8921	562.444	25.9202
-37.8911	556.61	25.9397
-37.88876	552.065	25.9592
-37.8889	562.553	25.97876
-37.8866	557.772	25.9983
-37.8837	554.31	26.0178
-37.8844	561.002	26.0374
-37.8816	557.754	26.0569
-37.8804	554.322	26.0764
-37.8782	560.668	26.0959
-37.87656	560.228	26.1155
-37.8753	553.82	26.13501
-37.8733	559.864	26.1545
-37.8709	561.13	26.1741
-37.8696	556.512	26.1936
-37.8682	556.768	26.2131
-37.865	562.124	26.2327
-37.8661	557.818	26.2522
-37.8635	557.165	26.2717
-37.8617	558.3327	26.29126
-37.8604	558.983	26.3108
-37.8592	554.57	26.3303
-37.8562	560.796	26.3499
-37.856	560.223	26.3694
-37.8542	555.132	26.3889
-37.8518	555.635	26.4084
-37.8509	561.5351	26.428
-37.8483	553.579	26.44751
-37.8468	556.24	26.467
-37.8455	559.631	26.4866
-37.8438	555.352	26.5061
-37.84322	554.19	26.5256
-37.84	560.886	26.5452
-37.8399	554.275	26.5647
-37.8384	553.789	26.5842
-37.8359	560.961	26.60376
-37.8346	555.239	26.6233
-37.833	551.318	26.6428
-37.8307	558.844	26.6624
-37.8284	558.916	26.6819
-37.8289	553.31	26.7014
-37.82663	558.7666	26.7209
-37.8247	556.962	26.7405
-37.8235	554.977	26.76001
-37.8206	556.763	26.7795
-37.82	560.724	26.7991
-37.8178	553.087	26.8186
-37.8174	555.836	26.8381
-37.8148	557.743	26.8577
-37.8131	556.7467	26.8772
-37.8114	552.826	26.8967
-37.80909	560.172	26.91626
-37.8087	556.101	26.9358
-37.8068	554.859	26.9553
-37.805	554.443	26.9749
-37.8028	558.417	26.9944
-37.8017	551.985	27.0139
-37.7992	557.876	27.0334
-37.7984	559.312	27.053
-37.7955	552.317	27.07251
-37.7962	552.593	27.092
-37.7927	560.829	27.1116
-37.7928	554.308	27.1311
-37.7899	552.7019	27.1506
-37.7891	561.109	27.1702
-37.7878	553.583	27.1897
-37.7851	553.606	27.2092
-37.7841	558.735	27.22876
-37.7828	555.195	27.2483
-37.7806	551.36	27.2678
-37.77824	560.083	27.2874
-37.7777	555.585	27.3069
-37.7762	552.278	27.3264
-37.7744	557.34	27.3459
-37.7721	558.069	27.3655
-37.7708	552.391	27.38501
-37.7693	556.466	27.4045
-37.7685	556.762	27.4241
-37.767	554.16	27.4436
-37.7633	552.62	27.4631
-37.7631	559.399	27.4827
-37.7606	554.0155	27.5022
-37.7597	552.932	27.5217
-37.75787	556.138	27.54126
-37.7562	557.571	27.5608
-37.7542	549.485	27.5803
-37.7533	557.651	27.5999
-37.7505	556.14	27.6194
-37.7495	552.471	27.6389
-37.7497	552.84	27.6584
-37.7464	557.138	27.678
-37.74398	551.18	27.69751
-37.7438	554.385	27.717
-37.7428	558.146	27.7366
-37.7413	551.6167	27.7561
-37.7392	552.021	27.7756
-37.7356	557.687	27.7952
-37.735	554.712	27.8147
-37.7328	552.763	27.8342
-37.7325	558.482	27.85376
-37.731	552.751	27.8733
-37.7281	552.2196	27.8928
-37.7259	556.934	27.9124
-37.72567	557.201	27.9319
-37.7244	549.932	27.9514
-37.72179	555.971	27.9709
-37.72171	554.572	27.9905
-37.7189	553.12	28.01001
-37.717	552.715	28.0295
-37.7161	558.343	28.0491
-37.7139	553.43	28.0686
-37.7131	553.495	28.0881
-37.71	554.2132	28.1077
-37.7089	555.035	28.1272
-37.7065	550.966	28.1467
-37.7048	558.503	28.16626
-37.7033	554.074	28.1858
-37.7017	550.585	28.2053
-37.7005	555.375	28.2249
-37.6994	557.741	28.2444
-37.6973	550.458	28.2639
-37.696	554.14	28.2834
-37.6954	555.7041	28.303
-37.6919	550.493	28.32251
-37.6918	550.531	28.342
-37.6893	555.778	28.3616
-37.6877	550.709	28.3811
-37.6859	552.128	28.4006
-37.6828	557.748	28.4202
-37.6836	551.104	28.4397
-37.6818	551.216	28.4592
-37.6799	555.536	28.47876
-37.6773	555.1	28.4983
-37.6758	550.38	28.5178
-37.6758	557.7113	28.5374
-37.6736	552.0946	28.5569
-37.6713	551.709	28.5764
-37.6702	553.545	28.5959
-37.6675	556.785	28.6155
-37.6662	550.627	28.63501
-37.6646	553.839	28.6545
-37.6627	554.65	28.6741
-37.6617	553.2298	28.6936
-37.66048	551.414	28.7131
-37.6578	557.881	28.7327
-37.65675	552.694	28.7522
-37.6551	551.853	28.7717
-37.6534	551.913	28.79126
-37.6518	553.51	28.8108
-37.6507	549.2666	28.8303
-37.64838	555.367	28.8499
-37.6478	555.457	28.8694
-37.6459	547.562	28.8889
-37.6437	552.519	28.9084
-37.6427	555.559	28.928
-37.6414	549.2627	28.94751
-37.6386	550.967	28.967
-37.637	556.249	28.9866
-37.6359	549.013	29.0061
-37.634	550.837	29.0256
-37.6323	556.575	29.0452
-37.6317	551.385	29.0647
-37.6292	550.448	29.0842
-37.6272	557.4024	29.10376
-37.6261	549.709	29.1233
-37.6236	550.025	29.1428
-37.6235	554.244	29.1624
-37.6195	555.124	29.1819
-37.61908	550.326	29.2014
-37.6173	554.477	29.2209
-37.6165	551.095	29.2405
-37.6148	550.504	29.26001
-37.6135	551.853	29.2795
-37.6103	554.992	29.2991
-37.6091	551.308	29.3186
-37.6085	551.621	29.3381
-37.6069	554.062	29.3577
-37.6045	553.2019	29.3772
-37.604	547.815	29.3967
-37.6014	555.645	29.41626
-37.6004	554.239	29.4358
-37.5999	548.482	29.4553
-37.5952	551.9541	29.4749
-37.5947	553.48	29.4944
-37.59185	548.651	29.5139
-37.591	552.629	29.5334
-37.5908	557.361	29.553
-37.5888	546.469	29.57251
-37.5867	551.255	29.592
-37.5853	556.008	29.6116
-37.584	550.34	29.6311
-37.58279	549.428	29.6506
-37.5798	555.086	29.6702
-37.57943	548.509	29.6897
-37.5787	549.582	29.7092
-37.5765	553.696	29.72876
-37.5746	551.879	29.7483
-37.5727	548.004	29.7678
-37.5704	554.7934	29.7874
-37.5695	549.7063	29.8069
-37.567	548.148	29.8264
-37.56588	550.002	29.8459
-37.5638	554.169	29.8655
-37.562	549.3667	29.88501
-37.5614	552.127	29.9045
-37.5595	550.362	29.9241
-37.55817	549.269	29.9436
-37.55621	549.756	29.9631
-37.5549	554.261	29.9827
-37.5527	549.971	30.0022
-37.5515	546.709	30.0217
-37.5498	551.255	30.04126
-37.5488	552.144	30.0608
-37.5455	546.717	30.0803
-37.5439	551.671	30.0999
-37.5426	554.477	30.1194
-37.5406	547.204	30.1389
-37.5408	550.476	30.1584
-37.5378	552.515	30.178
-37.5357	547.702	30.19751
-37.5345	551.1709	30.217
-37.5327	554.729	30.2366
-37.5318	545.591	30.2561
-37.52956	548.233	30.2756
-37.5288	552.22	30.2952
-37.5274	550.759	30.3147
-37.5256	547.337	30.3342
-37.5239	554.651	30.35376
-37.52306	549.26	30.3733
-37.5209	548.902	30.3928
-37.5184	551.642	30.4124
-37.5162	551.951	30.4319
-37.5148	545.913	30.4514
-37.5135	552.698	30.4709
-37.5124	550.2962	30.4905
-37.5103	547.312	30.51001
-37.50906	548.096	30.5295
-37.5072	552.815	30.5491
-37.505	548.268	30.5686
-37.5042	548.559	30.5881
-37.502	549.984	30.6077
-37.5002	550.6864	30.6272
-37.4997	548.044	30.6467
-37.497	552.708	30.66626
-37.4962	551.682	30.6858
-37.4934	545.725	30.7053
-37.4932	550.861	30.7249
-37.4915	551.245	30.7444
-37.4888	546.817	30.7639
-37.4876	549.596	30.7834
-37.4867	553.438	30.803
-37.4832	545.182	30.82251
-37.4833	549.083	30.842
-37.48119	552.056	30.8616
-37.4789	545.95	30.8811
-37.4784	548.751	30.9006
-37.4765	554.446	30.9202
-37.4739	545.972	30.9397
-37.474	547.997	30.9592
-37.4711	551.474	30.97876
-37.4691	549.772	30.9983
-37.4678	546.737	31.0178
-37.4664	552.3429	31.0374
-37.4654	547.098	31.0569
-37.4641	547.431	31.0764
-37.4617	549.857	31.0959
-37.4593	551.357	31.1155
-37.4588	547.19	31.13501
-37.4573	549.725	31.1545
-37.4552	551.364	31.1741
-37.4533	548.167	31.1936
-37.4522	547.236	31.2131
-37.4503	550.255	31.2327
-37.4485	550.507	31.2522
-37.4473	547.813	31.2717
-37.4463	550.965	31.29126
-37.4438	549.334	31.3108
-37.4423	546.558	31.3303
-37.441	552.01	31.3499
-37.4374	552.166	31.3694
-37.4377	543.088	31.3889
-37.4353	550.3963	31.4084
-37.4322	550.354	31.428
-37.4325	546.608	31.44751
-37.4303	548.802	31.467
-37.42889	553.293	31.4866
-37.4268	544.198	31.5061
-37.42527	549.48	31.5256
-37.4239	550.907	31.5452
-37.4232	548.287	31.5647
-37.42165	547.458	31.5842
-37.4189	553.166	31.60376
-37.4177	546.147	31.6233
-37.4162	546.404	31.6428
-37.4143	551.701	31.6624
-37.413	551.7973	31.6819
-37.4112	545.451	31.7014
-37.4095	550.278	31.7209
-37.4087	548.636	31.7405
-37.40519	548.036	31.76001
-37.4048	548.959	31.7795
-37.4028	552.078	31.7991
-37.4005	546.245	31.8186
-37.4002	545.275	31.8381
-37.3977	550.832	31.8577
-37.3966	549.418	31.8772
-37.3944	544.413	31.8967
-37.3937	549.703	31.91626
-37.3926	549.486	31.9358
-37.3909	544.339	31.9553
-37.3889	549.726	31.9749
-37.3873	548.242	31.9944
-37.3869	545.279	32.0139
-37.3826	549.425	32.0334
-37.3827	551.226	32.053
-37.3799	541.829	32.07251
-37.3789	548.516	32.092
-37.3762	551.453	32.1116
-37.3756	546.847	32.1311
-37.3747	545.766	32.1506
-37.3722	551.123	32.1702
-37.3693	544.636	32.1897
-37.3688	548.379	32.2092
-37.3678	551.52	32.22876
-37.366	549.205	32.2483
-37.36377	545.12	32.2678
-37.3624	549.933	32.2874
-37.3597	545.619	32.3069
-37.3592	544.7757	32.3264
-37.3573	547.3609	32.3459
-37.3557	550.028	32.3655
-37.35479	546.355	32.38501
-37.3533	547.727	32.4045
-37.3524	548.359	32.4241
-37.3487	545.3045	32.4436
-37.348	545.963	32.4631
-37.3464	550.559	32.4827
-37.3444	546.299	32.5022
-37.3427	544.33	32.5217
-37.34021	551.169	32.54126
-37.3397	546.731	32.5608
-37.3366	543.052	32.5803
-37.3357	548.185	32.5999
-37.3354	548.9303	32.6194
-37.3325	541.001	32.6389
-37.3307	549.3407	32.6584
-37.3299	547.375	32.678
-37.3281	545.6795	32.69751
-37.3274	546.862	32.717
-37.3254	553.835	32.7366
-37.3234	541.642	32.7561
-37.3217	547.216	32.7756
-37.3193	548.738	32.7952
-37.31884	546.026	32.8147
-37.3165	544.992	32.8342
-37.3143	549.994	32.85376
-37.3136	545.248	32.8733
-37.3125	545.498	32.8928
-37.3102	547.831	32.9124
-37.3082	546.822	32.9319
-37.3072	544.008	32.9514
-37.305	547.886	32.9709
-37.3031	546.9516	32.9905
-37.3018	543.9552	33.01001
-37.3007	544.687	33.0295
-37.2985	548.491	33.0491
-37.29776	546.089	33.0686
-37.2955	544.742	33.0881
-37.293	548.624	33.1077
-37.2923	544.085	33.1272
-37.2906	544.528	33.1467
-37.2895	547.381	33.16626
-37.2877	545.667	33.1858
-37.28516	541.303	33.2053
-37.2835	547.387	33.2249
-37.2832	547.57	33.2444
-37.2805	542.7337	33.2639
-37.2801	546.938	33.2834
-37.2776	548.033	33.303
-37.2765	540.073	33.32251
-37.2743	547.953	33.342
-37.2725	547.3689	33.3616
-37.2712	544.8681	33.3811
-37.2689	545.722	33.4006
-37.2689	551.475	33.4202
-37.2664	541.847	33.4397
-37.2655	543.726	33.4592
-37.2632	547.336	33.47876
-37.2613	546.277	33.4983
-37.2594	541.5777	33.5178
-37.2579	548.69	33.5374
-37.2564	544.469	33.5569
-37.2544	543.716	33.5764
-37.253	547.231	33.5959
-37.2513	546.679	33.6155
-37.2502	542.373	33.63501
-37.24828	542.812	33.6545
-37.2465	546.272	33.6741
-37.2455	543.337	33.6936
-37.2431	543.288	33.7131
-37.2421	547.137	33.7327
-37.2405	546.284	33.7522
-37.2396	542.108	33.7717
-37.2365	548.221	33.79126
-37.2347	545.113	33.8108
-37.2334	543.088	33.8303
-37.232	547.342	33.8499
-37.2307	547.383	33.8694
-37.2286	537.683	33.8889
-37.2278	547.7998	33.9084
-37.226	547.602	33.928
-37.223	543.015	33.94751
-37.22271	545.65	33.967
-37.2196	547.8	33.9866
-37.2198	540.208	34.0061
-37.21735	544.726	34.0256
-37.2147	548.044	34.0452
-37.215	542.366	34.0647
-37.2132	541.971	34.0842
-37.2103	549.205	34.10376
-37.2092	543.012	34.1233
-37.2083	542.462	34.1428
-37.2067	546.34	34.1624
-37.2045	545.322	34.1819
-37.2034	541.805	34.2014
-37.20142	544.451	34.2209
-37.1996	546.112	34.2405
-37.1982	540.257	34.26001
-37.1973	543.864	34.2795
-37.195	545.699	34.2991
-37.1933	544.417	34.3186
-37.19141	540.802	34.3381
-37.19001	547.755	34.3577
-37.1873	544.376	34.3772
-37.1859	541.9408	34.3967
-37.1842	546.254	34.41626
-37.1835	544.726	34.4358
-37.1815	539.919	34.4553
-37.1805	545.848	34.4749
-37.1775	543.155	34.4944
-37.1765	540.462	34.5139
-37.17551	545.137	34.5334
-37.1738	547.598	34.553
-37.1725	537.4035	34.57251
-37.1701	543.417	34.592
-37.168	544.474	34.6116
-37.167	541.648	34.6311
-37.1665	541.852	34.6506
-37.1643	546.96	34.6702
-37.1631	540.057	34.6897
-37.1603	541.938	34.7092
-37.15884	546.127	34.72876
-37.15873	542.475	34.7483
-37.1556	541.057	34.7678
-37.1539	545.499	34.7874
-37.1522	544.397	34.8069
-37.15	541.451	34.8264
-37.1486	545.063	34.8459
-37.1466	545.47	34.8655
-37.1462	542.995	34.88501
-37.1434	541.78	34.9045
-37.1425	546.411	34.9241
-37.1413	540.551	34.9436
-37.1397	543.118	34.9631
-37.1388	547.393	34.9827
-37.1361	542.48	35.0022
-37.1357	539.444	35.0217
-37.1334	547.923	35.04126
-37.13113	542.987	35.0608
-37.1291	540.7196	35.0803
-37.1277	544.07	35.0999
-37.1265	547.0152	35.1194
-37.1245	538.404	35.1389
-37.1227	546.649	35.1584
-37.1215	545.566	35.178
-37.11927	539.415	35.19751
-37.1179	541.518	35.217
-37.1159	546.247	35.2366
-37.11483	537.57	35.2561
-37.1131	541.855	35.2756
-37.11076	545.52	35.2952
-37.1102	540.065	35.3147
-37.1091	540.657	35.3342
-37.1067	544.342	35.35376
-37.1046	539.699	35.3733
-37.1037	539.0835	35.3928
-37.1018	545.408	35.4124
-37.0997	544.18	35.4319
-37.0975	539.405	35.4514
-37.0976	540.919	35.4709
-37.0957	543.693	35.4905
-37.0944	539.216	35.51001
-37.0933	542.507	35.5295
-37.0904	544.557	35.5491
-37.0887	542.531	35.5686
-37.0879	539.262	35.5881
-37.0864	547.413	35.6077
-37.0837	540.594	35.6272
-37.0833	539.5993	35.6467
-37.0811	545.561	35.66626
-37.0797	544.372	35.6858
-37.0769	536.199	35.7053
-37.0768	544.843	35.7249
-37.0741	543.5993	35.7444
-37.0728	539.089	35.7639
-37.0716	543.89	35.7834
-37.0693	545.414	35.803
-37.0693	535.543	35.82251
-37.0662	544.118	35.842
-37.06509	543.851	35.8616
-37.0615	540.8255	35.8811
-37.0619	540.454	35.9006
-37.0597	545.538	35.9202
-37.05714	540.021	35.9397
-37.0563	540.4118	35.9592
-37.0551	544.384	35.97876
-37.0522	540.616	35.9983
-37.052	538.963	36.0178
-37.0497	541.992	36.0374
-37.0482	541.397	36.0569
-37.0464	538.947	36.0764
-37.0448	542.548	36.0959
-37.0434	543.452	36.1155
-37.0409	540.453	36.13501
-37.0408	538.6651	36.1545
-37.039	543.727	36.1741
-37.0365	537.5	36.1936
-37.0354	539.998	36.2131
-37.034	543.056	36.2327
-37.0318	540.341	36.2522
-37.0306	535.825	36.2717
-37.02869	544.523	36.29126
-37.0273	541.315	36.3108
-37.0261	538.514	36.3303
-37.024	543.201	36.3499
-37.021	543.299	36.3694
-37.0201	534.24	36.3889
-37.0187	542.662	36.4084
-37.0184	542.586	36.428
-37.01561	538.331	36.44751
-37.0135	541.109	36.467
-37.0131	544.341	36.4866
-37.01062	535.666	36.5061
-37.0088	539.86	36.5256
-37.0083	543.817	36.5452
-37.00584	538.152	36.5647
-37.0045	538.021	36.5842
-37.0023	541.7735	36.60376
-37.0011	539.616	36.6233
-36.9991	538.363	36.6428
-36.9976	541.595	36.6624
-36.9959	540.623	36.6819
-36.9953	537.942	36.7014
-36.9922	539.463	36.7209
-36.9913	541.4342	36.7405
-36.9899	536.339	36.76001
-36.988	540.874	36.7795
-36.9867	542.512	36.7991
-36.9849	538.886	36.8186
-36.984	535.439	36.8381
-36.98106	544.447	36.8577
-36.98037	537.382	36.8772
-36.9777	538.767	36.8967
-36.9765	541.358	36.91626
-36.9742	539.918	36.9358
-36.974	532.988	36.9553
-36.97073	542.693	36.9749
-36.9708	541.691	36.9944
-36.9682	536.1261	37.0139
-36.9669	541.501	37.0334
-36.9655	543.1217	37.053
-36.9637	533.551	37.07251
-36.9624	540.161	37.092
-36.9601	542.488	37.1116
-36.959	536.066	37.1311
-36.9569	537.947	37.1506
-36.9562	542.229	37.1702
-36.9534	535.422	37.1897
-36.95332	537.478	37.2092
-36.9506	542.935	37.22876
-36.9498	538.14	37.2483
-36.9471	536.665	37.2678
-36.945	539.718	37.2874
-36.9433	540.691	37.3069
-36.9421	535.709	37.3264
-36.9412	538.212	37.3459
-36.9392	541.405	37.3655
-36.9385	535.911	37.38501
-36.9365	537.672	37.4045
-36.935	543.932	37.4241
-36.933	534.531	37.4436
-36.9309	537.301	37.4631
-36.929	541.752	37.4827
-36.9278	538.133	37.5022
-36.9259	533.005	37.5217
-36.9249	543.291	37.54126
-36.9245	537.592	37.5608
-36.9202	536.688	37.5803
-36.9198	541.075	37.5999
-36.9181	538.766	37.6194
-36.9165	531.179	37.6389
-36.9151	540.012	37.6584
-36.9135	538.892	37.678
-36.9109	533.66	37.69751
-36.90955	536.195	37.717
-36.9074	542.156	37.7366
-36.9073	535.288	37.7561
-36.90517	535.368	37.7756
-36.904	538.611	37.7952
-36.9019	535.0813	37.8147
-36.8994	536.647	37.8342
-36.8985	538.333	37.85376
-36.8965	535.9754	37.8733
-36.8957	532.74	37.8928
-36.8941	538.188	37.9124
-36.8913	538.117	37.9319
-36.8907	535.645	37.9514
-36.88895	533.996	37.9709
-36.8872	540.506	37.9905
-36.8843	531.705	38.01001
-36.884	536.454	38.0295
-36.8822	538.995	38.0491
-36.8811	536.1167	38.0686
-36.8789	532.975	38.0881
-36.8778	541.13	38.1077
-36.8759	533.857	38.1272
-36.8738	534.237	38.1467
-36.8726	538.992	38.16626
-36.871	537.575	38.1858
-36.8701	529.019	38.2053
-36.8684	538.206	38.2249
-36.8665	534.87	38.2444
-36.8648	532.344	38.2639
-36.8628	535.966	38.2834
-36.8606	537.483	38.303
-36.8593	528.891	38.32251
-36.8574	536.042	38.342
-36.8564	537.081	38.3616
-36.8535	529.449	38.3811
-36.8534	532.635	38.4006
-36.8511	536.556	38.4202
-36.8495	533.037	38.4397
-36.848	531.407	38.4592
-36.84713	534.995	38.47876
-36.8444	532.631	38.4983
-36.8436	531.32	38.5178
-36.8418	534.268	38.5374
-36.839	533.397	38.5569
-36.8383	527.586	38.5764
-36.8366	532.737	38.5959
-36.8355	532.7041	38.6155
-36.8339	527.062	38.63501
-36.8316	525.608	38.6545
-36.8305	532.83	38.6741
-36.8277	525.739	38.6936
-36.8265	527.099	38.7131
-36.8255	530.5	38.7327
-36.8233	527.923	38.7522
-36.8225	519.198	38.7717
-36.8213	526.161	38.79126
-36.8192	515.055	38.8108
-36.8138	-12.2233	38.8303
-36.8123	-58.0058	38.8499
-36.8128	-35.0378	38.8694
-36.8121	-46.9818	38.8889
-36.8101	-37.8903	38.9084
-36.80772	-39.1299	38.928
-36.8065	-43.0944	38.94751
-36.8047	-40.227	38.967
-36.8031	-39.2045	38.9866
-36.8014	-45.3515	39.0061
-36.8006	-43.0312	39.0256
-36.7995	-35.5393	39.0452
-36.7971	-42.6633	39.0647
-36.7953	-42.8488	39.0842
-36.7937	-41.4859	39.10376
-36.7922	-41.2867	39.1233
-36.7903	-43.4726	39.1428
-36.7895	-39.1453	39.1624
-36.7875	-41.2199	39.1819
-36.7857	-43.02668	39.2014
-36.7844	-42.2099	39.2209
-36.7839	-36.7892	39.2405
-36.7817	-44.0475	39.26001
-36.7798	-40.7884	39.2795
-36.778	-37.5047	39.2991
-36.777	-41.8014	39.3186
-36.775	-46.00795	39.3381
-36.77282	-34.8615	39.3577
-36.7715	-42.9589	39.3772
-36.7694	-42.3533	39.3967
-36.7676	-38.0605	39.41626
-36.7662	-40.5364	39.4358
-36.7649	-45.4556	39.4553
-36.7625	-35.761	39.4749
-36.7627	-38.806	39.4944
-36.7602	-45.5955	39.5139
-36.7594	-38.6963	39.5334
-36.7557	-39.303	39.553
-36.7544	-45.3741	39.57251
-36.7537	-40.7763	39.592
-36.7517	-38.211	39.6116
-36.7509	-44.2451	39.6311
-36.7489	-40.95612	39.6506
-36.7477	-37.7633	39.6702
-36.7461	-43.2921	39.6897
-36.7442	-42.8223	39.7092
-36.7419	-38.0518	39.72876
-36.7403	-39.7814	39.7483
-36.738	-42.8966	39.7678
-36.7369	-42.07275	39.7874
-36.7352	-39.0882	39.8069
-36.7333	-44.7421	39.8264
-36.7327	-39.0522	39.8459
-36.7315	-36.764	39.8655
-36.7291	-43.1175	39.88501
-36.7268	-43.6595	39.9045
-36.7262	-35.9006	39.9241
-36.7246	-44.9348	39.9436
-36.7221	-42.1302	39.9631
-36.7207	-38.38858	39.9827
-36.7193	-39.7442	40.0022
-36.71833	-43.9332	40.012

Data Header:			0.254_solid_uprint_typeiv_4545_r0			Time:	40.792	s	4/13/2019 6:54:19 PM
Data Acquisition:	Timed
Station Name:	ft40.cfg
Test File Name:	Type IV_Monotonic.tst
Displacement	Force	Running Time
mm	N	s
-36.7179	-46.6049	40.0217
-36.71698	-40.9946	40.0315
-36.7171	-38.0444	40.04126
-36.7148	-35.32	40.051
-36.7139	-41.362	40.0608
-36.7137	-47.7537	40.0706
-36.7122	-42.5904	40.0803
-36.7113	-40.5561	40.0901
-36.7112	-37.67514	40.0999
-36.7092	-37.99416	40.1096
-36.7098	-41.0922	40.1194
-36.7084	-41.1395	40.12915
-36.7077	-47.2233	40.1389
-36.7082	-42.2926	40.1487
-36.7064	-38.9578	40.1584
-36.7057	-37.0021	40.1682
-36.70417	-38.5924	40.178
-36.7028	-44.22324	40.1877
-36.7038	-45.3588	40.19751
-36.7024	-42.4955	40.2073
-36.7023	-39.4905	40.217
-36.7008	-38.707	40.2268
-36.6998	-39.5296	40.2366
-36.6994	-41.1142	40.2463
-36.6989	-43.9471	40.2561
-36.6982	-43.6723	40.2659
-36.6966	-42.6508	40.2756
-36.6955	-38.471	40.2854
-36.6949	-37.61726	40.2952
-36.6948	-41.0195	40.3049
-36.6936	-42.669	40.3147
-36.6918	-42.4928	40.3245
-36.6911	-41.8401	40.3342
-36.6908	-42.089	40.344
-36.6901	-40.7295	40.35376
-36.6886	-37.2759	40.3635
-36.6875	-39.2796	40.3733
-36.687	-41.8053	40.3831
-36.68623	-43.7524	40.3928
-36.686	-42.23069	40.4026
-36.6858	-37.3885	40.4124
-36.6838	-39.7934	40.4221
-36.6839	-39.3655	40.4319
-36.68277	-42.3614	40.44165
-36.6814	-43.6747	40.4514
-36.681	-43.1946	40.4612
-36.6814	-42.7912	40.4709
-36.6793	-38.65551	40.4807
-36.6786	-37.2319	40.4905
-36.6769	-40.32655	40.5002
-36.676	-43.4554	40.51001
-36.6763	-45.8433	40.5198
-36.6747	-39.2887	40.5295
-36.6744	-39.0881	40.5393
-36.674	-37.8375	40.5491
-36.6738	-38.8788	40.5588
-36.672	-42.40683	40.5686
-36.6712	-42.9841	40.5784
-36.6705	-46.4519	40.5881
-36.6698	-42.02742	40.5979
-36.6675	-36.2204	40.6077
-36.6677	-38.1034	40.6174
-36.6673	-43.2535	40.6272
-36.6673	-46.112	40.637
-36.6664	-42.3084	40.6467
-36.6656	-40.4971	40.6565
-36.66423	-37.9049	40.66626
-36.6645	-37.761	40.676
-36.6629	-39.59082	40.6858
-36.66106	-45.0196	40.6956
-36.6615	-45.4109	40.7053
-36.66	-42.2763	40.7151
-36.6603	-38.4274	40.7249
-36.6592	-36.57	40.7346
-36.6569	-39.6757	40.7444
-36.65683	-44.2096	40.75415
-36.6562	-43.5758	40.7639
-36.6548	-43.116	40.7737
-36.6543	-37.90966	40.7834