File: data/processed_data_files/tensile/0.254_hd_uprint_typeiv_4545_r(8).dat
MTS793|BTW|ENU|1|2|.|/|:|1|0|0|A

Data Header:			0.254_hd_uprint_typeiv_4545_r0			Time:	20.0176	s	4/13/2019 7:50:51 PM
Data Acquisition:	Timed
Station Name:	ft40.cfg
Test File Name:	monotonic_0.2540_typeiv_hd_4545_uprint.tst
Displacement	Force	Running Time
mm	N	s
-40.0344	-277.482	0.0227051
-40.0342	-279.575	0.0422363
-40.0349	-280.663	0.0617676
-40.0351	-279.468	0.0812988
-40.034	-276.8	0.10083
-40.0326	-282.463	0.120361
-40.0308	-277.536	0.139893
-40.0274	-274.272	0.159424
-40.0273	-276.07	0.178955
-40.0257	-276.574	0.198486
-40.0225	-270.3	0.218018
-40.0223	-274.429	0.237549
-40.0204	-274.397	0.25708
-40.0188	-269.729	0.276611
-40.01757	-267.2	0.296143
-40.0144	-270.614	0.315674
-40.0141	-270.086	0.335205
-40.0124	-266.561	0.354736
-40.012	-268.531	0.374268
-40.0098	-266.227	0.393799
-40.0085	-263.616	0.41333
-40.0072	-265.781	0.432861
-40.0048	-266.774	0.452393
-40.00346	-258.825	0.471924
-40.0013	-263.518	0.491455
-39.9999	-263.796	0.510986
-39.9981	-255.81	0.530518
-39.9969	-257.506	0.550049
-39.9937	-262.1	0.56958
-39.9927	-253.765	0.589111
-39.9919	-254.034	0.608643
-39.9906	-256.854	0.628174
-39.9888	-251.2	0.647705
-39.9865	-248.665	0.667236
-39.9867	-257.1181	0.686768
-39.98362	-250.666	0.706299
-39.9816	-247.669	0.72583
-39.9804	-250.706	0.745361
-39.9784	-249.623	0.764893
-39.9771	-244.558	0.784424
-39.9756	-249.765	0.803955
-39.9729	-247.8	0.823486
-39.9719	-244.145	0.843018
-39.9702	-244.626	0.862549
-39.9691	-244.394	0.88208
-39.9672	-239.652	0.901611
-39.9662	-240.675	0.921143
-39.9644	-244.291	0.940674
-39.962	-240.343	0.960205
-39.9609	-235.714	0.979736
-39.9596	-238.552	0.999268
-39.9572	-239.054	1.0188
-39.9547	-234.164	1.03833
-39.9551	-236.74	1.05786
-39.9522	-235.324	1.07739
-39.9519	-229.453	1.09692
-39.9496	-231.122	1.11646
-39.9485	-236.018	1.13599
-39.9453	-226.76	1.15552
-39.945	-228.3168	1.17505
-39.9428	-231.236	1.19458
-39.9415	-224.547	1.21411
-39.93951	-221.106	1.23364
-39.9387	-232.197	1.25317
-39.9359	-223.559	1.27271
-39.9352	-223.136	1.29224
-39.93232	-226.076	1.31177
-39.931	-220.622	1.3313
-39.92984	-215.271	1.35083
-39.9275	-224.858	1.37036
-39.92577	-219.485	1.38989
-39.9243	-214.216	1.40942
-39.9228	-217.339	1.42896
-39.9222	-217.0473	1.44849
-39.9202	-213.547	1.46802
-39.9192	-214.897	1.48755
-39.9166	-215.611	1.50708
-39.9141	-209.787	1.52661
-39.9132	-210.775	1.54614
-39.9128	-212.135	1.56567
-39.9103	-208.715	1.58521
-39.9082	-206.088	1.60474
-39.907	-211.915	1.62427
-39.9051	-207.505	1.6438
-39.9039	-202.315	1.66333
-39.90218	-203.896	1.68286
-39.9016	-208.41	1.70239
-39.8994	-199.13	1.72192
-39.8968	-203.661	1.74146
-39.8955	-201.995	1.76099
-39.8936	-195.715	1.78052
-39.89212	-196.677	1.80005
-39.8899	-205.333	1.81958
-39.88995	-193.418	1.83911
-39.8871	-194.317	1.85864
-39.8857	-198.129	1.87817
-39.88427	-193.927	1.89771
-39.8817	-190.144	1.91724
-39.8808	-196.699	1.93677
-39.8777	-191.256	1.9563
-39.8773	-187.881	1.97583
-39.8767	-190.148	1.99536
-39.8751	-190.5415	2.01489
-39.8733	-182.858	2.03442
-39.8716	-189.76	2.05396
-39.8697	-189.227	2.07349
-39.8677	-182.893	2.09302
-39.8659	-183.206	2.11255
-39.8653	-184.905	2.13208
-39.8628	-182.301	2.15161
-39.86174	-178.817	2.17114
-39.8599	-183.032	2.19067
-39.8587	-177.042	2.21021
-39.8559	-176.264	2.22974
-39.856	-178.443	2.24927
-39.8527	-179.1	2.2688
-39.8526	-170.244	2.28833
-39.85107	-176.772	2.30786
-39.848	-175.106	2.32739
-39.8462	-167.609	2.34692
-39.8452	-168.8141	2.36646
-39.8434	-174.634	2.38599
-39.8421	-166.32	2.40552
-39.8399	-169.253	2.42505
-39.8396	-169.329	2.44458
-39.8377	-162.571	2.46411
-39.8367	-162.29	2.48364
-39.8332	-171.006	2.50317
-39.83279	-160.02	2.52271
-39.8305	-158.884	2.54224
-39.8284	-165.48	2.56177
-39.8273	-161.256	2.5813
-39.8254	-157.2072	2.60083
-39.8248	-161.442	2.62036
-39.8219	-159.662	2.63989
-39.8201	-153.695	2.65942
-39.8192	-157.098	2.67896
-39.81781	-156.354	2.69849
-39.8165	-151.422	2.71802
-39.81469	-152.617	2.73755
-39.8132	-155.492	2.75708
-39.812	-148.081	2.77661
-39.8093	-148.049	2.79614
-39.8076	-150.816	2.81567
-39.8062	-149.832	2.83521
-39.80344	-143.664	2.85474
-39.8029	-149.866	2.87427
-39.8009	-145.091	2.8938
-39.8003	-139.347	2.91333
-39.798	-145.843	2.93286
-39.79697	-147.187	2.95239
-39.7944	-135.4729	2.97192
-39.7925	-141.992	2.99146
-39.7913	-142.262	3.01099
-39.7891	-136.626	3.03052
-39.7886	-135.297	3.05005
-39.7851	-143.128	3.06958
-39.78529	-134.348	3.08911
-39.7833	-134.133	3.10864
-39.78117	-138.562	3.12817
-39.7801	-131.279	3.14771
-39.7787	-129.503	3.16724
-39.777	-137.31	3.18677
-39.7749	-130.838	3.2063
-39.7734	-126.286	3.22583
-39.77187	-131.272	3.24536
-39.7712	-129.22	3.26489
-39.769	-123.678	3.28442
-39.7669	-126.313	3.30396
-39.7657	-126.348	3.32349
-39.7636	-121.902	3.34302
-39.7617	-123.911	3.36255
-39.7607	-124.674	3.38208
-39.7574	-119.591	3.40161
-39.7573	-116.356	3.42114
-39.7555	-124.158	3.44067
-39.7542	-117.528	3.46021
-39.7527	-112.932	3.47974
-39.75182	-117.867	3.49927
-39.75	-120.851	3.5188
-39.748	-109.409	3.53833
-39.745	-116.288	3.55786
-39.7434	-113.0071	3.57739
-39.7433	-107.332	3.59692
-39.7407	-108.8867	3.61646
-39.7394	-113.587	3.63599
-39.7379	-103.506	3.65552
-39.7358	-105.424	3.67505
-39.7349	-110.197	3.69458
-39.7335	-103.016	3.71411
-39.7314	-103.616	3.73364
-39.7305	-109.135	3.75317
-39.7282	-102.259	3.77271
-39.7271	-102.087	3.79224
-39.7248	-105.553	3.81177
-39.7229	-98.9817	3.8313
-39.7206	-95.5151	3.85083
-39.7198	-101.7994	3.87036
-39.7168	-98.5039	3.88989
-39.7158	-90.9527	3.90942
-39.7147	-96.7634	3.92896
-39.71336	-96.1863	3.94849
-39.7113	-93.6411	3.96802
-39.7093	-91.0655	3.98755
-39.7088	-93.9921	4.00708
-39.7065	-87.1576	4.02661
-39.70499	-87.945	4.04614
-39.70343	-90.1985	4.06567
-39.7024	-89.6483	4.08521
-39.7009	-83.7615	4.10474
-39.6984	-89.76123	4.12427
-39.6964	-86.1341	4.1438
-39.6957	-79.2812	4.16333
-39.6936	-82.4775	4.18286
-39.6938	-87.4427	4.20239
-39.68996	-76.5822	4.22192
-39.6894	-81.8635	4.24146
-39.6882	-80.7097	4.26099
-39.6868	-75.2458	4.28052
-39.6843	-77.6082	4.30005
-39.6822	-82.87545	4.31958
-39.68095	-71.5431	4.33911
-39.6785	-72.5976	4.35864
-39.6785	-78.56134	4.37817
-39.6758	-71.2817	4.39771
-39.6743	-68.775	4.41724
-39.6733	-73.7153	4.43677
-39.672	-70.9444	4.4563
-39.6695	-66.0183	4.47583
-39.6683	-70.83709	4.49536
-39.66637	-66.0419	4.51489
-39.6642	-63.5778	4.53442
-39.6635	-65.8091	4.55396
-39.6607	-66.8819	4.57349
-39.661	-58.02404	4.59302
-39.65773	-61.3814	4.61255
-39.657	-63.2681	4.63208
-39.6545	-61.9327	4.65161
-39.6548	-54.6489	4.67114
-39.6518	-62.0675	4.69067
-39.65078	-54.8619	4.71021
-39.6484	-53.7371	4.72974
-39.6472	-57.0305	4.74927
-39.6447	-57.7258	4.7688
-39.6429	-47.7091	4.78833
-39.6411	-56.3487	4.80786
-39.6393	-53.09	4.82739
-39.6385	-45.4041	4.84692
-39.6372	-49.8537	4.86646
-39.636	-51.96817	4.88599
-39.6331	-43.253	4.90552
-39.6316	-46.0697	4.92505
-39.6307	-47.6085	4.94458
-39.6292	-40.9514	4.96411
-39.62627	-42.2915	4.98364
-39.6257	-48.063	5.00317
-39.6248	-40.0662	5.02271
-39.6227	-36.6912	5.04224
-39.6206	-44.7271	5.06177
-39.6192	-38.6458	5.0813
-39.6173	-35.20657	5.10083
-39.6153	-38.3378	5.12036
-39.6142	-38.7797	5.13989
-39.6141	-31.9983	5.15942
-39.6115	-35.1667	5.17896
-39.6093	-34.9377	5.19849
-39.6075	-32.7413	5.21802
-39.6073	-29.8735	5.23755
-39.6046	-36.0744	5.25708
-39.6039	-27.84137	5.27661
-39.6003	-26.0948	5.29614
-39.6001	-30.1607	5.31567
-39.5984	-29.3669	5.33521
-39.597	-21.2165	5.35474
-39.5955	-27.1234	5.37427
-39.5926	-23.0701	5.3938
-39.5918	-20.1703	5.41333
-39.5899	-24.4382	5.43286
-39.5888	-26.3506	5.45239
-39.5861	-16.1834	5.47192
-39.5857	-18.44915	5.49146
-39.5837	-22.2137	5.51099
-39.5817	-13.3861	5.53052
-39.5803	-16.0336	5.55005
-39.579	-20.8842	5.56958
-39.576	-13.9737	5.58911
-39.575	-12.2928	5.60864
-39.5736	-16.1825	5.62817
-39.5722	-9.97647	5.64771
-39.5707	-10.5437	5.66724
-39.5693	-14.5701	5.68677
-39.5677	-10.3101	5.7063
-39.56543	-4.02957	5.72583
-39.5642	-9.77864	5.74536
-39.5617	-7.71102	5.76489
-39.5599	-6.0964	5.78442
-39.5586	-3.19788	5.80396
-39.557	-7.876791	5.82349
-39.5557	0.834116	5.84302
-39.554	-2.11624	5.86255
-39.552	-2.40064	5.88208
-39.5506	-1.24713	5.90161
-39.5491	4.0025	5.92114
-39.5478	-3.79848	5.94067
-39.5454	3.77965	5.96021
-39.5442	9.16224	5.97974
-39.5429	2.69674	5.99927
-39.5408	1.83798	6.0188
-39.5389	11.2064	6.03833
-39.5373	5.83741	6.05786
-39.5355	7.42131	6.07739
-39.5353	13.3788	6.09692
-39.5319	8.35961	6.11646
-39.5312	6.402544	6.13599
-39.5302	15.3995	6.15552
-39.5278	13.9309	6.17505
-39.5267	8.5363	6.19458
-39.5256	17.1983	6.21411
-39.523	17.743	6.23364
-39.5213	12.7614	6.25317
-39.5189	17.0644	6.27271
-39.5186	20.6523	6.29224
-39.5163	15.79	6.31177
-39.5143	22.9477	6.3313
-39.5125	22.3692	6.35083
-39.5109	22.15663	6.37036
-39.5105	20.3238	6.38989
-39.5092	28.1282	6.40942
-39.50552	25.7137	6.42896
-39.5056	23.8001	6.44849
-39.5036	27.0932	6.46802
-39.5012	32.3497	6.48755
-39.4997	26.5733	6.50708
-39.4986	31.5635	6.52661
-39.4963	32.1082	6.54614
-39.4959	29.5605	6.56567
-39.4937	30.7626	6.58521
-39.4919	38.7642	6.60474
-39.49	30.8377	6.62427
-39.4895	34.9649	6.6438
-39.4868	40.9281	6.66333
-39.4863	34.9528	6.68286
-39.4842	33.785	6.70239
-39.4821	42.4651	6.72192
-39.4808	39.7422	6.74146
-39.4796	37.9228	6.76099
-39.4777	47.7137	6.78052
-39.4759	42.0939	6.80005
-39.4735	39.4986	6.81958
-39.4719	45.8132	6.83911
-39.4711	49.8652	6.85864
-39.4694	42.4687	6.87817
-39.46814	48.86903	6.89771
-39.4666	49.1701	6.91724
-39.4644	47.3629	6.93677
-39.4632	49.1755	6.9563
-39.4607	54.27721	6.97583
-39.4593	50.9269	6.99536
-39.4581	52.7669	7.01489
-39.4573	54.6438	7.03442
-39.4542	53.773	7.05396
-39.4534	51.0941	7.07349
-39.4514	59.7224	7.09302
-39.4496	58.6731	7.11255
-39.4481	56.44659	7.13208
-39.4464	58.1313	7.15161
-39.4445	62.3596	7.17114
-39.4431	57.0012	7.19067
-39.44231	63.7415	7.21021
-39.4401	64.8053	7.22974
-39.439	61.5441	7.24927
-39.4364	61.8988	7.2688
-39.43491	71.3796	7.28833
-39.4325	65.8567	7.30786
-39.4321	63.9804	7.32739
-39.4304	73.4976	7.34692
-39.4282	68.367	7.36646
-39.428	66.6667	7.38599
-39.4261	73.5513	7.40552
-39.4236	72.6506	7.42505
-39.42263	70.1764	7.44458
-39.4199	77.8529	7.46411
-39.4176	75.3919	7.48364
-39.4159	73.5619	7.50317
-39.41666	78.45536	7.52271
-39.41357	82.5041	7.54224
-39.4127	77.0641	7.56177
-39.4097	79.7063	7.5813
-39.40815	82.3417	7.60083
-39.40733	82.7856	7.62036
-39.4056	80.9351	7.63989
-39.4037	87.3496	7.65942
-39.4026	83.5389	7.67896
-39.4	84.2888	7.69849
-39.3989	87.5869	7.71802
-39.3973	89.4015	7.73755
-39.3957	83.3416	7.75708
-39.3941	91.4307	7.77661
-39.3923	91.0827	7.79614
-39.3914	86.6796	7.81567
-39.3903	89.1899	7.83521
-39.388	96.02652	7.85474
-39.3867	91.2511	7.87427
-39.3845	92.797	7.8938
-39.3829	99.4967	7.91333
-39.3827	91.5826	7.93286
-39.3795	95.803	7.95239
-39.3777	102.7086	7.97192
-39.3754	98.6936	7.99146
-39.3746	97.1202	8.01099
-39.3723	105.2379	8.03052
-39.3706	100.072	8.05005
-39.37064	99.81929	8.06958
-39.368	102.6804	8.08911
-39.3666	104.375	8.10864
-39.3652	101.508	8.12817
-39.36314	107.929	8.14771
-39.3613	104.474	8.16724
-39.36097	106.6554	8.18677
-39.3594	107.437	8.2063
-39.3562	115.618	8.22583
-39.3549	110.769	8.24536
-39.3547	109.5927	8.26489
-39.3523	113.289	8.28442
-39.3499	114.992	8.30396
-39.3494	111.0468	8.32349
-39.34753	117.577	8.34302
-39.3467	118.194	8.36255
-39.3439	113.227	8.38208
-39.3427	118.666	8.40161
-39.3402	121.526	8.42114
-39.3382	115.646	8.44067
-39.3371	120.311	8.46021
-39.3358	126.714	8.47974
-39.3348	121.68	8.49927
-39.3326	121.797	8.5188
-39.3309	128.207	8.53833
-39.3296	125.011	8.55786
-39.3285	125.1124	8.57739
-39.327	131.211	8.59692
-39.3238	125.645	8.61646
-39.3227	126.932	8.63599
-39.3207	133.2334	8.65552
-39.3201	132.895	8.67505
-39.3189	129.1478	8.69458
-39.3155	136.513	8.71411
-39.3149	134.01	8.73364
-39.313	133.67	8.75317
-39.3116	133.9361	8.77271
-39.3089	139.982	8.79224
-39.3088	135.869	8.81177
-39.3061	138.3293	8.8313
-39.3043	139.439	8.85083
-39.30162	140.297	8.87036
-39.3014	138.831	8.88989
-39.3005	145.933	8.90942
-39.2983	142.103	8.92896
-39.2964	141.4436	8.94849
-39.29538	144.789	8.96802
-39.2934	147.948	8.98755
-39.2924	143.067	9.00708
-39.2898	148.246	9.02661
-39.2874	150.807	9.04614
-39.2871	144.88	9.06567
-39.2853	150.793	9.08521
-39.2838	154.94	9.10474
-39.2818	147.547	9.12427
-39.2811	150.5296	9.1438
-39.279	157.9333	9.16333
-39.27673	151.3065	9.18286
-39.2755	154.087	9.20239
-39.2744	158.728	9.22192
-39.2724	157.599	9.24146
-39.2718	156.264	9.26099
-39.2685	164.099	9.28052
-39.2681	158.395	9.30005
-39.2657	159.0423	9.31958
-39.26498	163.807	9.33911
-39.2627	165.486	9.35864
-39.2591	161.488	9.37817
-39.2599	165.305	9.39771
-39.2574	166.862	9.41724
-39.25589	164.765	9.43677
-39.2551	166.018	9.4563
-39.2532	171.032	9.47583
-39.251	167.659	9.49536
-39.2494	169.551	9.51489
-39.2495	172.815	9.53442
-39.2467	172.999	9.55396
-39.2443	168.876	9.57349
-39.2441	175.818	9.59302
-39.2402	177.067	9.61255
-39.24	171.418	9.63208
-39.2382	174.5106	9.65161
-39.2368	180.675	9.67114
-39.2342	175.486	9.69067
-39.233	177.884	9.71021
-39.2324	183.117	9.72974
-39.2298	175.998	9.74927
-39.2293	181.865	9.7688
-39.2261	185.939	9.78833
-39.2258	180.238	9.80786
-39.2234	180.717	9.82739
-39.2221	190.3866	9.84692
-39.2205	182.487	9.86646
-39.2184	184.636	9.88599
-39.21619	188.091	9.90552
-39.2159	189.977	9.92505
-39.2144	187.792	9.94458
-39.2126	193.787	9.96411
-39.21133	190.261	9.98364
-39.209	189.725	10.0032
-39.2068	193.331	10.0227
-39.2054	198.756	10.0422
-39.2051	192.612	10.0618
-39.2017	195.97	10.0813
-39.20097	197.337	10.10083
-39.1999	198.106	10.1204
-39.1975	196.57	10.1399
-39.1959	202.251	10.1594
-39.1937	200.731	10.179
-39.1937	198.911	10.1985
-39.191	203	10.218
-39.1894	204.815	10.2375
-39.1879	199.286	10.25708
-39.1853	206.554	10.2766
-39.1832	211.027	10.2961
-39.1827	201.653	10.3157
-39.18132	206.931	10.3352
-39.1806	212.67	10.3547
-39.1781	206.631	10.3743
-39.176	210.17	10.3938
-39.1744	216.769	10.41333
-39.1724	206.092	10.4329
-39.1717	211.8683	10.4524
-39.1703	216.182	10.4719
-39.1683	214.853	10.4915
-39.16703	210.368	10.511
-39.1655	221.472	10.5305
-39.1639	215.482	10.55
-39.1614	215.864	10.56958
-39.16	218.92	10.5891
-39.15892	222.025	10.6086
-39.1574	218.4641	10.6282
-39.1537	222.696	10.6477
-39.1541	222.109	10.6672
-39.1519	219.743	10.6868
-39.15	222.297	10.7063
-39.1492	227.859	10.72583
-39.1474	224.363	10.7454
-39.1466	222.974	10.7649
-39.1448	229.5697	10.7844
-39.1417	228.571	10.804
-39.1405	225.0135	10.8235
-39.1395	230.439	10.843
-39.1371	232.534	10.8625
-39.1364	228.303	10.88208
-39.1341	234.228	10.9016
-39.1319	236.272	10.9211
-39.1316	231.885	10.9407
-39.1286	235.036	10.9602
-39.1272	241.353	10.9797
-39.1264	231.445	10.9993
-39.1242	238.934	11.0188
-39.123	240.884	11.03833
-39.1202	238.737	11.0579
-39.1191	239.48	11.0774
-39.11673	246.502	11.0969
-39.1171	239.071	11.1165
-39.1143	242.671	11.136
-39.1131	246.651	11.1555
-39.1116	246.323	11.175
-39.1095	242.999	11.19458
-39.1073	248.887	11.2141
-39.1064	249.253	11.2336
-39.1055	247.052	11.2532
-39.104	248.558	11.2727
-39.1023	253.073	11.2922
-39.1001	250.146	11.3118
-39.09856	252.643	11.3313
-39.096	256.159	11.35083
-39.09444	251.472	11.3704
-39.0931	253.694	11.3899
-39.0929	259.243	11.4094
-39.09	257.48	11.429
-39.0884	252.684	11.4485
-39.08675	260.509	11.468
-39.0853	260.029	11.4875
-39.084	257.107	11.50708
-39.0815	262.092	11.5266
-39.0808	265.816	11.5461
-39.0793	256.591	11.5657
-39.0781	265.594	11.5852
-39.0738	266.01	11.6047
-39.0729	261.988	11.6243
-39.0723	264.112	11.6438
-39.07	272.959	11.66333
-39.0693	264.495	11.6829
-39.0677	266.647	11.7024
-39.0658	270.408	11.7219
-39.0646	269.769	11.7415
-39.0621	265.782	11.761
-39.0602	274.277	11.7805
-39.0599	269.447	11.8
-39.058	271.458	11.81958
-39.05632	274.807	11.8391
-39.0537	276.499	11.8586
-39.0523	273.096	11.8782
-39.0518	276.331	11.8977
-39.0494	277.408	11.9172
-39.0469	277.406	11.9368
-39.04623	276.793	11.9563
-39.0439	282.79	11.97583
-39.0423	279.753	11.9954
-39.0409	278.593	12.0149
-39.0395	284.942	12.0344
-39.038	283.057	12.054
-39.0359	281.685	12.0735
-39.0357	287.508	12.093
-39.0327	289.3399	12.1125
-39.0307	280.7012	12.13208
-39.0308	289.47	12.1516
-39.0279	291.231	12.1711
-39.0263	287.897	12.1907
-39.0258	291.292	12.2102
-39.02422	295.514	12.2297
-39.0221	285.887	12.2493
-39.02039	293.382	12.2688
-39.019	297.736	12.28833
-39.01704	293.823	12.3079
-39.016	294.2569	12.3274
-39.0129	300.996	12.3469
-39.0123	294.407	12.3665
-39.0109	296.223	12.386
-39.0088	300.302	12.4055
-39.0073	302.19	12.425
-39.0064	298.433	12.44458
-39.005	302.5079	12.4641
-39.0028	301.005	12.4836
-39.0013	299.9697	12.5032
-38.999	305.662	12.5227
-38.9981	308.138	12.5422
-38.9962	303.618	12.5618
-38.9938	303.316	12.5813
-38.9918	309.835	12.60083
-38.9903	306.612	12.6204
-38.9899	306.431	12.6399
-38.9886	310.699	12.6594
-38.986	311.226	12.679
-38.9848	305.454	12.6985
-38.9836	314.443	12.718
-38.9812	311.386	12.7375
-38.98	309.683	12.75708
-38.978	315.437	12.7766
-38.9754	319.432	12.7961
-38.975	310.631	12.8157
-38.9733	317.653	12.8352
-38.972	321.0578	12.8547
-38.96825	317.91	12.8743
-38.9688	320.313	12.8938
-38.967	324.875	12.91333
-38.96413	315.273	12.9329
-38.96307	322.273	12.9524
-38.9611	325.799	12.9719
-38.9602	322.5614	12.9915
-38.9584	321.562	13.011
-38.9568	328.331	13.0305
-38.955	325.804	13.05
-38.95322	324.619	13.06958
-38.9521	328.293	13.0891
-38.9504	328.973	13.1086
-38.9486	326.618	13.1282
-38.9463	331.215	13.1477
-38.9448	332.08	13.1672
-38.9432	329.282	13.1868
-38.9419	331.181	13.2063
-38.9408	336.836	13.22583
-38.9383	333.803	13.2454
-38.9368	331.101	13.2649
-38.9357	339.948	13.2844
-38.9347	336.593	13.304
-38.9337	335.455	13.3235
-38.93095	339.661	13.343
-38.9282	342.0791	13.3625
-38.9274	332.5267	13.38208
-38.9271	342.823	13.4016
-38.9244	342.106	13.4211
-38.9228	337.61	13.4407
-38.9214	344.766	13.4602
-38.9194	349.611	13.4797
-38.918	337.781	13.4993
-38.9159	344.3916	13.5188
-38.9142	346.363	13.53833
-38.9134	345.441	13.5579
-38.911	347.667	13.5774
-38.9099	351.867	13.5969
-38.9092	345.6907	13.6165
-38.9057	347.03	13.636
-38.9044	353.989	13.6555
-38.9016	352.625	13.675
-38.9016	350.673	13.69458
-38.9004	354.529	13.7141
-38.8979	355.92	13.7336
-38.8964	352.402	13.7532
-38.8936	356.48	13.7727
-38.8938	357.162	13.7922
-38.8918	355.6517	13.8118
-38.8901	355.343	13.8313
-38.8879	362.016	13.85083
-38.8862	356.1749	13.8704
-38.8861	359.74	13.8899
-38.8843	366.952	13.9094
-38.8805	362.446	13.929
-38.8804	356.522	13.9485
-38.87899	365.9884	13.968
-38.8766	363.439	13.9875
-38.8773	362.869	14.00708
-38.8741	368.309	14.0266
-38.8736	368.948	14.0461
-38.8705	360.973	14.0657
-38.8683	370.866	14.0852
-38.8673	371.713	14.1047
-38.8646	366.932	14.1243
-38.8637	369.516	14.1438
-38.8618	375.71	14.16333
-38.8614	368.433	14.1829
-38.8593	372.073	14.2024
-38.8572	377.34	14.2219
-38.8553	374.035	14.2415
-38.8546	373.019	14.261
-38.8534	377.953	14.2805
-38.8501	375.259	14.3
-38.8495	372.994	14.31958
-38.8472	381.98	14.3391
-38.8462	379.519	14.3586
-38.844	375.675	14.3782
-38.8419	380.402	14.3977
-38.841	383.824	14.4172
-38.8399	380.329	14.4368
-38.8368	383.526	14.4563
-38.8361	386.425	14.47583
-38.8348	384.29	14.4954
-38.8321	382.438	14.5149
-38.83049	390.531	14.5344
-38.82999	384.432	14.554
-38.8288	385.067	14.5735
-38.8274	392.528	14.593
-38.826	391.525	14.6125
-38.8229	384.221	14.63208
-38.82056	394.343	14.6516
-38.82048	392.384	14.6711
-38.81839	387.98	14.6907
-38.8172	394.121	14.7102
-38.8141	398.523	14.7297
-38.8148	388.585	14.7493
-38.812	396.267	14.7688
-38.8097	400.086	14.78833
-38.8093	394.486	14.8079
-38.806	395.159	14.8274
-38.8064	401.757	14.8469
-38.8029	396.577	14.8665
-38.8026	396.518	14.886
-38.80138	401.448	14.9055
-38.7977	400.968	14.925
-38.7978	399.405	14.94458
-38.7952	404.086	14.9641
-38.7943	404.694	14.9836
-38.7924	399.2366	15.0032
-38.7903	404.897	15.0227
-38.7888	408.823	15.0422
-38.7881	404.363	15.0618
-38.786	404.029	15.0813
-38.7839	411.8978	15.10083
-38.782	405.247	15.1204
-38.7812	407.419	15.1399
-38.77829	412.786	15.1594
-38.7775	411.334	15.179
-38.77663	405.988	15.1985
-38.7733	417.299	15.218
-38.773	412.834	15.2375
-38.7709	409.45	15.25708
-38.7694	416.104	15.2766
-38.7679	419.488	15.2961
-38.766	409.008	15.3157
-38.7638	416.872	15.3352
-38.7628	418.235	15.3547
-38.7605	415.349	15.3743
-38.76	418.262	15.3938
-38.7585	422.868	15.41333
-38.7552	415.028	15.4329
-38.7549	419.963	15.4524
-38.7531	424.3974	15.4719
-38.7516	420.239	15.4915
-38.7499	419.914	15.511
-38.7482	424.893	15.5305
-38.747	423.977	15.55
-38.7454	420.535	15.56958
-38.7443	425.663	15.5891
-38.742	426.585	15.6086
-38.7408	424.548	15.6282
-38.7384	427.094	15.6477
-38.7365	431.009	15.6672
-38.7361	422.97	15.6868
-38.7338	429.782	15.7063
-38.7317	433.075	15.72583
-38.7311	430.154	15.7454
-38.7299	426.185	15.7649
-38.7292	437.119	15.7844
-38.7261	431.237	15.804
-38.7239	430.566	15.8235
-38.723	437.752	15.843
-38.7214	437.278	15.8625
-38.7187	429.923	15.88208
-38.7177	439.601	15.9016
-38.7164	437.609	15.9211
-38.7149	433.3551	15.9407
-38.7129	438.858	15.9602
-38.7104	443.044	15.9797
-38.70924	434.17	15.9993
-38.708	440.987	16.0188
-38.7059	443.463	16.03833
-38.7044	438.551	16.0579
-38.7033	440.796	16.0774
-38.7017	444.367	16.0969
-38.6989	439.621	16.1165
-38.6982	440.754	16.136
-38.69574	448.496	16.1555
-38.6954	445.02	16.175
-38.692	441.96	16.19458
-38.6922	446.695	16.2141
-38.6891	450.774	16.2336
-38.6882	445.02	16.2532
-38.6872	449.2243	16.2727
-38.6854	450.673	16.2922
-38.6834	447.757	16.3118
-38.6807	448.5004	16.3313
-38.6811	454.741	16.35083
-38.679	448.118	16.3704
-38.6771	450.56	16.3899
-38.6755	457.161	16.4094
-38.6733	454.702	16.429
-38.6713	448.021	16.4485
-38.6699	458.871	16.468
-38.6683	456.317	16.4875
-38.6676	453.305	16.50708
-38.6652	457.38	16.5266
-38.6645	460.5777	16.5461
-38.6625	451.821	16.5657
-38.6597	461.19	16.5852
-38.6587	460.37	16.6047
-38.6573	455.553	16.6243
-38.65551	459.24	16.6438
-38.6542	464.789	16.66333
-38.65379	458.221	16.6829
-38.6498	460.013	16.7024
-38.6486	465.41	16.7219
-38.6467	462.015	16.7415
-38.6454	463.647	16.761
-38.6443	466.492	16.7805
-38.6423	464.154	16.8
-38.6411	461.062	16.81958
-38.6403	468.2991	16.8391
-38.6374	468.759	16.8586
-38.6363	463.4794	16.8782
-38.6345	464.835	16.8977
-38.63242	472.517	16.9172
-38.6316	464.919	16.9368
-38.63047	470.068	16.9563
-38.6288	472.097	16.97583
-38.62653	468.994	16.9954
-38.6249	466.836	17.0149
-38.62352	478.083	17.0344
-38.6219	471.565	17.054
-38.6203	471.459	17.0735
-38.6178	477.438	17.093
-38.6164	475.3508	17.1125
-38.6153	466.558	17.13208
-38.6134	476.964	17.1516
-38.6114	477.346	17.1711
-38.6096	472.032	17.1907
-38.6094	478.36	17.2102
-38.6062	479.185	17.2297
-38.6055	471.991	17.2493
-38.6032	478.23	17.2688
-38.6026	480.9639	17.28833
-38.6011	476.267	17.3079
-38.5985	479.044	17.3274
-38.5971	481.357	17.3469
-38.5954	479.803	17.3665
-38.5942	477.2269	17.386
-38.5911	484.105	17.4055
-38.5911	482.451	17.425
-38.589	480.581	17.44458
-38.5872	484.998	17.4641
-38.5848	486.397	17.4836
-38.5843	478.268	17.5032
-38.5825	485.649	17.5227
-38.5798	489.911	17.5422
-38.57856	484.767	17.5618
-38.5769	483.428	17.5813
-38.57576	492.214	17.60083
-38.5744	483.721	17.6204
-38.5732	486.048	17.6399
-38.5701	491.652	17.6594
-38.5683	487.623	17.679
-38.5681	483.8208	17.6985
-38.5653	494.782	17.718
-38.5645	489.808	17.7375
-38.5628	485.792	17.75708
-38.5613	494.132	17.7766
-38.56	493.125	17.7961
-38.5584	485.03	17.8157
-38.5564	492.582	17.8352
-38.5546	496.272	17.8547
-38.5536	490.267	17.8743
-38.55151	493.443	17.8938
-38.5488	496.311	17.91333
-38.5484	491.627	17.9329
-38.5466	492.505	17.9524
-38.5439	499.3461	17.9719
-38.5433	493.6156	17.9915
-38.5425	494.903	18.011
-38.54047	497.394	18.0305
-38.5389	500.258	18.05
-38.5373	493.6611	18.06958
-38.5354	500.136	18.0891
-38.5332	500.002	18.1086
-38.5327	496.189	18.1282
-38.53006	497.587	18.1477
-38.5282	505.596	18.1672
-38.5269	494.646	18.1868
-38.5247	500.894	18.2063
-38.5239	504.744	18.22583
-38.5228	500.941	18.2454
-38.5204	495.07	18.2649
-38.5188	506.388	18.2844
-38.5176	499.704	18.304
-38.5157	499.923	18.3235
-38.5134	505.462	18.343
-38.5127	503.739	18.3625
-38.5114	496.711	18.38208
-38.5104	505.732	18.4016
-38.5078	504.025	18.4211
-38.5054	499.585	18.4407
-38.5041	505.773	18.4602
-38.5025	508.217	18.4797
-38.5011	500.545	18.4993
-38.499	502.679	18.5188
-38.4979	509.814	18.53833
-38.4964	503.326	18.5579
-38.4945	506.616	18.5774
-38.493	507.693	18.5969
-38.49	505.278	18.6165
-38.4895	501.83	18.636
-38.48769	511.048	18.6555
-38.4859	509.433	18.675
-38.4854	505.16	18.69458
-38.4826	506.659	18.7141
-38.4813	512.366	18.7336
-38.4799	504.03	18.7532
-38.4778	508.712	18.7727
-38.4768	512.933	18.7922
-38.4752	507.6651	18.8118
-38.4721	507.56	18.8313
-38.4722	514.074	18.85083
-38.4711	506.592	18.8704
-38.4674	508.003	18.8899
-38.4668	514.489	18.9094
-38.4657	510.59	18.929
-38.4639	503.283	18.9485
-38.4618	514.808	18.968
-38.461	511.686	18.9875
-38.458	508.293	19.00708
-38.4574	514.36	19.0266
-38.4556	512.885	19.0461
-38.4541	506.656	19.0657
-38.45232	514.705	19.0852
-38.4511	515.791	19.1047
-38.4492	507.457	19.1243
-38.4476	511.192	19.1438
-38.4459	515.057	19.16333
-38.44466	511.281	19.1829
-38.4429	510.908	19.2024
-38.4411	517.358	19.2219
-38.4398	512.27	19.2415
-38.4384	511.446	19.261
-38.436	513.791	19.2805
-38.4337	515.141	19.3
-38.4327	508.9342	19.31958
-38.43082	516.793	19.3391
-38.4291	516.42	19.3586
-38.4276	509.842	19.3782
-38.4258	511.041	19.3977
-38.4246	518.847	19.4172
-38.4232	510.651	19.4368
-38.4219	515.434	19.4563
-38.4193	517.69	19.47583
-38.4174	513.552	19.4954
-38.4165	509.868	19.5149
-38.414	520.909	19.5344
-38.4127	513.805	19.554
-38.4124	509.955	19.5735
-38.4103	518.762	19.593
-38.4082	517.815	19.6125
-38.406	508.222	19.63208
-38.4061	518.161	19.6516
-38.4021	517.461	19.6711
-38.40152	510.073	19.6907
-38.40099	514.42	19.7102
-38.3983	515.308	19.7297
-38.3968	510.327	19.7493
-38.3961	514.324	19.7688
-38.3936	518.757	19.78833
-38.3911	510.771	19.8079
-38.3909	511.736	19.8274
-38.3885	515.7356	19.8469
-38.3865	514.8158	19.8665
-38.3853	509.808	19.886
-38.38319	517.836	19.9055
-38.3834	514.747	19.925
-38.3805	513.179	19.94458
-38.3803	512.82	19.9641
-38.3771	516.298	19.9836
-38.3757	508.362	20.0032
-38.3749	510.659	20.0129

Data Header:			0.254_hd_uprint_typeiv_4545_r0			Time:	40.0176	s	4/13/2019 7:51:11 PM
Data Acquisition:	Timed
Station Name:	ft40.cfg
Test File Name:	monotonic_0.2540_typeiv_hd_4545_uprint.tst
Displacement	Force	Running Time
mm	N	s
-38.3736	515.612	20.0227
-38.3719	518.934	20.0422
-38.3701	511.896	20.0618
-38.3681	509.979	20.0813
-38.3677	518.782	20.10083
-38.3655	512.168	20.1204
-38.3647	512.832	20.1399
-38.3625	517.976	20.1594
-38.3609	512.75	20.179
-38.3598	508.154	20.1985
-38.357	517.879	20.218
-38.3565	514.54	20.2375
-38.3533	508.517	20.25708
-38.3529	516.769	20.2766
-38.352	516.064	20.2961
-38.3498	509.8139	20.3157
-38.3478	513.224	20.3352
-38.3458	517.193	20.3547
-38.3448	508.333	20.3743
-38.3441	514.57	20.3938
-38.3421	514.388	20.41333
-38.3399	511.018	20.4329
-38.338	508.875	20.4524
-38.3358	517.594	20.4719
-38.3346	512.078	20.4915
-38.3333	512.153	20.511
-38.3319	512.186	20.5305
-38.3302	515.321	20.55
-38.3285	508.426	20.56958
-38.3269	513.799	20.5891
-38.325	514.716	20.6086
-38.3232	509.593	20.6282
-38.3218	510.096	20.6477
-38.32021	516.332	20.6672
-38.31889	508.259	20.6868
-38.3163	510.9707	20.7063
-38.3153	516.894	20.72583
-38.3136	511.103	20.7454
-38.3115	506.657	20.7649
-38.3115	516.099	20.7844
-38.3089	510.872	20.804
-38.3071	507.827	20.8235
-38.3062	514.571	20.843
-38.3042	510.866	20.8625
-38.3009	506.677	20.88208
-38.2998	515.087	20.9016
-38.298	513.133	20.9211
-38.2969	506.412	20.9407
-38.2966	513.729	20.9602
-38.2946	511.8898	20.9797
-38.292	506.692	20.9993
-38.291	509.6044	21.0188
-38.2898	514.798	21.03833
-38.2889	507.266	21.0579
-38.2856	510.4425	21.0774
-38.2838	510.8071	21.0969
-38.2825	509.791	21.1165
-38.2816	506.305	21.136
-38.2788	514.383	21.1555
-38.2777	512.828	21.175
-38.27536	506.756	21.19458
-38.2754	507.935	21.2141
-38.2728	514.286	21.2336
-38.2714	505.9126	21.2532
-38.2699	510.8089	21.2727
-38.2689	512.288	21.2922
-38.267	508.625	21.3118
-38.2652	505.001	21.3313
-38.2638	513.929	21.35083
-38.2611	505.926	21.3704
-38.2596	506.374	21.3899
-38.2588	513.867	21.4094
-38.25705	508.171	21.429
-38.25592	503.5	21.4485
-38.2536	512.116	21.468
-38.2512	509.286	21.4875
-38.252	503.849	21.50708
-38.2483	511.565	21.5266
-38.2485	508.667	21.5461
-38.2457	503.436	21.5657
-38.2439	508.4523	21.5852
-38.2416	514.36	21.6047
-38.2408	504.21	21.6243
-38.2389	509.303	21.6438
-38.2364	509.25	21.66333
-38.2355	507.285	21.6829
-38.2342	504.944	21.7024
-38.2318	511.526	21.7219
-38.2305	507.479	21.7415
-38.2295	505.742	21.761
-38.22683	507.309	21.7805
-38.226	510.08	21.8
-38.2245	501.983	21.81958
-38.2223	510.143	21.8391
-38.22118	510.219	21.8586
-38.2189	502.903	21.8782
-38.2178	504.034	21.8977
-38.2167	511.012	21.9172
-38.2141	503.574	21.9368
-38.2126	505.695	21.9563
-38.2112	510.054	21.97583
-38.2104	504.196	21.9954
-38.2087	501.51	22.0149
-38.2073	512.689	22.0344
-38.2056	504.3168	22.054
-38.2033	502.285	22.0735
-38.20166	509.85	22.093
-38.1998	507.299	22.1125
-38.1984	501.958	22.13208
-38.19677	505.877	22.1516
-38.1946	508.075	22.1711
-38.1928	501.09	22.1907
-38.1914	507.825	22.2102
-38.1898	505.342	22.2297
-38.1883	503.282	22.2493
-38.1865	505.025	22.2688
-38.1854	509.438	22.28833
-38.1842	503.766	22.3079
-38.1817	503.876	22.3274
-38.1803	506.26	22.3469
-38.17852	508.203	22.3665
-38.1765	501.633	22.386
-38.1756	509.172	22.4055
-38.174	504.964	22.425
-38.17281	502.21	22.44458
-38.1702	503.998	22.4641
-38.1686	509.549	22.4836
-38.16684	500.112	22.5032
-38.1651	505.849	22.5227
-38.1636	508.715	22.5422
-38.1621	502.838	22.5618
-38.1616	501.415	22.5813
-38.1585	508.479	22.60083
-38.1583	503.425	22.6204
-38.1568	502.117	22.6399
-38.1547	508.575	22.6594
-38.1532	501.4389	22.679
-38.1511	499.607	22.6985
-38.1494	506.445	22.718
-38.1466	504.951	22.7375
-38.1465	499.286	22.75708
-38.1437	507.857	22.7766
-38.1439	505.129	22.7961
-38.1412	501.795	22.8157
-38.1398	503.313	22.8352
-38.1382	507.678	22.8547
-38.1356	501.267	22.8743
-38.1343	505.0611	22.8938
-38.1326	504.422	22.91333
-38.1316	501.519	22.9329
-38.1299	501.108	22.9524
-38.1274	509.471	22.9719
-38.1261	503.983	22.9915
-38.1248	502.104	23.011
-38.1231	503.125	23.0305
-38.1219	505.803	23.05
-38.1198	498.998	23.06958
-38.11821	505.258	23.0891
-38.11681	505.168	23.1086
-38.1154	499.35	23.1282
-38.1136	501.818	23.1477
-38.1112	506.662	23.1672
-38.1101	498.817	23.1868
-38.1086	500.56	23.2063
-38.1073	507.238	23.22583
-38.1046	500.469	23.2454
-38.1037	497.746	23.2649
-38.1031	505.513	23.2844
-38.1009	502.145	23.304
-38.0989	499.967	23.3235
-38.0969	507.664	23.343
-38.0957	501.394	23.3625
-38.0942	498.024	23.38208
-38.09248	502.942	23.4016
-38.091	503.373	23.4211
-38.0889	496.08	23.4407
-38.087	502.783	23.4602
-38.085	502.306	23.4797
-38.0848	501.189	23.4993
-38.0813	499.042	23.5188
-38.0821	506.151	23.53833
-38.0802	500.229	23.5579
-38.0778	502.193	23.5774
-38.0756	503.116	23.5969
-38.0751	503.248	23.6165
-38.0722	496.685	23.636
-38.071	504.44	23.6555
-38.0691	503.019	23.675
-38.0683	496.753	23.69458
-38.0664	500.038	23.7141
-38.0643	504.0372	23.7336
-38.06234	496.096	23.7532
-38.0616	502.625	23.7727
-38.0602	505.163	23.7922
-38.0582	497.671	23.8118
-38.0564	499.976	23.8313
-38.0549	506.096	23.85083
-38.0532	499.608	23.8704
-38.0512	497.245	23.8899
-38.0509	506.061	23.9094
-38.048	498.674	23.929
-38.048	496.588	23.9485
-38.0442	502.866	23.968
-38.04372	501.6308	23.9875
-38.0419	498.47	24.00708
-38.0409	504.121	24.0266
-38.03756	499.964	24.0461
-38.037	497.571	24.0657
-38.0355	500.775	24.0852
-38.0343	505.3345	24.1047
-38.0319	496.613	24.1243
-38.0306	499.969	24.1438
-38.0284	500.776	24.16333
-38.0281	499.082	24.1829
-38.0266	497.84	24.2024
-38.0237	505.199	24.2219
-38.02322	499.515	24.2415
-38.0197	499.417	24.261
-38.0194	500.859	24.2805
-38.01762	503.085	24.3
-38.0156	494.796	24.31958
-38.01416	502.402	24.3391
-38.0132	503.555	24.3586
-38.0109	495.467	24.3782
-38.009	498.2757	24.3977
-38.0081	504.082	24.4172
-38.0061	497.211	24.4368
-38.005	500.176	24.4563
-38.0027	504.917	24.47583
-38.0011	495.127	24.4954
-37.99966	497.344	24.5149
-37.9975	505.34	24.5344
-37.9959	499.2345	24.554
-37.9953	494.96	24.5735
-37.9929	503.504	24.593
-37.9927	497.899	24.6125
-37.9896	497.4	24.63208
-37.9883	499.851	24.6516
-37.9878	501.519	24.6711
-37.9857	494.96	24.6907
-37.9836	500.69	24.7102
-37.9821	499.116	24.7297
-37.9808	497.166	24.7493
-37.9777	496.489	24.7688
-37.9777	502.226	24.78833
-37.9754	495.822	24.8079
-37.9743	496.882	24.8274
-37.9725	498.193	24.8469
-37.9704	500.569	24.8665
-37.9683	494.815	24.886
-37.9674	499.672	24.9055
-37.965	498.882	24.925
-37.9632	495.311	24.94458
-37.9614	499.9931	24.9641
-37.96088	501.332	24.9836
-37.9588	493.794	25.0032
-37.9577	499.466	25.0227
-37.9564	502.595	25.0422
-37.95422	495.125	25.0618
-37.9527	496.49	25.0813
-37.9512	501.333	25.10083
-37.9482	498.45	25.1204
-37.9477	495.064	25.1399
-37.946	503.863	25.1594
-37.9449	494.666	25.179
-37.943	495.326	25.1985
-37.9416	500.348	25.218
-37.9403	500.419	25.2375
-37.9381	493.348	25.25708
-37.93581	499.466	25.2766
-37.9339	496.489	25.2961
-37.934	496.436	25.3157
-37.9318	496.2532	25.3352
-37.93	501.644	25.3547
-37.9286	494.208	25.3743
-37.92625	498.824	25.3938
-37.9252	498.627	25.41333
-37.9224	496.469	25.4329
-37.9215	494.6955	25.4524
-37.9206	501.4	25.4719
-37.9185	497.123	25.4915
-37.9167	493.412	25.511
-37.9154	497.802	25.5305
-37.9132	498.768	25.55
-37.9113	493.571	25.56958
-37.9103	497.494	25.5891
-37.90797	499.466	25.6086
-37.9072	493.8313	25.6282
-37.9058	497.679	25.6477
-37.9041	501.572	25.6672
-37.9016	494.543	25.6868
-37.9002	495.025	25.7063
-37.899	502.9263	25.72583
-37.8979	493.726	25.7454
-37.8955	495.334	25.7649
-37.8943	498.704	25.7844
-37.8916	496.934	25.804
-37.8904	493.082	25.8235
-37.8895	501.851	25.843
-37.88662	494.44	25.8625
-37.8862	493.707	25.88208
-37.8842	498.3493	25.9016
-37.8816	499.726	25.9211
-37.8805	492.298	25.9407
-37.8785	498.527	25.9602
-37.8774	498.504	25.9797
-37.8758	495.3483	25.9993
-37.8746	493.194	26.0188
-37.872	499.278	26.03833
-37.8703	494.622	26.0579
-37.87	495.206	26.0774
-37.8678	497.891	26.0969
-37.8668	496.151	26.1165
-37.8644	493.613	26.136
-37.8645	498.728	26.1555
-37.8617	498.861	26.175
-37.8604	490.61	26.19458
-37.8575	497.252	26.2141
-37.8559	498.995	26.2336
-37.8546	492.994	26.2532
-37.8528	496.573	26.2727
-37.8508	499.872	26.2922
-37.8499	491.761	26.3118
-37.84874	496.028	26.3313
-37.8464	498.5318	26.35083
-37.8452	493.606	26.3704
-37.8435	495.064	26.3899
-37.8413	501.612	26.4094
-37.8408	492.75	26.429
-37.8388	494.2384	26.4485
-37.83617	497.576	26.468
-37.8348	498.634	26.4875
-37.8334	493.0817	26.50708
-37.8308	499.603	26.5266
-37.8292	495.44	26.5461
-37.82859	494.068	26.5657
-37.8278	496.627	26.5852
-37.8251	500.5322	26.6047
-37.8235	493.3204	26.6243
-37.8227	494.306	26.6438
-37.8204	497.443	26.66333
-37.8184	496.187	26.6829
-37.8172	492.967	26.7024
-37.8153	497.379	26.7219
-37.8142	496.399	26.7415
-37.8125	492.928	26.761
-37.8108	498.56	26.7805
-37.8094	496.438	26.8
-37.8068	491.321	26.81958
-37.80616	496.364	26.8391
-37.8045	499.8985	26.8586
-37.80209	489.636	26.8782
-37.80056	494.435	26.8977
-37.799	497.802	26.9172
-37.7977	493.972	26.9368
-37.7957	494.5	26.9563
-37.79422	498.636	26.97583
-37.793	489.75	26.9954
-37.7913	495.4	27.0149
-37.7893	499.501	27.0344
-37.789	497.002	27.054
-37.7866	491.0415	27.0735
-37.7838	499.314	27.093
-37.78315	494.2153	27.1125
-37.7817	493.369	27.13208
-37.7805	496.123	27.1516
-37.779	497.493	27.1711
-37.7769	493.08	27.1907
-37.7759	494.906	27.2102
-37.7729	495.498	27.2297
-37.7712	492.891	27.2493
-37.7693	492.804	27.2688
-37.7695	499.716	27.28833
-37.76656	493.815	27.3079
-37.7655	492.6694	27.3274
-37.7638	497.224	27.3469
-37.7618	495.442	27.3665
-37.7605	491.978	27.386
-37.7589	496.016	27.4055
-37.7565	495.584	27.425
-37.7558	491.319	27.44458
-37.7539	496.237	27.4641
-37.7511	496.506	27.4836
-37.7517	491.043	27.5032
-37.7492	496.455	27.5227
-37.7474	499.868	27.5422
-37.7459	489.027	27.5618
-37.7443	493.308	27.5813
-37.74258	497.036	27.60083
-37.7397	493.511	27.6204
-37.7379	492.422	27.6399
-37.7375	499.255	27.6594
-37.7359	489.455	27.679
-37.7342	494.196	27.6985
-37.7331	496.516	27.718
-37.7307	494.361	27.7375
-37.7294	491.475	27.75708
-37.729	496.394	27.7766
-37.7271	493.661	27.7961
-37.7239	491.964	27.8157
-37.7231	493.922	27.8352
-37.72197	496.449	27.8547
-37.72	491.713	27.8743
-37.7175	494.4924	27.8938
-37.7164	496.348	27.91333
-37.7149	491.4201	27.9329
-37.7139	492.868	27.9524
-37.7125	497.331	27.9719
-37.70956	495.694	27.9915
-37.7078	489.272	28.011
-37.7069	496.174	28.0305
-37.7051	496.584	28.05
-37.7031	490.293	28.06958
-37.7018	494.392	28.0891
-37.6991	496.983	28.1086
-37.6986	488.159	28.1282
-37.6968	496.933	28.1477
-37.695	497.269	28.1672
-37.69313	489.604	28.1868
-37.6933	492.757	28.2063
-37.6913	499.833	28.22583
-37.68856	489.978	28.2454
-37.6864	494.222	28.2649
-37.6857	496.699	28.2844
-37.6847	493.123	28.304
-37.682	491.933	28.3235
-37.6806	497.946	28.343
-37.67767	492.043	28.3625
-37.6778	491.1424	28.38208
-37.676	496.164	28.4016
-37.6723	496.229	28.4211
-37.6727	490.084	28.4407
-37.6711	493.225	28.4602
-37.6698	495.289	28.4797
-37.6686	491.6572	28.4993
-37.6675	492.168	28.5188
-37.665	496.061	28.53833
-37.6633	490.812	28.5579
-37.6609	492.241	28.5774
-37.6598	496.537	28.5969
-37.6583	490.423	28.6165
-37.6553	489.098	28.636
-37.6548	495.202	28.6555
-37.6529	495.234	28.675
-37.65205	486.906	28.69458
-37.6495	494.567	28.7141
-37.64922	492.62	28.7336
-37.6468	489.15	28.7532
-37.6443	493.187	28.7727
-37.6437	496.684	28.7922
-37.6408	487.2305	28.8118
-37.6394	494.317	28.8313
-37.6382	495.201	28.85083
-37.6357	490.518	28.8704
-37.6354	490.725	28.8899
-37.6336	497.436	28.9094
-37.6324	489.661	28.929
-37.6298	491.396	28.9485
-37.6284	494.232	28.968
-37.627	493.363	28.9875
-37.6253	491.171	29.00708
-37.6239	496.951	29.0266
-37.6219	491.978	29.0461
-37.6199	489.7915	29.0657
-37.6194	491.3421	29.0852
-37.6176	497.073	29.1047
-37.61528	489.251	29.1243
-37.6135	489.594	29.1438
-37.612	494.511	29.16333
-37.6108	490.766	29.1829
-37.6088	489.37	29.2024
-37.6077	495.572	29.2219
-37.6059	492.193	29.2415
-37.6038	486.505	29.261
-37.6029	495.656	29.2805
-37.6003	491.639	29.3
-37.5993	488.933	29.31958
-37.5973	494.523	29.3391
-37.59787	497.286	29.3586
-37.5952	487.471	29.3782
-37.5928	491.701	29.3977
-37.5908	495.016	29.4172
-37.5896	490.804	29.4368
-37.5879	492.863	29.4563
-37.5869	497.023	29.47583
-37.5831	486.054	29.4954
-37.5832	490.768	29.5149
-37.5806	494.917	29.5344
-37.5794	491.421	29.554
-37.5781	489.032	29.5735
-37.5766	495.272	29.593
-37.5756	491.469	29.6125
-37.5729	489.985	29.63208
-37.571	492.495	29.6516
-37.5687	493.739	29.6711
-37.5675	490.195	29.6907
-37.5663	493.37	29.7102
-37.5648	493.903	29.7297
-37.5634	488.951	29.7493
-37.561	491.26	29.7688
-37.5605	495.78	29.78833
-37.559	491.382	29.8079
-37.5563	486.191	29.8274
-37.5554	495.168	29.8469
-37.5527	490.581	29.8665
-37.5528	490.138	29.886
-37.5509	493.551	29.9055
-37.54882	493.86	29.925
-37.5479	484.081	29.94458
-37.54533	495.654	29.9641
-37.5431	493.453	29.9836
-37.5421	487.69	30.0032
-37.5419	493.442	30.0227
-37.53862	498.328	30.0422
-37.537	484.251	30.0618
-37.5355	491.487	30.0813
-37.5352	493.868	30.10083
-37.5329	488.327	30.1204
-37.5313	489.4519	30.1399
-37.5293	496.3483	30.1594
-37.5274	487.915	30.179
-37.5262	489.22	30.1985
-37.5233	493.716	30.218
-37.5227	491.686	30.2375
-37.52058	486.996	30.25708
-37.5207	492.563	30.2766
-37.5172	491.365	30.2961
-37.5167	488.011	30.3157
-37.515	489.428	30.3352
-37.5133	492.363	30.3547
-37.5114	488.741	30.3743
-37.5105	489.42	30.3938
-37.50819	493.132	30.41333
-37.5054	488.159	30.4329
-37.5058	489.034	30.4524
-37.50275	496.1217	30.4719
-37.5008	491.517	30.4915
-37.4994	484.994	30.511
-37.4994	493.432	30.5305
-37.497	490.7	30.55
-37.49588	487.771	30.56958
-37.4933	493.552	30.5891
-37.4908	491.854	30.6086
-37.4896	484.166	30.6282
-37.4899	493.353	30.6477
-37.4872	493.144	30.6672
-37.4847	486.313	30.6868
-37.4838	488.55	30.7063
-37.4811	494.744	30.72583
-37.4802	486.435	30.7454
-37.4788	488.728	30.7649
-37.4773	492.357	30.7844
-37.4757	489.093	30.804
-37.4744	487.519	30.8235
-37.47226	492.439	30.843
-37.471	487.046	30.8625
-37.4693	486.53	30.88208
-37.4674	493.422	30.9016
-37.4648	491.463	30.9211
-37.4641	486.506	30.9407
-37.4618	487.643	30.9602
-37.4609	492.307	30.9797
-37.4589	486.197	30.9993
-37.4588	489.362	31.0188
-37.4555	491.785	31.03833
-37.4543	488.193	31.0579
-37.452	486.471	31.0774
-37.451	493.639	31.0969
-37.45015	487.07	31.1165
-37.4475	486.339	31.136
-37.4461	491.333	31.1555
-37.44474	492.209	31.175
-37.443	482.7496	31.19458
-37.4415	490.617	31.2141
-37.4396	490.954	31.2336
-37.4385	487.139	31.2532
-37.4373	491.457	31.2727
-37.43602	492.723	31.2922
-37.4332	482.4632	31.3118
-37.4311	490.734	31.3313
-37.4302	492.491	31.35083
-37.4286	486.93	31.3704
-37.4274	487.176	31.3899
-37.425	493.815	31.4094
-37.4245	486.856	31.429
-37.4213	488.116	31.4485
-37.4203	491.785	31.468
-37.4174	489.491	31.4875
-37.4166	487.657	31.50708
-37.4158	490.296	31.5266
-37.4127	489.589	31.5461
-37.412	486.225	31.5657
-37.4104	489.896	31.5852
-37.4081	490.878	31.6047
-37.4067	487.499	31.6243
-37.4058	487.125	31.6438
-37.4047	491.476	31.66333
-37.4019	486.0173	31.6829
-37.4001	486.548	31.7024
-37.3992	489.919	31.7219
-37.3979	488.184	31.7415
-37.39579	483.305	31.761
-37.3944	494.0101	31.7805
-37.3929	489.443	31.8
-37.391	487.024	31.81958
-37.3886	492.553	31.8391
-37.3883	492.611	31.8586
-37.3867	483.179	31.8782
-37.3843	490.382	31.8977
-37.38348	490.045	31.9172
-37.3798	486.059	31.9368
-37.3783	489.721	31.9563
-37.3774	493.765	31.97583
-37.37429	482.4729	31.9954
-37.3753	487.474	32.0149
-37.3721	493.32	32.0344
-37.3719	487.802	32.054
-37.3697	485.665	32.0735
-37.367	491.72	32.093
-37.3673	488.183	32.1125
-37.3646	486.303	32.13208
-37.3634	490.166	32.1516
-37.3622	489.021	32.1711
-37.3606	486.377	32.1907
-37.3582	487.996	32.2102
-37.3569	491.416	32.2297
-37.3549	485.167	32.2493
-37.3539	486.488	32.2688
-37.3513	492.694	32.28833
-37.3502	488.8009	32.3079
-37.34993	482.0394	32.3274
-37.3475	491.766	32.3469
-37.3453	486.877	32.3665
-37.3427	486.582	32.386
-37.3422	490.67	32.4055
-37.3409	488.235	32.425
-37.3388	480.801	32.44458
-37.3364	491.162	32.4641
-37.3346	489.0744	32.4836
-37.3336	484.126	32.5032
-37.3319	488.587	32.5227
-37.3298	492.342	32.5422
-37.3282	482.806	32.5618
-37.3279	487.856	32.5813
-37.3252	492.304	32.60083
-37.32341	486.04	32.6204
-37.3218	487.85	32.6399
-37.3203	491.52	32.6594
-37.3199	483.74	32.679
-37.3171	484.682	32.6985
-37.3171	490.904	32.718
-37.3143	488.372	32.7375
-37.3141	483.91	32.75708
-37.3108	486.831	32.7766
-37.3098	488.084	32.7961
-37.3076	484.24	32.8157
-37.3068	489.83	32.8352
-37.3051	488.954	32.8547
-37.3033	486.136	32.8743
-37.3005	484.9585	32.8938
-37.3	492.374	32.91333
-37.2974	483.3107	32.9329
-37.2964	484.024	32.9524
-37.2953	491.791	32.9719
-37.2933	488.478	32.9915
-37.292	482.318	33.011
-37.2903	490.3075	33.0305
-37.2889	486.6683	33.05
-37.2872	486.634	33.06958
-37.286	490.489	33.0891
-37.2848	490.381	33.1086
-37.2823	480.666	33.1282
-37.2802	489.563	33.1477
-37.2787	490.926	33.1672
-37.2761	484.03	33.1868
-37.2752	486.387	33.2063
-37.2733	492.336	33.22583
-37.272	484.028	33.2454
-37.2708	486.836	33.2649
-37.2684	489.787	33.2844
-37.267	486.8746	33.304
-37.26524	484.013	33.3235
-37.26395	490.096	33.343
-37.2626	485.899	33.3625
-37.2612	482.703	33.38208
-37.2584	488.111	33.4016
-37.2572	489.451	33.4211
-37.2558	484.145	33.4407
-37.2546	485.416	33.4602
-37.2522	490.181	33.4797
-37.2514	483.6	33.4993
-37.249	487.099	33.5188
-37.2485	488.55	33.53833
-37.2462	485.993	33.5579
-37.24461	483.934	33.5774
-37.2427	492.776	33.5969
-37.2413	486.944	33.6165
-37.24	482.9	33.636
-37.23782	490.048	33.6555
-37.2358	491.547	33.675
-37.2352	481.6	33.69458
-37.2331	491.857	33.7141
-37.23119	487.216	33.7336
-37.2295	484.364	33.7532
-37.2287	489.232	33.7727
-37.2267	491.555	33.7922
-37.2258	481.105	33.8118
-37.2221	488.732	33.8313
-37.2212	490.358	33.85083
-37.22	484.718	33.8704
-37.2192	484.322	33.8899
-37.21777	491.431	33.9094
-37.2156	483.688	33.929
-37.2128	484.129	33.9485
-37.2121	487.598	33.968
-37.21056	485.796	33.9875
-37.2093	483.75	34.00708
-37.2074	488.887	34.0266
-37.206	487.812	34.0461
-37.2032	480.688	34.0657
-37.2028	487.452	34.0852
-37.2011	490.039	34.1047
-37.1984	484.801	34.1243
-37.1974	481.804	34.1438
-37.1957	490.525	34.16333
-37.19463	483.815	34.1829
-37.19183	486.284	34.2024
-37.1903	490.225	34.2219
-37.1891	485.635	34.2415
-37.1882	479.132	34.261
-37.1855	491.392	34.2805
-37.1842	486.89	34.3
-37.1824	481.76	34.31958
-37.1807	487.49	34.3391
-37.1788	489.184	34.3586
-37.1774	481.185	34.3782
-37.1761	489.018	34.3977
-37.1743	486.829	34.4172
-37.1727	483.648	34.4368
-37.1709	487.15	34.4563
-37.1701	489.19	34.47583
-37.1681	481.462	34.4954
-37.1669	484.699	34.5149
-37.16412	488.476	34.5344
-37.163	483.94	34.554
-37.1618	483.801	34.5735
-37.1601	487.195	34.593
-37.1591	485.8269	34.6125
-37.15567	484.601	34.63208
-37.1552	487.01	34.6516
-37.1536	486.18	34.6711
-37.1521	482.236	34.6907
-37.1494	484.454	34.7102
-37.1482	488.4859	34.7297
-37.1476	480.751	34.7493
-37.145	484.9267	34.7688
-37.1437	489	34.78833
-37.1414	486.444	34.8079
-37.13961	480.494	34.8274
-37.1387	488.406	34.8469
-37.1377	483.659	34.8665
-37.1354	483.79	34.886
-37.1337	488.577	34.9055
-37.13105	486.349	34.925
-37.1301	477.4227	34.94458
-37.1308	488.805	34.9641
-37.1274	486.729	34.9836
-37.1247	481.53	35.0032
-37.1235	486.0726	35.0227
-37.1217	488.2233	35.0422
-37.1213	481.222	35.0618
-37.1198	485.536	35.0813
-37.118	487.796	35.10083
-37.1161	481.6	35.1204
-37.1137	484.045	35.1399
-37.1126	488.529	35.1594
-37.1106	482.201	35.179
-37.1095	481.535	35.1985
-37.1073	488.005	35.218
-37.1076	485.5256	35.2375
-37.104	481.932	35.25708
-37.1036	484.56	35.2766
-37.1013	486.879	35.2961
-37.1003	482.691	35.3157
-37.0982	487.4462	35.3352
-37.0973	486.664	35.3547
-37.0935	482.08	35.3743
-37.0935	482.117	35.3938
-37.0914	489.69	35.41333
-37.09	482.148	35.4329
-37.0872	482.918	35.4524
-37.087	487.721	35.4719
-37.0849	484.87	35.4915
-37.0841	479.112	35.511
-37.0818	488.925	35.5305
-37.0804	483.613	35.55
-37.0795	480.773	35.56958
-37.07748	487.799	35.5891
-37.0755	488.214	35.6086
-37.0738	477.229	35.6282
-37.0724	486.286	35.6477
-37.07	487.238	35.6672
-37.0687	481.358	35.6868
-37.0669	483.086	35.7063
-37.0657	486.529	35.72583
-37.0642	480.2951	35.7454
-37.0624	481.0889	35.7649
-37.0598	486.532	35.7844
-37.0597	482.22	35.804
-37.0576	480.05	35.8235
-37.0564	486.462	35.843
-37.0539	485.28	35.8625
-37.05286	480.056	35.88208
-37.0514	486.602	35.9016
-37.0492	485.678	35.9211
-37.0467	481.8819	35.9407
-37.046	481.897	35.9602
-37.0441	486.854	35.9797
-37.0425	478.75	35.9993
-37.0416	483.517	36.0188
-37.0396	486.974	36.03833
-37.0378	481.075	36.0579
-37.0364	478.447	36.0774
-37.03545	487.848	36.0969
-37.0322	481.63	36.1165
-37.031	478.268	36.136
-37.0287	487.19	36.1555
-37.028	485.674	36.175
-37.0269	477.897	36.19458
-37.0239	486.853	36.2141
-37.0233	485.141	36.2336
-37.0214	480.222	36.2532
-37.0202	485.802	36.2727
-37.0166	488.692	36.2922
-37.0173	476.794	36.3118
-37.0153	484.097	36.3313
-37.013	487.637	36.35083
-37.0122	481.865	36.3704
-37.0096	480.781	36.3899
-37.00885	484.738	36.4094
-37.0074	480.289	36.429
-37.0055	480.514	36.4485
-37.0028	486.011	36.468
-37.0013	481.0755	36.4875
-36.9997	478.869	36.50708
-36.9985	483.889	36.5266
-36.9967	485.72	36.5461
-36.9963	476.2	36.5657
-36.9937	483.168	36.5852
-36.9926	484.923	36.6047
-36.9904	481.73	36.6243
-36.9901	480.712	36.6438
-36.9875	485.9389	36.66333
-36.9868	479.329	36.6829
-36.9852	482.185	36.7024
-36.9829	488.365	36.7219
-36.9803	482.811	36.7415
-36.9785	475.496	36.761
-36.9785	487.873	36.7805
-36.9753	483.54	36.8
-36.9733	479.342	36.81958
-36.9724	483.959	36.8391
-36.9715	486.478	36.8586
-36.9697	476.432	36.8782
-36.9673	484.209	36.8977
-36.9658	484.309	36.9172
-36.9643	478.056	36.9368
-36.9632	481.586	36.9563
-36.9619	486.814	36.97583
-36.9595	478.221	36.9954
-36.9577	479.589	37.0149
-36.9557	486.251	37.0344
-36.95499	480.241	37.054
-36.9529	479.662	37.0735
-36.9513	482.1467	37.093
-36.9497	480.33	37.1125
-36.9481	478.742	37.13208
-36.9472	482.819	37.1516
-36.945	483.433	37.1711
-36.9435	478.619	37.1907
-36.941	479.02	37.2102
-36.9404	483.678	37.2297
-36.93755	475.459	37.2493
-36.9362	479.365	37.2688
-36.93594	484.191	37.28833
-36.9335	480.704	37.3079
-36.93248	474.6246	37.3274
-36.9321	485.823	37.3469
-36.9294	478.44	37.3665
-36.9279	477.562	37.386
-36.9254	484.55	37.4055
-36.9241	481.315	37.425
-36.9222	474.092	37.44458
-36.9214	484.1619	37.4641
-36.9178	482.532	37.4836
-36.9163	476.993	37.5032
-36.91534	479.567	37.5227
-36.914	482.5976	37.5422
-36.9133	474.222	37.5618
-36.9113	479.513	37.5813
-36.9094	483.826	37.60083
-36.9081	476.712	37.6204
-36.9065	479.59	37.6399
-36.9046	482.5853	37.6594
-36.90271	477.125	37.679
-36.9023	474.492	37.6985
-36.8992	483.8009	37.718
-36.89793	479.043	37.7375
-36.8966	476.8432	37.75708
-36.8946	477.672	37.7766
-36.8934	480.871	37.7961
-36.8913	473.664	37.8157
-36.8899	479.745	37.8352
-36.8877	482.677	37.8547
-36.8858	477.371	37.8743
-36.8852	474.788	37.8938
-36.8835	484.336	37.91333
-36.88092	475.442	37.9329
-36.8799	476.576	37.9524
-36.8788	481.704	37.9719
-36.8762	479.611	37.9915
-36.8744	470.643	38.011
-36.8745	481.496	38.0305
-36.87159	477.561	38.05
-36.8702	473.962	38.06958
-36.8685	480.458	38.0891
-36.8664	482.093	38.1086
-36.8639	469.766	38.1282
-36.863	477.5401	38.1477
-36.8627	479.448	38.1672
-36.8592	472.768	38.1868
-36.8592	477.158	38.2063
-36.857	478.733	38.22583
-36.8558	471.21	38.2454
-36.854	474.868	38.2649
-36.8521	478.37	38.2844
-36.8505	473.894	38.304
-36.8486	473.6481	38.3235
-36.8479	476.149	38.343
-36.845	476.978	38.3625
-36.8434	470.634	38.38208
-36.84177	475.839	38.4016
-36.8413	474.685	38.4211
-36.8387	471.763	38.4407
-36.8378	471.045	38.4602
-36.8356	475.832	38.4797
-36.83416	468.648	38.4993
-36.8326	471.759	38.5188
-36.8296	475.861	38.53833
-36.8286	469.81	38.5579
-36.829	464.819	38.5774
-36.8263	475.47	38.5969
-36.824	467.869	38.6165
-36.8231	465.791	38.636
-36.82119	469.9697	38.6555
-36.8194	468.721	38.675
-36.8192	459.12	38.69458
-36.8162	467.03	38.7141
-36.8147	464.87	38.7336
-36.8135	458.369	38.7532
-36.8116	457.997	38.7727
-36.8096	455.475	38.7922
-36.8052	-49.1449	38.8118
-36.8048	-41.7625	38.8313
-36.8039	-42.8659	38.85083
-36.8026	-43.6724	38.8704
-36.8014	-41.8615	38.8899
-36.799	-39.4907	38.9094
-36.7975	-42.4343	38.929
-36.79631	-42.9492	38.9485
-36.7934	-37.2506	38.968
-36.7936	-42.6225	38.9875
-36.7922	-43.806	39.00708
-36.7893	-42.0091	39.0266
-36.7881	-38.116	39.0461
-36.7868	-44.81	39.0657
-36.7858	-39.8414	39.0852
-36.7829	-38.507	39.1047
-36.7817	-42.6104	39.1243
-36.7805	-46.9744	39.1438
-36.7788	-35.6522	39.16333
-36.7763	-45.5002	39.1829
-36.7762	-43.0937	39.2024
-36.7731	-36.6295	39.2219
-36.7715	-40.5034	39.2415
-36.7708	-47.362	39.261
-36.76833	-37.9487	39.2805
-36.7677	-41.253	39.3
-36.7656	-45.0183	39.31958
-36.7641	-38.6966	39.3391
-36.7624	-39.4514	39.3586
-36.7609	-47.3993	39.3782
-36.7594	-38.7653	39.3977
-36.7574	-38.862	39.4172
-36.7559	-45.3943	39.4368
-36.7541	-41.3368	39.4563
-36.7529	-39.5183	39.47583
-36.7511	-44.797	39.4954
-36.7491	-43.8932	39.5149
-36.7466	-38.1613	39.5344
-36.7455	-42.3382	39.554
-36.7454	-43.5377	39.5735
-36.742	-40.8109	39.593
-36.7405	-39.6411	39.6125
-36.7397	-44.2333	39.63208
-36.7393	-38.445	39.6516
-36.7364	-38.0754	39.6711
-36.7348	-44.7691	39.6907
-36.7329	-43.2475	39.7102
-36.7325	-36.3825	39.7297
-36.7309	-43.62524	39.7493
-36.7299	-41.42543	39.7688
-36.727	-37.9627	39.78833
-36.72501	-41.639	39.8079
-36.722	-45.4464	39.8274
-36.72208	-36.673	39.8469
-36.7199	-43.072	39.8665
-36.719	-44.2867	39.886
-36.7177	-36.6037	39.9055
-36.7145	-39.0799	39.925
-36.7142	-47.4848	39.94458
-36.7124	-38.176	39.9641
-36.7114	-40.0051	39.9836
-36.7088	-44.0069	40.0032
-36.70808	-42.9767	40.0129

Data Header:			0.254_hd_uprint_typeiv_4545_r0			Time:	40.5374	s	4/13/2019 7:51:11 PM
Data Acquisition:	Timed
Station Name:	ft40.cfg
Test File Name:	monotonic_0.2540_typeiv_hd_4545_uprint.tst
Displacement	Force	Running Time
mm	N	s
-36.708	-40.5025	40.0227
-36.7069	-38.10376	40.0325
-36.7054	-37.8936	40.0422
-36.7055	-39.9484	40.052
-36.7038	-46.6914	40.0618
-36.70306	-43.9664	40.0715
-36.7021	-41.6977	40.0813
-36.7026	-36.5872	40.0911
-36.7011	-37.5437	40.10083
-36.7004	-42.1294	40.1106
-36.6996	-44.6302	40.1204
-36.6981	-42.8334	40.1301
-36.6972	-42.1448	40.1399
-36.6962	-38.975	40.1497
-36.6963	-37.976	40.1594
-36.695	-38.2659	40.1692
-36.6946	-42.6713	40.179
-36.6933	-43.5638	40.1887
-36.6936	-45.14	40.1985
-36.69228	-40.712	40.2083
-36.69128	-39.9451	40.218
-36.69022	-38.9411	40.2278
-36.6897	-40.9927	40.2375
-36.6878	-43.3334	40.2473
-36.68692	-42.2921	40.25708
-36.688	-43.8833	40.2668
-36.6865	-41.8282	40.2766
-36.685	-37.0979	40.2864
-36.6836	-39.4121	40.2961
-36.6844	-40.7097	40.3059
-36.6827	-45.2551	40.3157
-36.6824	-44.0743	40.3254
-36.6811	-38.7843	40.3352
-36.6803	-41.3955	40.345
-36.6784	-35.316	40.3547
-36.6791	-42.19083	40.3645
-36.6773	-42.7986	40.3743
-36.677	-44.491	40.384
-36.6775	-46.6388	40.3938
-36.6757	-38.8981	40.4036
-36.6742	-36.24337	40.41333
-36.6734	-38.7057	40.4231
-36.6726	-42.4136	40.4329
-36.6727	-45.1296	40.4426
-36.672	-41.7947	40.4524
-36.6697	-40.4602	40.4622
-36.66983	-36.7334	40.4719
-36.6688	-38.3161	40.4817
-36.6691	-39.8914	40.4915
-36.6678	-45.5927	40.5012
-36.6668	-45.8842	40.511
-36.6655	-42.7299	40.5208
-36.6646	-36.9069	40.5305