File: data/processed_data_files/tensile/0.254_solid_uprint_typeiv_090_r(1).dat
MTS793|BTW|ENU|1|2|.|/|:|1|0|0|A

Data Header:			0.254_solid_uprint_typeiv_090_r0			Time:	20.0183	s	4/14/2019 1:00:12 AM
Data Acquisition:	Timed
Station Name:	ft40.cfg
Test File Name:	monotonic_0.2540_typeiv_solid_090_uprint.tst
Displacement	Force	Running Time
mm	N	s
-40.0402	-223.298	0.0229492
-40.0414	-217.53	0.0424805
-40.0406	-220.085	0.0620117
-40.0395	-220.788	0.081543
-40.0377	-216.034	0.101074
-40.036	-213.396	0.120605
-40.0346	-222.69	0.140137
-40.0327	-212.47	0.159668
-40.0315	-210.141	0.179199
-40.0297	-215.747	0.19873
-40.0292	-212.97	0.218262
-40.0269	-206.092	0.237793
-40.026	-212.8558	0.257324
-40.0237	-208.179	0.276855
-40.0216	-206.922	0.296387
-40.0204	-206.708	0.315918
-40.0181	-206.586	0.335449
-40.0166	-199.902	0.35498
-40.0139	-206.553	0.374512
-40.0141	-206.173	0.394043
-40.0117	-200.693	0.413574
-40.0107	-199.732	0.433105
-40.0091	-203.014	0.452637
-40.0072	-200.777	0.472168
-40.0064	-195.585	0.491699
-40.00415	-197.636	0.51123
-40.00182	-197.111	0.530762
-40.0004	-192.399	0.550293
-39.99947	-193.274	0.569824
-39.9973	-197.7986	0.589355
-39.99609	-187.949	0.608887
-39.9939	-192.872	0.628418
-39.9937	-193.313	0.647949
-39.9907	-186.586	0.66748
-39.9889	-184.43	0.687012
-39.9873	-193.43	0.706543
-39.9858	-183.516	0.726074
-39.9842	-184.216	0.745605
-39.98288	-186.157	0.765137
-39.9804	-182.777	0.784668
-39.9798	-180.013	0.804199
-39.9785	-187.3084	0.82373
-39.9762	-180.421	0.843262
-39.9736	-175.723	0.862793
-39.9733	-178.173	0.882324
-39.9718	-179.745	0.901855
-39.9701	-173.235	0.921387
-39.968	-178.419	0.940918
-39.9667	-175.4006	0.960449
-39.9651	-172.231	0.97998
-39.9637	-169.772	0.999512
-39.9622	-172.25	1.019043
-39.9592	-169.644	1.03857
-39.9584	-169.6763	1.05811
-39.9576	-171.207	1.07764
-39.9553	-166.403	1.097168
-39.9547	-164.8792	1.1167
-39.951	-165.198	1.13623
-39.951	-168.231	1.15576
-39.9487	-161.907	1.175293
-39.9474	-164.051	1.19482
-39.9447	-162.518	1.21436
-39.9441	-158.311	1.23389
-39.9412	-158.209	1.253418
-39.94059	-164.437	1.27295
-39.93811	-154.289	1.29248
-39.9368	-155.796	1.31201
-39.9367	-157.948	1.331543
-39.9343	-152.842	1.35107
-39.9329	-148.561	1.37061
-39.9306	-158.5361	1.39014
-39.9288	-150.514	1.409668
-39.9287	-149.259	1.4292
-39.9249	-149.721	1.44873
-39.9244	-148.8299	1.46826
-39.9226	-144.798	1.487793
-39.9213	-151.364	1.50732
-39.9195	-145.685	1.52686
-39.9174	-141.8049	1.54639
-39.917	-142.644	1.565918
-39.915	-146.426	1.58545
-39.9121	-139.691	1.60498
-39.9112	-140.841	1.62451
-39.9088	-140.799	1.644043
-39.9089	-137.094	1.66357
-39.9061	-136.011	1.68311
-39.9043	-139.016	1.70264
-39.9027	-135.607	1.722168
-39.901	-132.915	1.7417
-39.8998	-136.3261	1.76123
-39.8984	-133.332	1.78076
-39.8963	-127.124	1.800293
-39.8934	-128.337	1.81982
-39.8925	-135.038	1.83936
-39.8915	-125.4555	1.85889
-39.8897	-126.965	1.878418
-39.887	-129.356	1.89795
-39.8872	-123.5863	1.91748
-39.885	-123.4881	1.93701
-39.8836	-128.831	1.956543
-39.8817	-119.292	1.97607
-39.8801	-120.389	1.99561
-39.8786	-123.178	2.01514
-39.8767	-120.6767	2.034668
-39.8759	-112.092	2.0542
-39.8728	-122.294	2.07373
-39.8731	-116.7363	2.09326
-39.871	-113.006	2.112793
-39.8705	-114.778	2.13232
-39.8674	-115.22	2.15186
-39.8656	-109.801	2.17139
-39.8641	-115.7936	2.190918
-39.8625	-113.265	2.21045
-39.8599	-105.3759	2.22998
-39.8596	-107.248	2.24951
-39.8579	-110.4	2.269043
-39.8564	-106.899	2.28857
-39.8541	-106.248	2.30811
-39.8526	-105.961	2.32764
-39.851	-104.969	2.347168
-39.8496	-101.715	2.3667
-39.847	-102.31	2.38623
-39.8467	-103.948	2.40576
-39.8449	-96.8121	2.425293
-39.843	-100.326	2.44482
-39.8406	-99.8603	2.46436
-39.8394	-94.1687	2.48389
-39.8379	-93.3943	2.503418
-39.8372	-102.351	2.52295
-39.83456	-91.1981	2.54248
-39.8334	-92.8786	2.56201
-39.8318	-93.3521	2.581543
-39.8295	-89.7208	2.60107
-39.8279	-87.6141	2.62061
-39.8258	-95.4001	2.64014
-39.8257	-85.6907	2.659668
-39.8233	-87.1845	2.6792
-39.82095	-87.6578	2.69873
-39.82016	-86.7816	2.71826
-39.8171	-78.9254	2.737793
-39.8164	-86.5024	2.75732
-39.8158	-83.4414	2.77686
-39.81374	-80.3069	2.79639
-39.8122	-80.4505	2.815918
-39.8097	-81.7105	2.83545
-39.8086	-77.0602	2.85498
-39.80669	-78.987	2.87451
-39.8048	-79.0218	2.894043
-39.8036	-73.1768	2.91357
-39.8019	-73.0347	2.93311
-39.8003	-76.4171	2.95264
-39.7994	-76.0963	2.972168
-39.7973	-70.3193	2.9917
-39.7961	-71.934	3.01123
-39.7934	-69.4194	3.03076
-39.79277	-66.4334	3.050293
-39.7918	-68.2072	3.06982
-39.7894	-69.9808	3.08936
-39.7873	-62.9925	3.10889
-39.7862	-65.9338	3.128418
-39.7845	-66.5832	3.14795
-39.78252	-59.5098	3.16748
-39.7815	-57.6908	3.18701
-39.77943	-66.7847	3.206543
-39.777	-59.3367	3.22607
-39.7763	-56.28487	3.24561
-39.776	-59.2581	3.26514
-39.7734	-55.2174	3.284668
-39.7705	-52.4406	3.3042
-39.7699	-59.1768	3.32373
-39.7685	-52.6882	3.34326
-39.7671	-50.2351	3.362793
-39.764	-52.29908	3.38232
-39.7628	-53.232	3.40186
-39.7614	-46.3723	3.42139
-39.75959	-51.6294	3.440918
-39.7576	-48.9338	3.46045
-39.7565	-45.9097	3.47998
-39.7548	-44.8924	3.49951
-39.7533	-46.2864	3.519043
-39.7512	-44.076	3.53857
-39.7504	-42.4807	3.55811
-39.7491	-46.1293	3.57764
-39.7468	-39.8888	3.597168
-39.7462	-36.0774	3.6167
-39.7432	-38.9672	3.63623
-39.742	-42.2207	3.65576
-39.74	-34.3015	3.675293
-39.73864	-37.8069	3.69482
-39.7364	-36.5783	3.71436
-39.7341	-31.7486	3.73389
-39.7338	-31.1129	3.753418
-39.7326	-37.6	3.77295
-39.7301	-28.8773	3.79248
-39.72929	-29.2876	3.81201
-39.7275	-32.367	3.831543
-39.7259	-26.57127	3.85107
-39.723	-21.6948	3.87061
-39.7221	-32.2971	3.89014
-39.72	-24.89098	3.909668
-39.7189	-23.61273	3.9292
-39.7175	-24.9045	3.94873
-39.7162	-22.0662	3.96826
-39.7145	-18.1132	3.987793
-39.7128	-25.78204	4.00732
-39.7115	-19.7795	4.02686
-39.709	-15.49	4.04639
-39.7068	-17.6316	4.065918
-39.7069	-19.3826	4.08545
-39.7046	-12.5942	4.10498
-39.7029	-14.2956	4.12451
-39.7016	-15.7047	4.144043
-39.7004	-11.9205	4.16357
-39.6982	-10.7138	4.18311
-39.6972	-12.9543	4.20264
-39.6955	-10.1853	4.222168
-39.6932	-8.76464	4.2417
-39.6906	-10.5864	4.26123
-39.6897	-6.84921	4.28076
-39.6881	-1.79423	4.300293
-39.6868	-5.79886	4.31982
-39.6872	-10.8611	4.33936
-39.684	0.643716	4.35889
-39.6822	-2.28031	4.378418
-39.681	-3.39947	4.39795
-39.6785	-0.241503	4.41748
-39.6769	2.80584	4.43701
-39.6751	-4.31374	4.456543
-39.674	5.86392	4.47607
-39.6716	6.54683	4.49561
-39.6706	2.88142	4.51514
-39.6682	6.22972	4.534668
-39.66729	12.6749	4.5542
-39.6649	4.13773	4.57373
-39.6626	9.30977	4.59326
-39.6621	12.091	4.612793
-39.6609	11.4408	4.63232
-39.659	11.15672	4.65186
-39.6568	15.2484	4.67139
-39.6563	10.61568	4.690918
-39.6535	11.0103	4.71045
-39.6513	18.7727	4.72998
-39.6509	17.0563	4.74951
-39.6488	13.58177	4.769043
-39.648	17.2172	4.78857
-39.6452	20.17421	4.80811
-39.6449	18.3212	4.82764
-39.6442	20.5452	4.847168
-39.6411	23.9816	4.8667
-39.6393	23.7109	4.88623
-39.6383	23.9777	4.90576
-39.63599	28.8441	4.925293
-39.6346	24.1603	4.94482
-39.6316	24.5635	4.96436
-39.6317	31.5127	4.98389
-39.6287	31.232	5.003418
-39.6283	24.1271	5.02295
-39.6272	34.3947	5.04248
-39.6244	33.398	5.06201
-39.62302	31.5679	5.081543
-39.622	35.6789	5.10107
-39.6206	38.3378	5.12061
-39.6199	30.5189	5.14014
-39.6171	39.2874	5.159668
-39.6162	41.5201	5.1792
-39.6153	36.3488	5.19873
-39.6119	38.811	5.21826
-39.61	44.9945	5.237793
-39.6082	38.0639	5.25732
-39.6074	40.8256	5.27686
-39.6051	46.0313	5.29639
-39.6028	44.8756	5.315918
-39.6013	44.7155	5.33545
-39.6002	47.6613	5.35498
-39.5986	44.756	5.37451
-39.5971	44.9465	5.394043
-39.5957	51.0586	5.41357
-39.5932	53.3665	5.43311
-39.5926	50.2275	5.45264
-39.5913	50.8094	5.472168
-39.5894	55.9713	5.4917
-39.5878	53.11554	5.51123
-39.5862	56.2433	5.53076
-39.58363	58.8444	5.550293
-39.583	56.8661	5.56982
-39.5801	53.788	5.58936
-39.579	62.3076	5.60889
-39.5769	59.4793	5.628418
-39.576	57.7376	5.64795
-39.574	65.126	5.66748
-39.5723	67.8977	5.68701
-39.5722	58.5993	5.706543
-39.5686	65.8452	5.72607
-39.5675	68.0904	5.74561
-39.566	64.9603	5.76514
-39.5642	66.967	5.784668
-39.56308	71.533	5.8042
-39.5612	64.5599	5.82373
-39.5606	70.5946	5.84326
-39.5584	75.86972	5.862793
-39.5578	72.4025	5.88232
-39.55463	72.595	5.90186
-39.5529	78.3562	5.92139
-39.5524	74.2509	5.940918
-39.5497	76.8536	5.96045
-39.549	78.0827	5.97998
-39.5461	79.0099	5.99951
-39.5457	78.3885	6.019043
-39.5437	82.1894	6.03857
-39.5414	81.9678	6.05811
-39.5414	79.4706	6.07764
-39.5393	83.8102	6.097168
-39.5377	87.8883	6.1167
-39.536	84.4713	6.13623
-39.53233	83.3272	6.15576
-39.5327	91.0335	6.175293
-39.5307	89.0886	6.19482
-39.5304	88.5333	6.21436
-39.5279	92.0623	6.23389
-39.5245	92.047	6.253418
-39.5243	86.9269	6.27295
-39.5225	97.5412	6.29248
-39.5207	95.0261	6.31201
-39.5195	91.9008	6.331543
-39.5171	98.2838	6.35107
-39.5164	101.78	6.37061
-39.5153	92.1088	6.39014
-39.5124	101.0246	6.409668
-39.5109	103.466	6.4292
-39.5087	99.9512	6.44873
-39.50716	102.294	6.46826
-39.5061	106.459	6.487793
-39.5042	99.0296	6.50732
-39.5028	104.856	6.52686
-39.5012	108.522	6.54639
-39.5008	107.197	6.565918
-39.4984	105.928	6.58545
-39.4969	110.1413	6.60498
-39.49435	110.13	6.62451
-39.4923	108.6	6.644043
-39.4921	112.455	6.66357
-39.4896	114.777	6.68311
-39.4873	112.665	6.70264
-39.4874	115.276	6.722168
-39.4844	118.358	6.7417
-39.4836	113.167	6.76123
-39.4829	117.226	6.78076
-39.4798	122.039	6.800293
-39.4782	119.558	6.81982
-39.4779	114.352	6.83936
-39.4759	125.099	6.85889
-39.4739	122.48	6.878418
-39.473	120.726	6.89795
-39.4693	127.4298	6.91748
-39.4686	127.599	6.93701
-39.4669	120.497	6.956543
-39.4645	129.672	6.97607
-39.4634	129.575	6.99561
-39.4623	126.626	7.01514
-39.4615	130.883	7.034668
-39.4599	136.579	7.0542
-39.4567	127.688	7.07373
-39.4554	131.913	7.09326
-39.4543	137.366	7.112793
-39.4517	136.174	7.13232
-39.4507	136.933	7.15186
-39.44976	138.5762	7.17139
-39.4467	134.114	7.190918
-39.4454	135.456	7.21045
-39.4437	143.188	7.22998
-39.44294	142.591	7.24951
-39.4421	137.715	7.269043
-39.4389	141.861	7.28857
-39.438	145.5	7.30811
-39.4365	142.061	7.32764
-39.435	143.879	7.347168
-39.4333	148.908	7.3667
-39.4317	148.799	7.38623
-39.4293	144.621	7.40576
-39.4287	152.398	7.425293
-39.4259	148.3887	7.44482
-39.425	151.422	7.46436
-39.4229	156.303	7.48389
-39.4209	153.8867	7.503418
-39.4209	146.879	7.52295
-39.4186	158.758	7.54248
-39.4163	158.41	7.56201
-39.4136	154.2823	7.581543
-39.4126	158.975	7.60107
-39.4121	161.271	7.62061
-39.4099	153.788	7.64014
-39.409	162.131	7.659668
-39.40704	164.9063	7.6792
-39.4058	160.28	7.69873
-39.404	162.062	7.71826
-39.4023	166.937	7.737793
-39.3998	160.921	7.75732
-39.3991	162.816	7.77686
-39.3964	168.939	7.79639
-39.3958	169.1	7.815918
-39.3944	166.965	7.83545
-39.3921	170.286	7.85498
-39.3909	168.147	7.87451
-39.3885	168.028	7.894043
-39.3867	174.225	7.91357
-39.3849	175.9	7.93311
-39.384	171.794	7.95264
-39.3827	171.649	7.972168
-39.3807	178.845	7.9917
-39.3803	174.608	8.01123
-39.3776	176.656	8.03076
-39.3777	180.663	8.050293
-39.3743	179.837	8.06982
-39.373	175.982	8.08936
-39.3713	184.628	8.10889
-39.3688	182.115	8.128418
-39.3674	181.516	8.14795
-39.3672	187.464	8.16748
-39.3646	188.2175	8.18701
-39.3641	180.132	8.206543
-39.3614	189.263	8.22607
-39.3602	190.125	8.24561
-39.3585	186.727	8.26514
-39.3572	190.373	8.284668
-39.3549	194.318	8.3042
-39.3527	187.104	8.32373
-39.3509	193.806	8.34326
-39.3505	196.838	8.362793
-39.3481	193.102	8.38232
-39.34594	192.52	8.40186
-39.3446	198.168	8.42139
-39.344	195.957	8.440918
-39.342	196.0332	8.46045
-39.3399	201.098	8.47998
-39.33926	200.406	8.49951
-39.3376	199.621	8.519043
-39.3368	201.423	8.53857
-39.3343	203.875	8.55811
-39.3322	200.073	8.57764
-39.3296	205.735	8.597168
-39.3283	208.358	8.6167
-39.32777	204.2195	8.63623
-39.3268	201.346	8.65576
-39.3249	212.7197	8.675293
-39.3227	207.237	8.69482
-39.3213	207.605	8.71436
-39.3198	214.306	8.73389
-39.3175	214.002	8.753418
-39.3156	208.35	8.77295
-39.3143	217.374	8.79248
-39.313	214.712	8.81201
-39.3097	211.825	8.831543
-39.3101	219.126	8.85107
-39.3069	220.494	8.87061
-39.3068	212.5	8.89014
-39.3042	219.18	8.909668
-39.30357	222.039	8.9292
-39.3004	218.914	8.94873
-39.2988	221.158	8.96826
-39.29818	224.955	8.987793
-39.2952	220.851	9.00732
-39.29464	224.464	9.02686
-39.29314	229.529	9.04639
-39.2912	226.357	9.065918
-39.2898	225.4855	9.08545
-39.2879	228.685	9.10498
-39.2868	230.706	9.12451
-39.2852	226.824	9.144043
-39.2831	231.661	9.16357
-39.2808	233.847	9.18311
-39.28072	231.454	9.20264
-39.2783	232.584	9.222168
-39.2762	238.21	9.2417
-39.2744	232.475	9.26123
-39.2736	235.996	9.28076
-39.272	241.333	9.300293
-39.2707	239.311	9.31982
-39.2686	233.543	9.33936
-39.2663	244.719	9.35889
-39.2648	241.273	9.378418
-39.2633	239.364	9.39795
-39.26199	244.303	9.41748
-39.26075	245.031	9.43701
-39.2571	238.372	9.456543
-39.2574	247.944	9.47607
-39.2558	247.867	9.49561
-39.25338	243.092	9.51514
-39.2524	248.2027	9.534668
-39.2507	253.581	9.5542
-39.2492	244.934	9.57373
-39.2475	248.74	9.59326
-39.24551	255.112	9.612793
-39.2447	252.611	9.63232
-39.2429	252.983	9.65186
-39.241	256.328	9.67139
-39.2393	253.081	9.690918
-39.2373	254.1427	9.71045
-39.2351	260.07	9.72998
-39.2345	258.633	9.74951
-39.2325	255.359	9.769043
-39.2317	259.072	9.78857
-39.22945	263.086	9.80811
-39.2277	259.953	9.82764
-39.2269	262.5224	9.847168
-39.2239	267.407	9.8667
-39.22327	263.824	9.88623
-39.2214	261.361	9.90576
-39.21986	270.471	9.925293
-39.2183	263.896	9.94482
-39.2166	266.3299	9.96436
-39.2151	273.321	9.98389
-39.2126	271.21	10.0034
-39.2111	263.576	10.0229
-39.2103	274.673	10.04248
-39.2079	273.952	10.062
-39.2082	270.634	10.0815
-39.2053	275.839	10.1011
-39.204	278.568	10.1206
-39.20097	270.671	10.1401
-39.2004	277.876	10.1597
-39.1986	280.532	10.1792
-39.1985	275.602	10.19873
-39.1953	278.935	10.2183
-39.1936	282.836	10.2378
-39.1925	277.37	10.2573
-39.1909	278.958	10.2769
-39.1889	285.913	10.2964
-39.1871	284.0242	10.3159
-39.1854	283.268	10.3354
-39.1841	284.302	10.35498
-39.18248	286.341	10.3745
-39.1794	285.141	10.394
-39.1785	290.108	10.4136
-39.1762	290.953	10.4331
-39.1755	287.22	10.4526
-39.1738	287.318	10.4722
-39.1733	295.411	10.4917
-39.1706	289.332	10.51123
-39.1702	292.428	10.5308
-39.1675	297.8111	10.5503
-39.1657	295.006	10.5698
-39.165	290.235	10.5894
-39.1631	301.317	10.6089
-39.1613	294.889	10.6284
-39.1598	296.058	10.6479
-39.1579	301.867	10.66748
-39.1565	303.422	10.687
-39.1554	293.466	10.7065
-39.1532	303.941	10.7261
-39.1508	304.652	10.7456
-39.1491	300.6337	10.7651
-39.1493	303.584	10.7847
-39.1466	307.605	10.8042
-39.1451	300.251	10.82373
-39.1427	306.09	10.8433
-39.1422	310.78	10.8628
-39.1394	306.309	10.8823
-39.139	306.555	10.9019
-39.1369	313.465	10.9214
-39.1347	308.8063	10.9409
-39.1323	306.793	10.9604
-39.1317	313.25	10.97998
-39.1301	314.861	10.9995
-39.1298	311.947	11.019
-39.1274	313.06	11.0386
-39.1257	318.642	11.0581
-39.12368	313.1893	11.0776
-39.12162	319.712	11.0972
-39.12	321.9537	11.1167
-39.11829	318.195	11.13623
-39.1169	315.876	11.1558
-39.1153	325.363	11.1753
-39.1135	318.09	11.1948
-39.1123	320.369	11.2144
-39.1104	324.349	11.2339
-39.1093	323.904	11.2534
-39.1079	318.525	11.2729
-39.1053	329.296	11.29248
-39.1045	325.643	11.312
-39.1022	323.214	11.3315
-39.1	328.903	11.3511
-39.10004	332.1254	11.3706
-39.098	323.302	11.3901
-39.0965	330.1983	11.4097
-39.0947	335.308	11.4292
-39.09235	331.193	11.44873
-39.0915	331.929	11.4683
-39.09016	334.88	11.4878
-39.0875	330.213	11.5073
-39.0873	332.3782	11.5269
-39.0846	339.985	11.5464
-39.08411	336.862	11.5659
-39.0821	335.4371	11.5854
-39.0804	340.203	11.60498
-39.0785	342.015	11.6245
-39.077	336.197	11.644
-39.0753	342.175	11.6636
-39.0726	344.957	11.6831
-39.072	341.381	11.7026
-39.0699	340.738	11.7222
-39.0687	347.354	11.7417
-39.0666	342.022	11.76123
-39.0653	344.308	11.7808
-39.0629	349.814	11.8003
-39.063	346.041	11.8198
-39.05946	341.804	11.8394
-39.0593	353.474	11.8589
-39.0578	350.2485	11.8784
-39.0555	347.9938	11.8979
-39.0539	352.729	11.91748
-39.0521	352.997	11.937
-39.0505	346.4064	11.9565
-39.0489	356.7908	11.9761
-39.04731	355.7131	11.9956
-39.0464	350.819	12.0151
-39.0442	355.647	12.0347
-39.0419	359.161	12.0542
-39.0405	351.267	12.07373
-39.0386	356.858	12.0933
-39.0368	362.008	12.1128
-39.0361	357.741	12.1323
-39.0347	357.417	12.1519
-39.0338	361.5625	12.1714
-39.0304	358.052	12.1909
-39.0296	359.282	12.2104
-39.028	365.714	12.22998
-39.0258	363.725	12.2495
-39.0255	361.378	12.269
-39.02396	364.837	12.2886
-39.0216	368.769	12.3081
-39.019	362.621	12.3276
-39.0179	368.043	12.3472
-39.0164	371.194	12.3667
-39.0155	367.804	12.38623
-39.0117	364.206	12.4058
-39.0111	373.54	12.4253
-39.0094	368.018	12.4448
-39.00935	369.355	12.4644
-39.0062	375.124	12.4839
-39.0055	373.542	12.5034
-39.004	366.659	12.5229
-39.002	378.691	12.54248
-39.0004	376.4	12.562
-38.9991	372.931	12.5815
-38.9962	377.278	12.6011
-38.9943	379.333	12.6206
-38.9932	372.584	12.6401
-38.9917	380.85	12.6597
-38.9906	381.979	12.6792
-38.9881	377.934	12.69873
-38.9859	379.61	12.7183
-38.9855	385.563	12.7378
-38.9829	378.964	12.7573
-38.9823	378.546	12.7769
-38.9807	386.65	12.7964
-38.97781	384.964	12.8159
-38.9775	384.1748	12.8354
-38.97612	384.65	12.85498
-38.9742	386.0506	12.8745
-38.9725	382.464	12.894
-38.9713	391.533	12.9136
-38.9689	389.531	12.9331
-38.9668	387.062	12.9526
-38.9658	385.814	12.9722
-38.9648	395.448	12.9917
-38.9631	387.781	13.01123
-38.9617	390.19	13.0308
-38.9601	396.709	13.0503
-38.95742	392.319	13.0698
-38.9556	387.5	13.0894
-38.9541	399.077	13.1089
-38.9533	393.862	13.1284
-38.9515	393.383	13.1479
-38.9502	399.94	13.16748
-38.94759	398.75	13.187
-38.9471	389.575	13.2065
-38.94455	401.125	13.2261
-38.9436	401.449	13.2456
-38.94067	397.934	13.2651
-38.9402	400.193	13.2847
-38.9383	401.783	13.3042
-38.9365	396.727	13.32373
-38.9348	401.945	13.3433
-38.9329	405.436	13.3628
-38.9315	402.271	13.3823
-38.931	402.432	13.4019
-38.9279	406.7	13.4214
-38.9262	404.501	13.4409
-38.9255	402.3175	13.4604
-38.92395	410.375	13.47998
-38.922	409.661	13.4995
-38.9189	406.533	13.519
-38.9185	405.02	13.5386
-38.9172	412.14	13.5581
-38.9145	406.621	13.5776
-38.915	412.382	13.5972
-38.9126	415.257	13.6167
-38.9102	410.414	13.63623
-38.9094	407.8	13.6558
-38.9073	418.546	13.6753
-38.9057	411.699	13.6948
-38.9039	412.71	13.7144
-38.9021	416.785	13.7339
-38.9016	415.759	13.7534
-38.9	410.314	13.7729
-38.8969	420.487	13.79248
-38.8951	417.114	13.812
-38.8948	415.972	13.8315
-38.8928	421.411	13.8511
-38.8905	421.07	13.8706
-38.8894	412.186	13.8901
-38.8878	420.84	13.9097
-38.88583	424.101	13.9292
-38.8845	418.998	13.94873
-38.8827	420.321	13.9683
-38.8802	424.204	13.9878
-38.8788	421.2843	14.0073
-38.8781	421.626	14.0269
-38.8762	427.736	14.0464
-38.8757	423.037	14.0659
-38.8732	422.944	14.0854
-38.8708	425.2872	14.10498
-38.869	428.248	14.1245
-38.8693	421.878	14.144
-38.8657	427.639	14.1636
-38.8649	429.796	14.1831
-38.8628	427.053	14.2026
-38.8616	425.536	14.2222
-38.8597	432.268	14.2417
-38.8583	426.4617	14.26123
-38.8565	430.758	14.2808
-38.855	434.929	14.3003
-38.8527	430.379	14.3198
-38.8527	426.131	14.3394
-38.8499	438.152	14.3589
-38.8495	431.451	14.3784
-38.8477	428.9151	14.3979
-38.8455	435.474	14.41748
-38.84396	435.359	14.437
-38.843	427.008	14.4565
-38.8421	437.128	14.4761
-38.8395	435.9274	14.4956
-38.8374	432.388	14.5151
-38.8359	437.005	14.5347
-38.8344	439.254	14.5542
-38.8331	431.217	14.57373
-38.8304	434.971	14.5933
-38.82888	441.515	14.6128
-38.8281	436.666	14.6323
-38.8252	435.591	14.6519
-38.8246	437.634	14.6714
-38.8231	437.894	14.6909
-38.8207	437.052	14.7104
-38.8191	442.088	14.72998
-38.8182	439.307	14.7495
-38.817	437.392	14.769
-38.8137	440.718	14.7886
-38.8129	444.968	14.8081
-38.8115	437.205	14.8276
-38.8091	442.674	14.8472
-38.8083	445.194	14.8667
-38.806	441.15	14.88623
-38.8038	438.611	14.9058
-38.8023	447.702	14.9253
-38.8013	441.92	14.9448
-38.8004	441.2178	14.9644
-38.79937	449.204	14.9839
-38.7965	443.867	15.0034
-38.7955	437.463	15.0229
-38.7939	449.183	15.04248
-38.7917	447.991	15.062
-38.7894	443.517	15.0815
-38.7882	447.709	15.1011
-38.78698	449.129	15.1206
-38.7849	441.518	15.1401
-38.7837	447.283	15.1597
-38.782	451.416	15.1792
-38.7802	445.168	15.19873
-38.7795	448.261	15.2183
-38.7766	450.8313	15.2378
-38.7761	445.605	15.2573
-38.7742	444.555	15.2769
-38.7719	452.983	15.2964
-38.7718	449.496	15.3159
-38.7685	447.947	15.3354
-38.768	449.703	15.35498
-38.7649	453.109	15.3745
-38.7634	446.9696	15.394
-38.76305	453.9212	15.4136
-38.7602	452.955	15.4331
-38.7598	448.851	15.4526
-38.7575	448.482	15.4722
-38.7555	458.226	15.4917
-38.7543	449.099	15.51123
-38.7527	451.38	15.5308
-38.7507	456.219	15.5503
-38.74894	452.89	15.5698
-38.749	447.78	15.5894
-38.7467	457.078	15.6089
-38.7439	452.221	15.6284
-38.7415	451.227	15.6479
-38.741	456.923	15.66748
-38.7402	455.007	15.687
-38.738	445.275	15.7065
-38.7363	455.3476	15.7261
-38.7354	457.03	15.7456
-38.7339	450.922	15.7651
-38.7313	454.3736	15.7847
-38.7305	456.704	15.8042
-38.7283	450.392	15.82373
-38.7259	453.427	15.8433
-38.72504	457.989	15.8628
-38.7234	452.445	15.8823
-38.7231	452.27	15.9019
-38.7212	457.669	15.9214
-38.7176	453.671	15.9409
-38.7169	451.757	15.9604
-38.7158	458.518	15.97998
-38.7147	457.622	15.9995
-38.7126	453.957	16.019
-38.7104	453.894	16.0386
-38.7086	457.786	16.0581
-38.7076	452.398	16.0776
-38.7053	458.025	16.0972
-38.7042	460.654	16.1167
-38.7016	455.431	16.13623
-38.7004	450.734	16.1558
-38.6991	462.772	16.1753
-38.6977	455.469	16.1948
-38.6954	453.966	16.2144
-38.6952	460.033	16.2339
-38.6917	456.975	16.2534
-38.6913	452.335	16.2729
-38.6894	461.86	16.29248
-38.6878	456.102	16.312
-38.6859	452.7373	16.3315
-38.6844	458.641	16.3511
-38.683	458.797	16.3706
-38.6814	450.721	16.3901
-38.6794	455.755	16.4097
-38.6775	462.1	16.4292
-38.6772	455.239	16.44873
-38.6745	458.695	16.4683
-38.6719	459.78	16.4878
-38.6711	455.5062	16.5073
-38.6702	454.376	16.5269
-38.66851	460.92	16.5464
-38.667	456.859	16.5659
-38.6641	456.13	16.5854
-38.6637	457.496	16.60498
-38.6631	459.064	16.6245
-38.6594	452.406	16.644
-38.658	458.436	16.6636
-38.657	462.407	16.6831
-38.6557	456.874	16.7026
-38.6537	454.906	16.7222
-38.6527	461.322	16.7417
-38.6504	455.267	16.76123
-38.6474	457.984	16.7808
-38.6476	462.319	16.8003
-38.6453	456.772	16.8198
-38.6444	451.124	16.8394
-38.6429	462.855	16.8589
-38.6407	456.852	16.8784
-38.6394	454.094	16.8979
-38.637	459.988	16.91748
-38.6353	460.107	16.937
-38.63335	451.508	16.9565
-38.632	459.206	16.9761
-38.6313	460.127	16.9956
-38.6298	454.511	17.0151
-38.6282	458.399	17.0347
-38.6256	460.402	17.0542
-38.6241	452.467	17.07373
-38.6221	453.967	17.0933
-38.6205	460.616	17.1128
-38.6204	457.373	17.1323
-38.6174	455.193	17.1519
-38.616	456.971	17.1714
-38.6137	456.883	17.1909
-38.61348	454.233	17.2104
-38.6118	459.985	17.22998
-38.6093	457.964	17.2495
-38.6087	455.1015	17.269
-38.6067	455.819	17.2886
-38.6048	461.213	17.3081
-38.6025	453.287	17.3276
-38.6017	457.793	17.3472
-38.5998	461.14	17.3667
-38.5977	457.58	17.38623
-38.59676	452.599	17.4058
-38.5952	461.348	17.4253
-38.594	454.756	17.4448
-38.5912	456.086	17.4644
-38.59	461.615	17.4839
-38.5877	456.85	17.5034
-38.5864	449.114	17.5229
-38.5849	459.589	17.54248
-38.5826	457.645	17.562
-38.5818	454.306	17.5815
-38.5793	457.078	17.6011
-38.5792	456.664	17.6206
-38.5774	450.919	17.6401
-38.5752	455.657	17.6597
-38.574	458.186	17.6792
-38.571	452.102	17.69873
-38.5706	455.333	17.7183
-38.568	458.178	17.7378
-38.56744	452.585	17.7573
-38.5649	450.934	17.7769
-38.5628	458.151	17.7964
-38.5611	456.089	17.8159
-38.56126	452.984	17.8354
-38.5592	453.231	17.85498
-38.5562	456.493	17.8745
-38.5554	450.163	17.894
-38.555	457.4425	17.9136
-38.5521	458.358	17.9331
-38.551	450.857	17.9526
-38.549	452.946	17.9722
-38.5467	459.416	17.9917
-38.5469	451.308	18.01123
-38.5455	453.086	18.0308
-38.5435	457.9082	18.0503
-38.5412	453.83	18.0698
-38.539	448.296	18.0894
-38.5366	458.909	18.1089
-38.5353	453.116	18.1284
-38.5344	450.208	18.1479
-38.5334	457.1972	18.16748
-38.53146	453.239	18.187
-38.5294	445.8851	18.2065
-38.5284	455.806	18.2261
-38.5265	456.044	18.2456
-38.5245	448.603	18.2651
-38.5238	452.064	18.2847
-38.5219	453.547	18.3042
-38.5201	448.736	18.32373
-38.5169	451.682	18.3433
-38.5177	455.668	18.3628
-38.5156	449.407	18.3823
-38.513	451.4491	18.4019
-38.5111	452.552	18.4214
-38.5107	451.749	18.4409
-38.50882	446.445	18.4604
-38.5076	453.938	18.47998
-38.5049	453.062	18.4995
-38.50309	450.139	18.519
-38.5024	448.173	18.5386
-38.502	453.597	18.5581
-38.4991	446.5687	18.5776
-38.4971	452.399	18.5972
-38.4958	453.263	18.6167
-38.4951	448.461	18.63623
-38.4912	446.371	18.6558
-38.4908	456.499	18.6753
-38.4891	448.087	18.6948
-38.4878	446.52	18.7144
-38.4848	454.273	18.7339
-38.4835	450.0141	18.7534
-38.4828	443.329	18.7729
-38.48	452.7565	18.79248
-38.4796	448.731	18.812
-38.4777	444.732	18.8315
-38.4754	452.515	18.8511
-38.4739	449.966	18.8706
-38.4733	442.336	18.8901
-38.4714	448.746	18.9097
-38.4691	453.643	18.9292
-38.4687	446.934	18.94873
-38.4667	448.289	18.9683
-38.465	449.8754	18.9878
-38.4634	445.691	19.0073
-38.4625	445.151	19.0269
-38.4603	450.548	19.0464
-38.458	447.378	19.0659
-38.4563	445.204	19.0854
-38.4556	448.009	19.10498
-38.4539	450.348	19.1245
-38.4513	442.269	19.144
-38.45	450.281	19.1636
-38.4473	451.129	19.1831
-38.4465	445.27	19.2026
-38.4456	443.264	19.2222
-38.4436	451.2887	19.2417
-38.4425	443.563	19.26123
-38.4407	447.158	19.2808
-38.4393	451.978	19.3003
-38.4376	445.925	19.3198
-38.4361	441.273	19.3394
-38.4334	451.533	19.3589
-38.4317	446.49	19.3784
-38.4299	442.362	19.3979
-38.4279	449.663	19.41748
-38.4265	447.695	19.437
-38.4257	440.885	19.4565
-38.4237	447.826	19.4761
-38.4219	449.6243	19.4956
-38.4201	443.298	19.5151
-38.4192	447.2645	19.5347
-38.418	448.816	19.5542
-38.4166	440.735	19.57373
-38.41465	443.391	19.5933
-38.4121	451.178	19.6128
-38.41114	446.426	19.6323
-38.4095	444.487	19.6519
-38.4073	445.895	19.6714
-38.4058	446.821	19.6909
-38.4052	442.692	19.7104
-38.4036	449.339	19.72998
-38.4011	445.78	19.7495
-38.3997	442.873	19.769
-38.3978	444.6449	19.7886
-38.3965	450.329	19.8081
-38.3942	441.4444	19.8276
-38.3929	446.278	19.8472
-38.3918	448.4978	19.8667
-38.3901	444.474	19.88623
-38.38871	438.961	19.9058
-38.3862	447.844	19.9253
-38.3844	441.459	19.9448
-38.38356	444.682	19.9644
-38.382	448.175	19.9839
-38.381	443.312	20.0034
-38.3786	443.863	20.0132

Data Header:			0.254_solid_uprint_typeiv_090_r0			Time:	34.844	s	4/14/2019 1:00:26 AM
Data Acquisition:	Timed
Station Name:	ft40.cfg
Test File Name:	monotonic_0.2540_typeiv_solid_090_uprint.tst
Displacement	Force	Running Time
mm	N	s
-38.3784	438.808	20.0229
-38.3759	450.14	20.04248
-38.3749	447.3222	20.062
-38.3745	440.144	20.0815
-38.372	447.027	20.1011
-38.36948	445.716	20.1206
-38.3682	439.578	20.1401
-38.3671	442.76	20.1597
-38.3659	448.664	20.1792
-38.3642	440.826	20.19873
-38.362	444.25	20.2183
-38.3601	446.598	20.2378
-38.35878	441.081	20.2573
-38.3583	440.753	20.2769
-38.355	447.1564	20.2964
-38.3543	445.717	20.3159
-38.35289	440.573	20.3354
-38.3508	443.073	20.35498
-38.3503	445.274	20.3745
-38.3469	439.48	20.394
-38.3454	445.469	20.4136
-38.3447	445.59	20.4331
-38.3429	440.665	20.4526
-38.34182	440.952	20.4722
-38.3397	449.427	20.4917
-38.3377	437.9798	20.51123
-38.3362	441.755	20.5308
-38.3344	446.877	20.5503
-38.3327	442.623	20.5698
-38.3311	437.257	20.5894
-38.3293	446.278	20.6089
-38.329	440.554	20.6284
-38.3261	439.575	20.6479
-38.3247	446.609	20.66748
-38.3232	442.277	20.687
-38.3216	435.66	20.7065
-38.3192	442.15	20.7261
-38.3172	446.533	20.7456
-38.3166	438.085	20.7651
-38.3154	442.245	20.7847
-38.31287	442.493	20.8042
-38.3112	439.33	20.82373
-38.3098	438.942	20.8433
-38.30814	445.597	20.8628
-38.3075	440.713	20.8823
-38.305	439.696	20.9019
-38.3039	443.577	20.9214
-38.3024	443.362	20.9409
-38.3004	437.669	20.9604
-38.2988	446.245	20.97998
-38.2984	445.372	20.9995
-38.2955	440.248	21.019
-38.2939	440.792	21.0386
-38.2918	445.934	21.0581
-38.2892	438.505	21.0776
-38.2884	442.398	21.0972
-38.2876	445.953	21.1167
-38.2851	439.838	21.13623
-38.2841	438.751	21.1558
-38.2825	446.134	21.1753
-38.2809	438.722	21.1948
-38.2791	438.862	21.2144
-38.2777	444.89	21.2339
-38.2756	441.099	21.2534
-38.2747	435.735	21.2729
-38.2719	443.782	21.29248
-38.2717	441.553	21.312
-38.26944	437.514	21.3315
-38.2677	445.213	21.3511
-38.26527	441.1582	21.3706
-38.2649	435.574	21.3901
-38.263	439.322	21.4097
-38.2614	445.88	21.4292
-38.2591	438.395	21.44873
-38.2583	440.212	21.4683
-38.2567	443.248	21.4878
-38.2542	441.308	21.5073
-38.2528	437.44	21.5269
-38.2506	445.588	21.5464
-38.2498	441.659	21.5659
-38.2482	439.872	21.5854
-38.2459	439.958	21.60498
-38.2451	444.454	21.6245
-38.2436	435.893	21.644
-38.24229	441.791	21.6636
-38.2405	443.8519	21.6831
-38.2376	438.844	21.7026
-38.236	435.293	21.7222
-38.2351	445.944	21.7417
-38.2331	436.262	21.76123
-38.2326	438.217	21.7808
-38.2297	444.6543	21.8003
-38.229	439.349	21.8198
-38.2272	434.927	21.8394
-38.2252	443.252	21.8589
-38.2241	441.092	21.8784
-38.2216	436.32	21.8979
-38.2201	443.445	21.91748
-38.2195	441.124	21.937
-38.2171	434.7399	21.9565
-38.216	441.057	21.9761
-38.21463	444.073	21.9956
-38.2121	437.672	22.0151
-38.2108	442.398	22.0347
-38.2088	441.063	22.0542
-38.2082	436.258	22.07373
-38.20607	437.7908	22.0933
-38.2043	445.383	22.1128
-38.20285	438.372	22.1323
-38.2013	437.19	22.1519
-38.2	441.27	22.1714
-38.1984	441.394	22.1909
-38.1965	435.947	22.2104
-38.1943	442.915	22.22998
-38.1926	441.068	22.2495
-38.1909	437.27	22.269
-38.1908	438.342	22.2886
-38.1882	443.1575	22.3081
-38.1873	433.289	22.3276
-38.1852	441.151	22.3472
-38.1835	445.009	22.3667
-38.1815	438.443	22.38623
-38.1799	435.525	22.4058
-38.1788	442.965	22.4253
-38.1763	438.463	22.4448
-38.175	437.45	22.4644
-38.1728	443.192	22.4839
-38.172	438.147	22.5034
-38.1709	433.293	22.5229
-38.1684	442.088	22.54248
-38.1669	441.779	22.562
-38.1651	434.545	22.5815
-38.1636	441.252	22.6011
-38.1616	441.555	22.6206
-38.1606	435.657	22.6401
-38.1593	439.447	22.6597
-38.1579	441.571	22.6792
-38.1553	437.199	22.69873
-38.1538	440.571	22.7183
-38.15234	438.431	22.7378
-38.1501	438.145	22.7573
-38.1491	435.141	22.7769
-38.1461	443.908	22.7964
-38.1456	441.043	22.8159
-38.1442	436.504	22.8354
-38.1431	437.316	22.85498
-38.1411	441.296	22.8745
-38.14	435.774	22.894
-38.1373	441.05	22.9136
-38.1357	443.072	22.9331
-38.1342	436.906	22.9526
-38.1317	436.168	22.9722
-38.1309	444.029	22.9917
-38.1287	435.707	23.01123
-38.1292	436.605	23.0308
-38.1259	444.037	23.0503
-38.1241	438.117	23.0698
-38.1234	432.39	23.0894
-38.1211	442.544	23.1089
-38.1199	438.692	23.1284
-38.1171	436.474	23.1479
-38.1174	442.1073	23.16748
-38.1145	438.513	23.187
-38.1138	433.1073	23.2065
-38.1116	439.472	23.2261
-38.1099	441.272	23.2456
-38.1091	433.83	23.2651
-38.1064	438.781	23.2847
-38.1049	439.343	23.3042
-38.104	437.13	23.32373
-38.1024	435.675	23.3433
-38.1008	442.845	23.3628
-38.0988	437.242	23.3823
-38.097	438.109	23.4019
-38.09404	438.945	23.4214
-38.0933	439.639	23.4409
-38.0919	432.264	23.4604
-38.0891	441.158	23.47998
-38.0878	440.527	23.4995
-38.088	434.397	23.519
-38.0847	434.784	23.5386
-38.0829	442.137	23.5581
-38.08202	435.554	23.5776
-38.0803	438.34	23.5972
-38.0784	440.94	23.6167
-38.0777	435.332	23.63623
-38.0764	436.134	23.6558
-38.0745	442.144	23.6753
-38.07243	436.736	23.6948
-38.0702	433.0267	23.7144
-38.0688	443.127	23.7339
-38.0676	437.613	23.7534
-38.0657	433.67	23.7729
-38.0652	439.974	23.79248
-38.0612	440.0015	23.812
-38.0617	434.703	23.8315
-38.0598	441.678	23.8511
-38.0586	440.018	23.8706
-38.0556	435.199	23.8901
-38.0546	436.789	23.9097
-38.0536	442.838	23.9292
-38.0514	435.01	23.94873
-38.0497	439.336	23.9683
-38.0478	439.006	23.9878
-38.0462	438.056	24.0073
-38.0443	434.268	24.0269
-38.0432	440.564	24.0464
-38.0414	438.837	24.0659
-38.0399	436.221	24.0854
-38.0386	436.88	24.10498
-38.0366	440.2153	24.1245
-38.0367	434.197	24.144
-38.0323	440.93	24.1636
-38.0324	442.17	24.1831
-38.0291	434.161	24.2026
-38.0285	434.47	24.2222
-38.0267	443.087	24.2417
-38.0246	434.746	24.26123
-38.0233	438.647	24.2808
-38.0204	443.1387	24.3003
-38.0215	434.173	24.3198
-38.0185	434.4534	24.3394
-38.0177	442.449	24.3589
-38.0149	438.048	24.3784
-38.0134	434.708	24.3979
-38.0116	441.445	24.41748
-38.0108	438.2103	24.437
-38.009	432.822	24.4565
-38.0075	438.175	24.4761
-38.0063	442.079	24.4956
-38.0038	435.843	24.5151
-38.0037	438.774	24.5347
-38.0016	438.513	24.5542
-37.9993	435.659	24.57373
-37.9968	436.325	24.5933
-37.99699	442.386	24.6128
-37.9933	435.979	24.6323
-37.9935	435.633	24.6519
-37.9908	436.893	24.6714
-37.9907	439.418	24.6909
-37.9881	434.416	24.7104
-37.98708	439.872	24.72998
-37.9849	439.144	24.7495
-37.9833	436.016	24.769
-37.9815	436.809	24.7886
-37.9798	442.018	24.8081
-37.9779	432.968	24.8276
-37.9757	436.848	24.8472
-37.9747	443.675	24.8667
-37.9726	435.025	24.88623
-37.9709	432.453	24.9058
-37.9712	441.0712	24.9253
-37.9673	436.183	24.9448
-37.9666	434.2717	24.9644
-37.9656	442.294	24.9839
-37.964	435.638	25.0034
-37.9626	433.5448	25.0229
-37.9603	439.687	25.04248
-37.9585	439.93	25.062
-37.957	432.644	25.0815
-37.9549	439.064	25.1011
-37.953	437.996	25.1206
-37.9521	434.43	25.1401
-37.951	436.525	25.1597
-37.9491	441.171	25.1792
-37.9468	435.0777	25.19873
-37.9456	437.075	25.2183
-37.9446	438.241	25.2378
-37.94318	437.945	25.2573
-37.9403	434.637	25.2769
-37.9393	441.071	25.2964
-37.9372	436.069	25.3159
-37.936	433.774	25.3354
-37.935	436.476	25.35498
-37.9333	441.494	25.3745
-37.9303	433.4657	25.394
-37.9297	437.684	25.4136
-37.9278	438.702	25.4331
-37.9264	433.879	25.4526
-37.9242	435.336	25.4722
-37.9221	442.259	25.4917
-37.9212	433.819	25.51123
-37.919	435.096	25.5308
-37.9182	444.003	25.5503
-37.91573	435.436	25.5698
-37.9138	432.401	25.5894
-37.91206	440.259	25.6089
-37.912	437.762	25.6284
-37.9099	433.559	25.6479
-37.9088	439.667	25.66748
-37.9059	435.819	25.687
-37.905	434.688	25.7065
-37.9025	438.43	25.7261
-37.9013	439.9653	25.7456
-37.9006	430.796	25.7651
-37.8988	437.785	25.7847
-37.8963	437.952	25.8042
-37.89465	436.37	25.82373
-37.8933	434.626	25.8433
-37.8919	439.707	25.8628
-37.8901	436.974	25.8823
-37.8884	436.524	25.9019
-37.88636	436.397	25.9214
-37.8852	435.977	25.9409
-37.8847	431.632	25.9604
-37.8829	440.001	25.97998
-37.8797	438.198	25.9995
-37.8791	432.088	26.019
-37.87756	435.318	26.0386
-37.8756	440.934	26.0581
-37.8746	432.082	26.0776
-37.8713	435.661	26.0972
-37.8706	441.258	26.1167
-37.8693	433.502	26.13623
-37.8684	433.837	26.1558
-37.8656	440.669	26.1753
-37.8642	433.306	26.1948
-37.8625	433.106	26.2144
-37.8609	441.432	26.2339
-37.8589	433.985	26.2534
-37.8569	432.01	26.2729
-37.8561	436.221	26.29248
-37.8554	439.265	26.312
-37.8526	432.97	26.3315
-37.8508	439.191	26.3511
-37.8493	437.487	26.3706
-37.8476	433.4523	26.3901
-37.8467	435.331	26.4097
-37.8441	439.791	26.4292
-37.8428	432.723	26.44873
-37.841	436.68	26.4683
-37.8396	436.787	26.4878
-37.8388	435.7569	26.5073
-37.8374	431.79	26.5269
-37.8358	440.41	26.5464
-37.8336	436.992	26.5659
-37.8321	434.255	26.5854
-37.8307	435.857	26.60498
-37.829	436.847	26.6245
-37.8261	432.023	26.644
-37.8261	437.84	26.6636
-37.8236	441.284	26.6831
-37.823	430.497	26.7026
-37.82032	432.952	26.7222
-37.8177	440.44	26.7417
-37.8178	433.566	26.76123
-37.8148	434.236	26.7808
-37.814	439.699	26.8003
-37.8121	431.767	26.8198
-37.8088	431.5141	26.8394
-37.8082	439.472	26.8589
-37.8072	435.501	26.8784
-37.8053	431.4	26.8979
-37.8046	439.999	26.91748
-37.8029	435.621	26.937
-37.7995	432.448	26.9565
-37.7991	434.448	26.9761
-37.7974	440.369	26.9956
-37.7955	432.817	27.0151
-37.794	435.836	27.0347
-37.7933	434.896	27.0542
-37.7914	433.5712	27.07373
-37.7888	432.253	27.0933
-37.7872	440.781	27.1128
-37.78569	434.553	27.1323
-37.784	434.236	27.1519
-37.7827	434.557	27.1714
-37.7807	436.013	27.1909
-37.7798	430.115	27.2104
-37.7773	436.378	27.22998
-37.7764	438.489	27.2495
-37.77459	431.165	27.269
-37.7728	434.595	27.2886
-37.7706	438.5502	27.3081
-37.7699	430.4	27.3276
-37.7683	435.606	27.3472
-37.7665	439.766	27.3667
-37.76432	430.131	27.38623
-37.7637	433.3992	27.4058
-37.7619	439.474	27.4253
-37.7594	434.698	27.4448
-37.7585	431.45	27.4644
-37.7565	438.674	27.4839
-37.75584	434.046	27.5034
-37.7534	432.719	27.5229
-37.7526	438.159	27.54248
-37.7508	437.333	27.562
-37.7492	432.54	27.5815
-37.7463	438.142	27.6011
-37.745	434.62	27.6206
-37.7442	432.614	27.6401
-37.742	434.206	27.6597
-37.7408	439.926	27.6792
-37.738	435.228	27.69873
-37.7369	435.317	27.7183
-37.7357	436.272	27.7378
-37.7343	435.938	27.7573
-37.7324	433.779	27.7769
-37.7305	439.433	27.7964
-37.7287	435.388	27.8159
-37.7277	431.103	27.8354
-37.72686	436.871	27.85498
-37.7243	439.167	27.8745
-37.7219	432.43	27.894
-37.72134	435.983	27.9136
-37.7189	438.997	27.9331
-37.7181	430.388	27.9526
-37.7163	434.508	27.9722
-37.7147	437.753	27.9917
-37.7128	432.313	28.01123
-37.7115	434.354	28.0308
-37.7101	440.2265	28.0503
-37.7081	430.4053	28.0698
-37.7073	431.274	28.0894
-37.7043	437.656	28.1089
-37.7029	437.143	28.1284
-37.7011	431.654	28.1479
-37.6996	438.475	28.16748
-37.697	432.775	28.187
-37.69619	433.878	28.2065
-37.6945	435.93	28.2261
-37.6925	437.255	28.2456
-37.692	430.8	28.2651
-37.6902	436.841	28.2847
-37.68869	435.112	28.3042
-37.6869	433.094	28.32373
-37.685	431.129	28.3433
-37.6835	438.266	28.3628
-37.6823	432.896	28.3823
-37.6798	431.68	28.4019
-37.6781	433.624	28.4214
-37.6763	435.149	28.4409
-37.6757	432.396	28.4604
-37.6741	437.7543	28.47998
-37.6725	436.042	28.4995
-37.6697	427.913	28.519
-37.6693	434.434	28.5386
-37.6668	438.13	28.5581
-37.6657	431.678	28.5776
-37.664	432.754	28.5972
-37.6621	438.626	28.6167
-37.6603	430.014	28.63623
-37.6593	433.3129	28.6558
-37.6564	436.343	28.6753
-37.656	434.374	28.6948
-37.6546	432.468	28.7144
-37.65279	440.157	28.7339
-37.6512	430.719	28.7534
-37.6486	431.806	28.7729
-37.6481	435.285	28.79248
-37.64653	437.564	28.812
-37.6435	432.233	28.8315
-37.6441	434.571	28.8511
-37.642	432.635	28.8706
-37.6388	432.6142	28.8901
-37.6376	431.896	28.9097
-37.6354	438.34	28.9292
-37.6346	431.707	28.94873
-37.63361	433.85	28.9683
-37.63168	435.584	28.9878
-37.6298	433.518	29.0073
-37.6279	430.616	29.0269
-37.6259	437.812	29.0464
-37.6241	436.972	29.0659
-37.62289	428.7316	29.0854
-37.6223	434.402	29.10498
-37.6196	435.405	29.1245
-37.6188	432.618	29.144
-37.6175	434.928	29.1636
-37.61552	437.135	29.1831
-37.6127	427.525	29.2026
-37.6123	434.641	29.2222
-37.6105	439.431	29.2417
-37.6093	431.8663	29.26123
-37.6069	432.029	29.2808
-37.6062	439.357	29.3003
-37.6042	430.417	29.3198
-37.6022	432.517	29.3394
-37.6011	436.652	29.3589
-37.598	433.171	29.3784
-37.5977	432.36	29.3979
-37.5962	438.357	29.41748
-37.59362	431.841	29.437
-37.5913	430.899	29.4565
-37.5914	433.531	29.4761
-37.5895	438.488	29.4956
-37.5881	431.491	29.5151
-37.5859	434.303	29.5347
-37.5848	432.453	29.5542
-37.583	432.932	29.57373
-37.5808	432.2226	29.5933
-37.579	437.536	29.6128
-37.5778	433.157	29.6323
-37.5756	430.739	29.6519
-37.5751	434.543	29.6714
-37.5722	434.7283	29.6909
-37.571	429.592	29.7104
-37.5697	436.591	29.72998
-37.5682	437.974	29.7495
-37.5667	428.288	29.769
-37.5639	433.27	29.7886
-37.5636	434.0448	29.8081
-37.5606	432.484	29.8276
-37.5609	433.593	29.8472
-37.5582	438.889	29.8667
-37.557	428.287	29.88623
-37.5555	430.86	29.9058
-37.5533	436.632	29.9253
-37.5516	432.833	29.9448
-37.5488	432.504	29.9644
-37.5481	438.0593	29.9839
-37.5468	431.482	30.0034
-37.5448	433.108	30.0229
-37.5433	434.154	30.04248
-37.5414	435.719	30.062
-37.5398	431.742	30.0815
-37.5388	436.4241	30.1011
-37.5379	433.401	30.1206
-37.5355	430.9678	30.1401
-37.5332	432.991	30.1597
-37.53294	438.107	30.1792
-37.5313	432.203	30.19873
-37.5291	429.653	30.2183
-37.5278	433.815	30.2378
-37.5249	433.205	30.2573
-37.5236	430.445	30.2769
-37.52224	435.912	30.2964
-37.52039	433.705	30.3159
-37.5177	429.985	30.3354
-37.5181	434.142	30.35498
-37.5168	434.6015	30.3745
-37.5138	430.335	30.394
-37.5135	434.288	30.4136
-37.51133	438.504	30.4331
-37.5092	428.514	30.4526
-37.5085	432.401	30.4722
-37.507	436.93	30.4917
-37.5045	431.967	30.51123
-37.5032	431.874	30.5308
-37.5024	436.882	30.5503
-37.5	427.569	30.5698
-37.4982	432.137	30.5894
-37.4969	436.036	30.6089
-37.4939	436.479	30.6284
-37.4934	430.593	30.6479
-37.491	437.121	30.66748
-37.4894	432.07	30.687
-37.4886	429.846	30.7065
-37.4862	432.667	30.7261
-37.485	434.639	30.7456
-37.4824	431.587	30.7651
-37.4812	432.775	30.7847
-37.4794	434.164	30.8042
-37.4785	429.615	30.82373
-37.4765	430.617	30.8433
-37.4755	436.91	30.8628
-37.4733	432.609	30.8823
-37.4715	427.769	30.9019
-37.47049	434.472	30.9214
-37.46806	433.1283	30.9409
-37.46674	430.548	30.9604
-37.4651	434.498	30.97998
-37.4643	434.649	30.9995
-37.463	426.17	31.019
-37.46106	434.705	31.0386
-37.4592	433.786	31.0581
-37.4573	428.857	31.0776
-37.4554	431.815	31.0972
-37.45467	437.7684	31.1167
-37.4518	425.796	31.13623
-37.4511	430.194	31.1558
-37.4493	433.634	31.1753
-37.4478	431.104	31.1948
-37.446	428.88	31.2144
-37.4448	435.48	31.2339
-37.4423	428.573	31.2534
-37.4406	429.386	31.2729
-37.4392	433.891	31.29248
-37.4378	431.65	31.312
-37.4363	426.19	31.3315
-37.4358	431.502	31.3511
-37.433	432.566	31.3706
-37.4307	428.852	31.3901
-37.4293	429.051	31.4097
-37.4288	433.91	31.4292
-37.4258	430.108	31.44873
-37.4246	427.047	31.4683
-37.4228	432.07	31.4878
-37.4213	428.222	31.5073
-37.4188	428.792	31.5269
-37.4182	433.662	31.5464
-37.417	432.231	31.5659
-37.4152	423.006	31.5854
-37.4142	432.194	31.60498
-37.4113	431.156	31.6245
-37.4106	427.535	31.644
-37.40834	431.31	31.6636
-37.407	433.255	31.6831
-37.4045	422.904	31.7026
-37.4026	431.782	31.7222
-37.40089	430.744	31.7417
-37.4002	427.483	31.76123
-37.3991	429.127	31.7808
-37.3969	435.326	31.8003
-37.3958	425.53	31.8198
-37.3945	428.103	31.8394
-37.3929	431.613	31.8589
-37.39127	430.281	31.8784
-37.3899	426.331	31.8979
-37.3875	429.962	31.91748
-37.387	426.224	31.937
-37.384	426.922	31.9565
-37.3816	430.428	31.9761
-37.381	430.84	31.9956
-37.3792	424.841	32.0151
-37.3766	425.677	32.0347
-37.375	428.952	32.0542
-37.3732	426.113	32.07373
-37.3726	425.952	32.0933
-37.3708	428.749	32.1128
-37.3699	426.921	32.1323
-37.3677	422.158	32.1519
-37.3666	428.111	32.1714
-37.3643	425.554	32.1909
-37.36216	420.129	32.2104
-37.3619	426.13	32.22998
-37.3594	423.683	32.2495
-37.354	-57.7668	32.269
-37.3549	-49.5897	32.2886
-37.3527	-33.4996	32.3081
-37.3523	-42.58326	32.3276
-37.3503	-37.8844	32.3472
-37.3493	-33.7821	32.3667
-37.3474	-44.2676	32.38623
-37.3466	-39.9843	32.4058
-37.344	-36.9188	32.4253
-37.3433	-41.284	32.4448
-37.34042	-41.2306	32.4644
-37.3403	-36.4453	32.4839
-37.3385	-41.1079	32.5034
-37.3368	-41.6995	32.5229
-37.3357	-37.8808	32.54248
-37.3323	-39.4125	32.562
-37.3311	-42.3856	32.5815
-37.3308	-41.398	32.6011
-37.3281	-40.8527	32.6206
-37.3263	-43.6775	32.6401
-37.3266	-40.9955	32.6597
-37.3236	-37.6836	32.6792
-37.3209	-41.1778	32.69873
-37.3212	-45.6607	32.7183
-37.3177	-36.6286	32.7378
-37.3172	-41.5558	32.7573
-37.3158	-42.0301	32.7769
-37.3142	-37.4927	32.7964
-37.3123	-38.1223	32.8159
-37.31004	-45.01033	32.8354
-37.3081	-35.6374	32.85498
-37.3064	-38.3559	32.8745
-37.3058	-44.8544	32.894
-37.3041	-36.8477	32.9136
-37.3035	-34.8304	32.9331
-37.3006	-46.8744	32.9526
-37.299	-40.5924	32.9722
-37.2965	-36.8572	32.9917
-37.2962	-41.0061	33.01123
-37.2947	-41.0783	33.0308
-37.2925	-36.8631	33.0503
-37.2913	-44.7794	33.0698
-37.29023	-42.1581	33.0894
-37.28838	-36.5434	33.1089
-37.2866	-40.6278	33.1284
-37.2847	-44.08091	33.1479
-37.282	-38.84568	33.16748
-37.2811	-41.057	33.187
-37.27953	-42.3789	33.2065
-37.2779	-38.6538	33.2261
-37.2761	-38.3208	33.2456
-37.2741	-41.0085	33.2651
-37.2738	-41.3188	33.2847
-37.2708	-39.28896	33.3042
-37.2711	-43.0192	33.32373
-37.2688	-40.7269	33.3433
-37.2665	-36.91177	33.3628
-37.26556	-41.6476	33.3823
-37.2628	-47.441	33.4019
-37.262	-35.5967	33.4214
-37.2594	-39.9397	33.4409
-37.2582	-43.5091	33.4604
-37.2571	-40.3296	33.47998
-37.2545	-37.8926	33.4995
-37.2526	-46.9778	33.519
-37.2517	-37.7473	33.5386
-37.2501	-39.6087	33.5581
-37.2491	-43.8438	33.5776
-37.2466	-39.6144	33.5972
-37.2466	-35.4338	33.6167
-37.2437	-45.7658	33.63623
-37.24197	-41.1615	33.6558
-37.2403	-38.2488	33.6753
-37.2394	-41.3405	33.6948
-37.2369	-42.3474	33.7144
-37.2362	-38.8541	33.7339
-37.2332	-41.5367	33.7534
-37.2321	-43.166	33.7729
-37.2303	-38.2383	33.79248
-37.2295	-38.216	33.812
-37.2276	-43.0458	33.8315
-37.2252	-41.5387	33.8511
-37.22419	-39.0231	33.8706
-37.2218	-44.8763	33.8901
-37.2221	-40.52396	33.9097
-37.2201	-37.4355	33.9292
-37.2178	-40.17012	33.94873
-37.2157	-44.4434	33.9683
-37.2154	-36.36264	33.9878
-37.2131	-41.9832	34.0073
-37.2115	-43.4378	34.0269
-37.2094	-36.91404	34.0464
-37.2079	-38.8717	34.0659
-37.2068	-48.0485	34.0854
-37.20512	-35.4413	34.10498
-37.2024	-39.09042	34.1245
-37.2018	-44.1637	34.144
-37.1997	-38.7587	34.1636
-37.1991	-36.4911	34.1831
-37.1965	-47.5891	34.2026
-37.1943	-39.5395	34.2222
-37.194	-39.1309	34.2417
-37.1913	-41.5575	34.26123
-37.1904	-40.2464	34.2808
-37.1894	-37.404	34.3003
-37.1869	-44.6381	34.3198
-37.1847	-43.4204	34.3394
-37.1833	-37.0579	34.3589
-37.1823	-39.4696	34.3784
-37.1807	-42.9015	34.3979
-37.1786	-41.4949	34.41748
-37.1774	-40.2993	34.437
-37.1761	-43.0636	34.4565
-37.1726	-38.84771	34.4761
-37.1716	-39.1988	34.4956
-37.1697	-43.7053	34.5151
-37.1685	-44.14513	34.5347
-37.1683	-35.6032	34.5542
-37.1658	-43.0151	34.57373
-37.1634	-41.613	34.5933
-37.1633	-36.7195	34.6128
-37.1606	-40.2057	34.6323
-37.15868	-46.6588	34.6519
-37.1583	-36.5402	34.6714
-37.1563	-41.03656	34.6909
-37.1542	-41.305	34.7104
-37.15197	-37.1482	34.72998
-37.1516	-38.4594	34.7495
-37.1492	-48.6473	34.769
-37.1478	-38.10561	34.7886
-37.1466	-37.9176	34.8081
-37.1453	-42.3286	34.8276
-37.1442	-41.84597	34.8374