File: data/processed_data_files/tensile/0.254_hd_dimension_typeiv_4545_r(3).dat
MTS793|BTW|ENU|1|2|.|/|:|1|0|0|A

Data Header:			0.254_hd_dimension_typeiv_4545_r0			Time:	20.0217	s	4/13/2019 8:16:34 PM
Data Acquisition:	Timed
Station Name:	ft40.cfg
Test File Name:	monotonic_0.2540_typeiv_hd_4545_dimension.tst
Displacement	Force	Running Time
mm	N	s
-40.0348	-211.74	0.0258789
-40.0342	-213.545	0.0454102
-40.0344	-213.502	0.0649414
-40.03455	-216.102	0.0844727
-40.0322	-208.476	0.104004
-40.0304	-210.024	0.123535
-40.029	-211.423	0.143066
-40.0252	-211.934	0.162598
-40.0246	-204.793	0.182129
-40.0237	-210.562	0.20166
-40.0215	-207.058	0.221191
-40.0194	-202.183	0.240723
-40.0173	-206.629	0.260254
-40.0154	-209.215	0.279785
-40.0151	-198.4866	0.299316
-40.0126	-204.165	0.318848
-40.0117	-202.673	0.338379
-40.01	-197.806	0.35791
-40.008	-198.47	0.377441
-40.0072	-204.2038	0.396973
-40.0054	-196.092	0.416504
-40.0033	-196.181	0.436035
-40.0024	-199.385	0.455566
-40.0005	-193.589	0.475098
-39.9985	-194.793	0.494629
-39.9976	-198.778	0.51416
-39.9956	-193.78	0.533691
-39.993	-186.961	0.553223
-39.9928	-192.45	0.572754
-39.9905	-191.23	0.592285
-39.9888	-188.916	0.611816
-39.9873	-190.405	0.631348
-39.9852	-189.018	0.650879
-39.984	-183.123	0.67041
-39.9831	-186.009	0.689941
-39.9812	-185.67	0.709473
-39.9803	-183.018	0.729004
-39.9782	-179.048	0.748535
-39.9766	-187.882	0.768066
-39.9757	-179.431	0.787598
-39.9734	-175.587	0.807129
-39.9717	-179.503	0.82666
-39.9702	-182.346	0.846191
-39.9681	-174.2128	0.865723
-39.9659	-179.062	0.885254
-39.9656	-175.21	0.904785
-39.9636	-171.712	0.924316
-39.9618	-175.569	0.943848
-39.96027	-177.968	0.963379
-39.9568	-168.945	0.98291
-39.9568	-170.342	1.00244
-39.954	-173.057	1.02197
-39.9532	-168.817	1.0415
-39.9516	-168.744	1.06104
-39.9508	-172.721	1.08057
-39.9473	-166.118	1.1001
-39.9467	-164.72	1.11963
-39.9447	-168.82	1.13916
-39.944	-162.837	1.15869
-39.9407	-160.606	1.17822
-39.9403	-165.056	1.19775
-39.938	-163.199	1.21729
-39.93811	-157.009	1.23682
-39.9345	-160.526	1.25635
-39.9336	-157.752	1.27588
-39.9322	-158.83	1.29541
-39.9294	-155.9241	1.31494
-39.9294	-158.992	1.33447
-39.9276	-152.405	1.354
-39.9255	-151.784	1.37354
-39.924	-155.891	1.39307
-39.9225	-156.94	1.4126
-39.9208	-148.4381	1.43213
-39.91835	-154.094	1.45166
-39.917	-149.89	1.47119
-39.9156	-144.814	1.49072
-39.9147	-147.915	1.51025
-39.9133	-152.476	1.52979
-39.9111	-142.774	1.54932
-39.9102	-147.067	1.56885
-39.9072	-144.981	1.58838
-39.9067	-138.105	1.60791
-39.9051	-142.506	1.62744
-39.9027	-148.6376	1.64697
-39.901	-139.158	1.6665
-39.90036	-137.535	1.68604
-39.8976	-141.171	1.70557
-39.89674	-136.618	1.7251
-39.8944	-135.299	1.74463
-39.8937	-142.6601	1.76416
-39.89146	-135.199	1.78369
-39.8902	-132.0591	1.80322
-39.88789	-137.088	1.82275
-39.8879	-134.425	1.84229
-39.8849	-131.291	1.86182
-39.8834	-133.0278	1.88135
-39.8817	-133.032	1.90088
-39.88	-126.761	1.92041
-39.8786	-126.746	1.93994
-39.8768	-128.153	1.95947
-39.8758	-127.72	1.979
-39.8729	-125.58	1.99854
-39.873	-128.039	2.01807
-39.8706	-121.4087	2.0376
-39.8691	-120.312	2.05713
-39.8661	-124.107	2.07666
-39.8647	-125.776	2.09619
-39.86483	-117.336	2.11572
-39.8624	-121.218	2.13525
-39.8602	-120.553	2.15479
-39.8599	-114.654	2.17432
-39.8578	-116.745	2.19385
-39.8548	-119.022	2.21338
-39.8528	-111.409	2.23291
-39.8528	-114.46	2.25244
-39.8518	-115.841	2.27197
-39.8484	-108.64	2.2915
-39.8474	-110.289	2.31104
-39.8452	-116.172	2.33057
-39.8446	-109.873	2.3501
-39.8427	-107.45	2.36963
-39.8415	-110.52	2.38916
-39.83923	-106.654	2.40869
-39.83709	-106.039	2.42822
-39.8367	-110.976	2.44775
-39.8342	-106.679	2.46729
-39.8322	-98.3926	2.48682
-39.8308	-103.884	2.50635
-39.8296	-104.189	2.52588
-39.828	-99.0792	2.54541
-39.8267	-97.90712	2.56494
-39.82378	-101.975	2.58447
-39.8242	-95.5493	2.604
-39.8217	-95.5164	2.62354
-39.82	-98.87822	2.64307
-39.8172	-97.8902	2.6626
-39.8172	-91.1775	2.68213
-39.8149	-97.75	2.70166
-39.8138	-91.886	2.72119
-39.8117	-88.5863	2.74072
-39.8104	-92.2889	2.76025
-39.8088	-96.24678	2.77979
-39.8076	-84.00634	2.79932
-39.8058	-88.8066	2.81885
-39.8039	-87.8889	2.83838
-39.8025	-84.44	2.85791
-39.801	-84.53479	2.87744
-39.7986	-90.06205	2.89697
-39.7968	-79.0438	2.9165
-39.7959	-81.0486	2.93604
-39.795	-85.5402	2.95557
-39.7921	-79.8246	2.9751
-39.791	-76.7487	2.99463
-39.789	-84.9742	3.01416
-39.7876	-78.3528	3.03369
-39.7855	-75.2641	3.05322
-39.7844	-78.9076	3.07275
-39.7835	-76.2696	3.09229
-39.7821	-73.671	3.11182
-39.779	-76.12426	3.13135
-39.7775	-75.9114	3.15088
-39.7755	-67.3269	3.17041
-39.7749	-70.2823	3.18994
-39.7721	-72.54641	3.20947
-39.7702	-71.5657	3.229
-39.7701	-67.7268	3.24854
-39.7683	-70.8465	3.26807
-39.76593	-64.30275	3.2876
-39.766	-62.7459	3.30713
-39.7635	-66.4713	3.32666
-39.7624	-66.7398	3.34619
-39.7598	-59.4166	3.36572
-39.7581	-65.342	3.38525
-39.7566	-61.6932	3.40479
-39.755	-55.3226	3.42432
-39.752	-58.5975	3.44385
-39.7508	-64.1201	3.46338
-39.7497	-54.3193	3.48291
-39.7485	-55.7729	3.50244
-39.747	-59.0097	3.52197
-39.7454	-53.5529	3.5415
-39.7439	-52.2613	3.56104
-39.7427	-59.44136	3.58057
-39.74	-51.0016	3.6001
-39.7399	-48.3132	3.61963
-39.7366	-54.578	3.63916
-39.7352	-50.3356	3.65869
-39.7335	-47.1721	3.67822
-39.7318	-51.1277	3.69775
-39.7303	-46.7854	3.71729
-39.72831	-43.0571	3.73682
-39.7271	-45.9278	3.75635
-39.7264	-43.6696	3.77588
-39.7238	-42.1729	3.79541
-39.72208	-44.4341	3.81494
-39.7218	-45.06345	3.83447
-39.7193	-37.972	3.854
-39.7182	-37.5473	3.87354
-39.7159	-40.3751	3.89307
-39.71323	-40.6904	3.9126
-39.7114	-33.3993	3.93213
-39.7113	-38.9462	3.95166
-39.7103	-34.91309	3.97119
-39.7071	-31.79	3.99072
-39.7058	-34.9439	4.01025
-39.7039	-36.4751	4.02979
-39.7033	-26.5472	4.04932
-39.70137	-33.04887	4.06885
-39.7006	-32.3469	4.08838
-39.6974	-26.6266	4.10791
-39.6964	-26.7385	4.12744
-39.6955	-33.2487	4.14697
-39.6937	-23.7994	4.1665
-39.6913	-26.5148	4.18604
-39.6902	-26.9504	4.20557
-39.6876	-22.2292	4.2251
-39.6866	-20.621	4.24463
-39.6848	-28.5245	4.26416
-39.683	-21.0589	4.28369
-39.6816	-17.1861	4.30322
-39.6815	-21.1763	4.32275
-39.6787	-19.5807	4.34229
-39.6776	-16.7236	4.36182
-39.6754	-18.5963	4.38135
-39.67416	-16.6761	4.40088
-39.6725	-12.9543	4.42041
-39.67	-13.9657	4.43994
-39.6695	-14.21586	4.45947
-39.6671	-13.2261	4.479
-39.66478	-11.2005	4.49854
-39.6637	-13.9049	4.51807
-39.66256	-9.26563	4.5376
-39.65979	-6.03603	4.55713
-39.6587	-8.25904	4.57666
-39.6563	-10.7861	4.59619
-39.6562	-3.07659	4.61572
-39.6533	-8.86008	4.63525
-39.6523	-4.04365	4.65479
-39.6508	0.630915	4.67432
-39.6491	-3.89382	4.69385
-39.6478	-8.5451	4.71338
-39.6454	3.25438	4.73291
-39.6436	0.873399	4.75244
-39.6431	-0.898415	4.77197
-39.6416	3.40097	4.7915
-39.6396	5.69168	4.81104
-39.63802	-2.20781	4.83057
-39.6359	5.54938	4.8501
-39.6346	6.60024	4.86963
-39.632	3.63922	4.88916
-39.6323	6.795969	4.90869
-39.6283	10.6248	4.92822
-39.6284	5.38936	4.94775
-39.6256	7.87317	4.96729
-39.6248	15.1552	4.98682
-39.623	10.4119	5.00635
-39.6221	10.96227	5.02588
-39.6188	14.1393	5.04541
-39.6177	12.8391	5.06494
-39.6169	13.5256	5.08447
-39.615	18.6317	5.104
-39.6133	18.2738	5.12354
-39.6121	14.7801	5.14307
-39.6108	16.0891	5.1626
-39.6095	21.5727	5.18213
-39.607	16.9875	5.20166
-39.6048	21.752	5.22119
-39.6031	27.6158	5.24072
-39.6023	23.0111	5.26025
-39.6006	20.6144	5.27979
-39.5984	29.469	5.29932
-39.5968	24.5614	5.31885
-39.5951	25.4331	5.33838
-39.5943	32.0934	5.35791
-39.5926	29.34688	5.37744
-39.5901	21.9796	5.39697
-39.5883	32.8954	5.4165
-39.5874	33.4834	5.43604
-39.5853	31.2563	5.45557
-39.5838	34.8426	5.4751
-39.5822	35.7954	5.49463
-39.5811	30.2927	5.51416
-39.5794	37.4699	5.53369
-39.5767	40.57394	5.55322
-39.5753	35.0518	5.57275
-39.5742	36.84	5.59229
-39.5723	43.0409	5.61182
-39.5701	37.2685	5.63135
-39.5696	40.2861	5.65088
-39.5677	44.8573	5.67041
-39.5661	42.7547	5.68994
-39.56398	41.6564	5.70947
-39.5639	44.1253	5.729
-39.5617	45.1864	5.74854
-39.55925	42.8884	5.76807
-39.5586	48.9089	5.7876
-39.5558	49.55883	5.80713
-39.5547	47.5792	5.82666
-39.5535	46.52919	5.84619
-39.5516	54.6355	5.86572
-39.5491	49.92432	5.88525
-39.5493	51.5878	5.90479
-39.5471	57.1805	5.92432
-39.5443	55.2666	5.94385
-39.5446	49.7418	5.96338
-39.5426	61.3415	5.98291
-39.5406	55.9789	6.00244
-39.5387	56.6801	6.02197
-39.5372	60.81176	6.0415
-39.5358	62.2834	6.06104
-39.5329	55.411	6.08057
-39.5322	63.5996	6.1001
-39.531	64.7242	6.11963
-39.5277	62.392	6.13916
-39.5277	64.0045	6.15869
-39.5255	67.4155	6.17822
-39.5236	61.8652	6.19775
-39.523	66.9287	6.21729
-39.5209	72.3658	6.23682
-39.5188	68.6005	6.25635
-39.5175	66.1788	6.27588
-39.5153	72.9953	6.29541
-39.5148	71.4126	6.31494
-39.5122	69.3392	6.33447
-39.5108	74.3963	6.354
-39.5084	75.0452	6.37354
-39.5065	73.015	6.39307
-39.507	75.1058	6.4126
-39.5044	77.1175	6.43213
-39.5022	74.09655	6.45166
-39.4994	78.9439	6.47119
-39.4996	83.349	6.49072
-39.4981	78.85228	6.51025
-39.4956	76.0228	6.52979
-39.49469	85.0151	6.54932
-39.4931	81.1652	6.56885
-39.4904	82.3078	6.58838
-39.4896	86.8127	6.60791
-39.4885	85.4568	6.62744
-39.4869	80.9275	6.64697
-39.4844	93.1605	6.6665
-39.4832	88.7052	6.68604
-39.4815	87.58194	6.70557
-39.4807	91.8314	6.7251
-39.4791	94.3641	6.74463
-39.4777	87.3132	6.76416
-39.4754	92.9853	6.78369
-39.4727	95.0241	6.80322
-39.4712	93.2635	6.82275
-39.4703	92.9239	6.84229
-39.469	97.7219	6.86182
-39.4663	93.41362	6.88135
-39.4651	97.3778	6.90088
-39.4634	102.8263	6.92041
-39.4621	101.137	6.93994
-39.4607	98.7136	6.95947
-39.4577	100.259	6.979
-39.45752	101.712	6.99854
-39.4562	100.787	7.01807
-39.4535	105.692	7.0376
-39.45208	107.853	7.05713
-39.4501	104.824	7.07666
-39.4487	103.972	7.09619
-39.448	111.015	7.11572
-39.4466	105.892	7.13525
-39.44183	107.471	7.15479
-39.44294	112.071	7.17432
-39.4409	112.063	7.19385
-39.4387	107.275	7.21338
-39.438	116.229	7.23291
-39.4359	114.437	7.25244
-39.4337	112.834	7.27197
-39.4322	119.057	7.2915
-39.43	118.774	7.31104
-39.43	111.163	7.33057
-39.4269	122.1151	7.3501
-39.4263	122.491	7.36963
-39.4236	118.544	7.38916
-39.4237	119.833	7.40869
-39.4212	125.281	7.42822
-39.4194	119.671	7.44775
-39.4185	123.871	7.46729
-39.4157	126.836	7.48682
-39.4149	124.737	7.50635
-39.4133	125.737	7.52588
-39.4115	130.075	7.54541
-39.4099	125.975	7.56494
-39.4077	126.732	7.58447
-39.4059	131.643	7.604
-39.4054	134.269	7.62354
-39.4024	131.969	7.64307
-39.4011	129.818	7.6626
-39.4012	133.7	7.68213
-39.3983	133.182	7.70166
-39.3966	135.39	7.72119
-39.396	136.928	7.74072
-39.3931	134.954	7.76025
-39.3917	132.983	7.77979
-39.3903	141.496	7.79932
-39.3886	138.377	7.81885
-39.38747	138.708	7.83838
-39.3846	144.659	7.85791
-39.3836	143.5108	7.87744
-39.3824	136.228	7.89697
-39.3798	145.217	7.9165
-39.3793	145.1758	7.93604
-39.37674	143.453	7.95557
-39.3762	147.872	7.9751
-39.3738	150.19	7.99463
-39.3728	141.623	8.01416
-39.3708	150.264	8.03369
-39.3694	152.808	8.05322
-39.36779	150.048	8.07275
-39.36631	149.5134	8.09229
-39.3639	155.132	8.11182
-39.3625	150.761	8.13135
-39.3607	153.8748	8.15088
-39.3598	157.237	8.17041
-39.3572	155.773	8.18994
-39.3568	154.141	8.20947
-39.35392	159.997	8.229
-39.353	158.709	8.24854
-39.3517	155.622	8.26807
-39.3496	161.523	8.2876
-39.3482	165.3759	8.30713
-39.3471	160.239	8.32666
-39.3449	160.877	8.34619
-39.344	165.861	8.36572
-39.3417	162.5099	8.38525
-39.3391	163.775	8.40479
-39.3383	168.312	8.42432
-39.336	165.491	8.44385
-39.3354	162.376	8.46338
-39.3325	173.291	8.48291
-39.3313	169.463	8.50244
-39.3306	167.5	8.52197
-39.3286	171.807	8.5415
-39.327	174.726	8.56104
-39.3259	167.17	8.58057
-39.3247	176.908	8.6001
-39.3218	174.999	8.61963
-39.3214	173.262	8.63916
-39.3191	177.534	8.65869
-39.3171	181.697	8.67822
-39.3162	170.734	8.69775
-39.3151	177.217	8.71729
-39.3115	182.9	8.73682
-39.3113	181.025	8.75635
-39.30788	178.707	8.77588
-39.30687	182.925	8.79541
-39.30587	181.015	8.81494
-39.3046	180.747	8.83447
-39.3022	185.077	8.854
-39.3017	185.935	8.87354
-39.2994	183.185	8.89307
-39.2961	185.688	8.9126
-39.2967	188.471	8.93213
-39.2941	184.73	8.95166
-39.2921	186.437	8.97119
-39.2926	192.517	8.99072
-39.2903	190.243	9.01025
-39.2886	188.046	9.02979
-39.2871	195.279	9.04932
-39.2838	192.2164	9.06885
-39.2828	192.825	9.08838
-39.281	198.3528	9.10791
-39.2804	198.498	9.12744
-39.279	189.426	9.14697
-39.278	200.265	9.1665
-39.2741	200.284	9.18604
-39.2733	197.992	9.20557
-39.2716	200.69	9.2251
-39.2697	202.541	9.24463
-39.2681	194.957	9.26416
-39.2677	203.367	9.28369
-39.2647	205.3793	9.30322
-39.2643	202.1496	9.32275
-39.2622	204.499	9.34229
-39.2606	209.654	9.36182
-39.2583	203.19	9.38135
-39.2561	206.63	9.40088
-39.25555	210.4986	9.42041
-39.2538	209.177	9.43994
-39.2522	209.369	9.45947
-39.2506	212.683	9.479
-39.2475	210.45	9.49854
-39.2471	210.957	9.51807
-39.24575	215.497	9.5376
-39.24345	216.465	9.55713
-39.2419	212.14	9.57666
-39.2414	212.929	9.59619
-39.2399	219.352	9.61572
-39.2378	216.213	9.63525
-39.2362	217.07	9.65479
-39.2343	221.64	9.67432
-39.2328	221.592	9.69385
-39.2316	216.208	9.71338
-39.2295	225.142	9.73291
-39.2268	222.075	9.75244
-39.227	221.443	9.77197
-39.22467	226.616	9.7915
-39.2228	227.989	9.81104
-39.2195	219.099	9.83057
-39.2193	228.623	9.8501
-39.2178	230.15	9.86963
-39.2162	227.558	9.88916
-39.2149	229.26	9.90869
-39.213	232.951	9.92822
-39.2119	225.65	9.94775
-39.2099	233.103	9.96729
-39.2088	236.471	9.98682
-39.2066	232.79	10.0063
-39.2054	232.249	10.0259
-39.2027	236.954	10.04541
-39.2016	234.969	10.0649
-39.19957	234.783	10.0845
-39.198	239.118	10.104
-39.1972	239.826	10.1235
-39.19482	237.845	10.1431
-39.1931	240.4922	10.1626
-39.19141	240.936	10.1821
-39.1899	238.721	10.20166
-39.1889	242.908	10.2212
-39.1866	247.287	10.2407
-39.1854	243.2787	10.2603
-39.18335	239.909	10.2798
-39.18108	248.24	10.2993
-39.1795	245.471	10.3188
-39.1788	246.047	10.3384
-39.1772	249.711	10.35791
-39.1757	251.032	10.3774
-39.17424	245.358	10.397
-39.1727	254.005	10.4165
-39.1709	253.516	10.436
-39.1684	249.874	10.4556
-39.1684	254.643	10.4751
-39.1653	258.173	10.4946
-39.1657	248.323	10.51416
-39.1626	257.416	10.5337
-39.1608	259.231	10.5532
-39.1584	257.019	10.5728
-39.1566	257.802	10.5923
-39.1556	262.198	10.6118
-39.15559	255.288	10.6313
-39.1522	260.555	10.6509
-39.1506	263.745	10.67041
-39.15	263.609	10.6899
-39.1477	259.509	10.7095
-39.14642	264.142	10.729
-39.14502	264.59	10.7485
-39.1428	264.302	10.7681
-39.1415	266.814	10.7876
-39.1396	267.964	10.8071
-39.1383	265.244	10.82666
-39.1357	266.958	10.8462
-39.1343	269.417	10.8657
-39.1327	267.297	10.8853
-39.1324	268.148	10.9048
-39.1302	274.7326	10.9243
-39.1284	272.842	10.9438
-39.1275	267.86	10.9634
-39.125	276.0455	10.98291
-39.1234	275.6	11.0024
-39.1201	274.56	11.022
-39.12093	276.62	11.0415
-39.1201	279.1778	11.061
-39.1174	272.178	11.0806
-39.1146	279.542	11.1001
-39.1144	282.433	11.1196
-39.1134	278.93	11.13916
-39.1096	280.72	11.1587
-39.1093	286.61	11.1782
-39.1079	279.477	11.1978
-39.1058	283.9321	11.2173
-39.10479	288.076	11.2368
-39.1016	285.111	11.2563
-39.0997	284.472	11.2759
-39.09864	291.633	11.29541
-39.0969	285.195	11.3149
-39.0967	286.071	11.3345
-39.0953	291.293	11.354
-39.0931	292.545	11.3735
-39.0907	287.507	11.3931
-39.0889	291.747	11.4126
-39.0876	290.818	11.4321
-39.0858	291.433	11.45166
-39.0844	292.711	11.4712
-39.0831	296.052	11.4907
-39.0809	295.016	11.5103
-39.0793	293.462	11.5298
-39.0774	298.94	11.5493
-39.0764	298.167	11.5688
-39.0749	295.53	11.5884
-39.0723	302.051	11.60791
-39.0716	303.013	11.6274
-39.0691	295.905	11.647
-39.0676	301.8967	11.6665
-39.067	302.865	11.686
-39.0638	301.779	11.7056
-39.0635	304.307	11.7251
-39.0618	307.596	11.7446
-39.0621	299.424	11.76416
-39.0581	306.663	11.7837
-39.05624	310.938	11.8032
-39.0555	306.543	11.8228
-39.0541	305.951	11.8423
-39.0524	313.419	11.8618
-39.0497	306.311	11.8813
-39.0484	311.288	11.9009
-39.0466	313.081	11.92041
-39.0448	312.765	11.9399
-39.0438	309.636	11.9595
-39.04179	317.76	11.979
-39.0411	313.873	11.9985
-39.0396	312.755	12.0181
-39.0384	316.026	12.0376
-39.03532	321.181	12.0571
-39.0353	315.482	12.07666
-39.0328	317.08	12.0962
-39.0319	318.479	12.1157
-39.0293	318.494	12.1353
-39.0276	319.653	12.1548
-39.0267	324.349	12.1743
-39.02359	319.746	12.1938
-39.0229	317.006	12.2134
-39.0197	324.78	12.23291
-39.0203	324.659	12.2524
-39.0182	320.472	12.272
-39.0162	326.366	12.2915
-39.0141	329.988	12.311
-39.0131	322.031	12.3306
-39.0114	328.785	12.3501
-39.00877	329.735	12.3696
-39.0084	327.6	12.38916
-39.0068	330.0665	12.4087
-39.0049	336.265	12.4282
-39.0034	326.512	12.4478
-39.0021	331.677	12.4673
-39.00074	337.073	12.4868
-38.9972	335.398	12.5063
-38.9969	331.27	12.5259
-38.9948	339.871	12.54541
-38.9947	333.182	12.5649
-38.9916	336.788	12.5845
-38.9888	339.127	12.604
-38.9885	341.024	12.6235
-38.9871	334.921	12.6431
-38.98624	341.434	12.6626
-38.9825	341.491	12.6821
-38.98101	340.381	12.70166
-38.98098	340.645	12.7212
-38.9792	344.548	12.7407
-38.9775	342.11	12.7603
-38.9758	341.276	12.7798
-38.9736	343.414	12.7993
-38.9722	345.013	12.8188
-38.9711	344.468	12.8384
-38.9683	348.3501	12.85791
-38.9678	349.46	12.8774
-38.9645	340.668	12.897
-38.9646	350.0546	12.9165
-38.9621	351.729	12.936
-38.9609	348.464	12.9556
-38.959	351.035	12.9751
-38.9579	354.771	12.9946
-38.9564	348.259	13.01416
-38.9548	354.045	13.0337
-38.9523	355.933	13.0532
-38.9509	353.115	13.0728
-38.9494	353.68	13.0923
-38.947	362.053	13.1118
-38.9445	353.552	13.1313
-38.9437	354.682	13.1509
-38.9435	358.414	13.17041
-38.9415	359.188	13.1899
-38.9394	355.515	13.2095
-38.93832	361.767	13.229
-38.936	357.483	13.2485
-38.9355	359.995	13.2681
-38.93351	362.401	13.2876
-38.9324	366.133	13.3071
-38.92981	359.997	13.32666
-38.929	363.235	13.3462
-38.9265	365.346	13.3657
-38.9258	365.718	13.3853
-38.9234	363.422	13.4048
-38.922	368.377	13.4243
-38.9198	367.442	13.4438
-38.9184	364.285	13.4634
-38.9167	370.024	13.48291
-38.9153	369.294	13.5024
-38.9133	366.68	13.522
-38.9114	371.9249	13.5415
-38.9109	374.201	13.561
-38.909	366.434	13.5806
-38.9069	370.982	13.6001
-38.90554	376.893	13.6196
-38.9048	372.702	13.63916
-38.9015	374.03	13.6587
-38.8997	378.963	13.6782
-38.8982	371.601	13.6978
-38.8975	375.88	13.7173
-38.8961	382.2	13.7368
-38.8939	377.916	13.7563
-38.8925	374.231	13.7759
-38.8902	383.554	13.79541
-38.8881	379.128	13.8149
-38.8868	379.343	13.8345
-38.8865	381.5593	13.854
-38.8847	383.248	13.8735
-38.8825	379.586	13.8931
-38.882	385.24	13.9126
-38.8786	383.596	13.9321
-38.8774	382.631	13.95166
-38.8766	384.075	13.9712
-38.8747	390.541	13.9907
-38.8727	384.926	14.0103
-38.8717	384.534	14.0298
-38.8706	387.965	14.0493
-38.8686	389.314	14.0688
-38.8665	385.151	14.0884
-38.8656	391.179	14.10791
-38.8638	390.616	14.1274
-38.8617	386.521	14.147
-38.8583	390.9736	14.1665
-38.8574	395.063	14.186
-38.856	388.89	14.2056
-38.856	392.664	14.2251
-38.8536	399.095	14.2446
-38.8523	390.6376	14.26416
-38.8502	392.69	14.2837
-38.8488	398.129	14.3032
-38.8449	396.046	14.3228
-38.8457	395.153	14.3423
-38.8431	401.6879	14.3618
-38.8436	392.383	14.3813
-38.8408	397.602	14.4009
-38.8392	401.739	14.42041
-38.83778	401.8443	14.4399
-38.8367	396.421	14.4595
-38.8353	403.102	14.479
-38.8327	400.834	14.4985
-38.8303	402.504	14.5181
-38.8286	403.012	14.5376
-38.8267	407.392	14.5571
-38.8255	400.5	14.57666
-38.8239	403.933	14.5962
-38.8231	404.979	14.6157
-38.8213	405.788	14.6353
-38.8196	403.767	14.6548
-38.8175	410.594	14.6743
-38.8156	407.8378	14.6938
-38.8148	405.586	14.7134
-38.81282	408.289	14.73291
-38.8109	411.431	14.7524
-38.8093	406.939	14.772
-38.8069	412.523	14.7915
-38.8056	413.065	14.811
-38.804	405.888	14.8306
-38.803	412.0705	14.8501
-38.8004	417.383	14.8696
-38.8004	410.092	14.88916
-38.7979	412.814	14.9087
-38.79697	417.976	14.9282
-38.795	412.022	14.9478
-38.79306	414.394	14.9673
-38.7917	418.55	14.9868
-38.7898	415.947	15.0063
-38.7885	414.4519	15.0259
-38.7869	423.521	15.04541
-38.7851	415.844	15.0649
-38.7838	416.068	15.0845
-38.7822	420.394	15.104
-38.7799	423.667	15.1235
-38.7784	419.402	15.1431
-38.7774	421.795	15.1626
-38.7757	419.505	15.1821
-38.7729	421.4465	15.20166
-38.7728	422.706	15.2212
-38.7697	426.764	15.2407
-38.768	422.109	15.2603
-38.7663	423.042	15.2798
-38.7659	424.821	15.2993
-38.7648	426.693	15.3188
-38.7633	421.964	15.3384
-38.7602	428.02	15.35791
-38.7587	427.5625	15.3774
-38.75816	425.062	15.397
-38.7553	426.221	15.4165
-38.7533	430.205	15.436
-38.7526	424.972	15.4556
-38.7507	429.401	15.4751
-38.7494	433.636	15.4946
-38.74691	426.79	15.51416
-38.7463	428.6492	15.5337
-38.7431	434.489	15.5532
-38.74374	430.77	15.5728
-38.7416	429.067	15.5923
-38.7396	435.231	15.6118
-38.73756	430.97	15.6313
-38.7359	430.098	15.6509
-38.7344	436.908	15.67041
-38.7337	435.491	15.6899
-38.7307	431.987	15.7095
-38.729	440.624	15.729
-38.7276	435.857	15.7485
-38.7267	434.21	15.7681
-38.7254	435.107	15.7876
-38.7226	439.214	15.8071
-38.722	434.954	15.82666
-38.7194	439.344	15.8462
-38.7181	437.766	15.8657
-38.7164	438.697	15.8853
-38.7139	436.7869	15.9048
-38.715	443.717	15.9243
-38.7116	440.071	15.9438
-38.7097	439.966	15.9634
-38.7091	439.846	15.98291
-38.7066	443.941	16.0024
-38.7046	438.408	16.022
-38.7044	442.741	16.0415
-38.7011	443.91	16.061
-38.7003	440.91	16.0806
-38.6989	441.708	16.1001
-38.6962	446.017	16.1196
-38.6954	440.6824	16.13916
-38.6937	443.916	16.1587
-38.6929	449.234	16.1782
-38.6902	442.667	16.1978
-38.6885	441.309	16.2173
-38.6879	448.214	16.2368
-38.6847	446.057	16.2563
-38.6841	443.991	16.2759
-38.6826	449.347	16.29541
-38.68055	444.303	16.3149
-38.6795	444.886	16.3345
-38.6783	450.075	16.354
-38.6754	451.279	16.3735
-38.6745	444.545	16.3931
-38.6717	450.825	16.4126
-38.6717	449.742	16.4321
-38.6687	448.555	16.45166
-38.668	447.422	16.4712
-38.6659	454.061	16.4907
-38.6644	449.518	16.5103
-38.6622	450.02	16.5298
-38.66151	450.025	16.5493
-38.6604	452.412	16.5688
-38.6566	446.911	16.5884
-38.65609	455.818	16.60791
-38.6558	455.441	16.6274
-38.6528	450.324	16.647
-38.6515	452.002	16.6665
-38.6497	457.308	16.686
-38.6481	450.446	16.7056
-38.6455	455.209	16.7251
-38.645	456.7612	16.7446
-38.6428	450.411	16.76416
-38.6423	452.12	16.7837
-38.6407	459.721	16.8032
-38.6394	452.619	16.8228
-38.63747	454.887	16.8423
-38.6351	461.416	16.8618
-38.63361	454.301	16.8813
-38.63232	451.786	16.9009
-38.6288	460.107	16.92041
-38.6291	456.707	16.9399
-38.6271	453.683	16.9595
-38.6249	461.724	16.979
-38.6237	458.413	16.9985
-38.6227	453.217	17.0181
-38.6208	460.069	17.0376
-38.6198	463.052	17.0571
-38.6166	456.239	17.07666
-38.61533	460.186	17.0962
-38.61367	459.628	17.1157
-38.6122	458.422	17.1353
-38.6106	456.322	17.1548
-38.6086	463.448	17.1743
-38.6078	459.0621	17.1938
-38.6061	460.429	17.2134
-38.6045	461.008	17.23291
-38.6028	463.222	17.2524
-38.6009	456.06	17.272
-38.5988	463.888	17.2915
-38.5977	465.992	17.311
-38.5968	458.735	17.3306
-38.59515	458.6882	17.3501
-38.5937	466.34	17.3696
-38.5908	458.263	17.38916
-38.5906	462.8942	17.4087
-38.5883	465.865	17.4282
-38.5856	460.274	17.4478
-38.5854	458.875	17.4673
-38.5829	468.166	17.4868
-38.5816	461.091	17.5063
-38.58	460.34	17.5259
-38.5789	465.28	17.54541
-38.5766	462.983	17.5649
-38.5756	458.659	17.5845
-38.5741	465.689	17.604
-38.5707	466.041	17.6235
-38.57058	459.921	17.6431
-38.5683	467.4292	17.6626
-38.5662	465.04	17.6821
-38.5658	462.225	17.70166
-38.5632	463.985	17.7212
-38.5616	468.689	17.7407
-38.5603	463.456	17.7603
-38.5592	464.6438	17.7798
-38.5571	464.2674	17.7993
-38.5544	465.82	17.8188
-38.5555	461.612	17.8384
-38.5517	471.68	17.85791
-38.5499	466.279	17.8774
-38.5491	464.18	17.897
-38.5479	466.4924	17.9165
-38.5466	470.388	17.936
-38.5442	461.9075	17.9556
-38.54211	465.762	17.9751
-38.5417	468.291	17.9946
-38.5397	464.548	18.01416
-38.5385	462.82	18.0337
-38.5355	471.413	18.0532
-38.5344	462.9415	18.0728
-38.533	464.806	18.0923
-38.5305	471.571	18.1118
-38.5294	464.829	18.1313
-38.5281	461.475	18.1509
-38.52562	471.633	18.17041
-38.5242	467.716	18.1899
-38.5234	463.009	18.2095
-38.5214	468.762	18.229
-38.5198	467.858	18.2485
-38.5185	461.516	18.2681
-38.5155	469.246	18.2876
-38.5145	471.2684	18.3071
-38.5129	463.903	18.32666
-38.5114	466.668	18.3462
-38.51	470.0015	18.3657
-38.509	464.092	18.3853
-38.5074	466.007	18.4048
-38.5045	470.381	18.4243
-38.5022	466.356	18.4438
-38.5022	466.872	18.4634
-38.5	469.347	18.48291
-38.4991	468.595	18.5024
-38.4974	464.707	18.522
-38.4952	471.876	18.5415
-38.4929	470.647	18.561
-38.4917	464.6843	18.5806
-38.4894	466.4949	18.6001
-38.4885	472.552	18.6196
-38.4865	463.726	18.63916
-38.48555	467.217	18.6587
-38.4838	471.357	18.6782
-38.4822	466.9068	18.6978
-38.4811	462.649	18.7173
-38.4791	473.79	18.7368
-38.478	465.586	18.7563
-38.4755	467.385	18.7759
-38.4749	471.621	18.79541
-38.4721	470.192	18.8149
-38.4696	462.548	18.8345
-38.4696	469.809	18.854
-38.46796	467.942	18.8735
-38.4658	465.214	18.8931
-38.46431	469.609	18.9126
-38.4628	469.1351	18.9321
-38.4613	462.928	18.95166
-38.46	469.243	18.9712
-38.4578	473.697	18.9907
-38.4565	465.952	19.0103
-38.4537	467.927	19.0298
-38.4528	470.11	19.0493
-38.4511	467.529	19.0688
-38.4513	466.395	19.0884
-38.4483	472.306	19.10791
-38.4467	468.281	19.1274
-38.4452	467.182	19.147
-38.4428	467.789	19.1665
-38.4414	471.342	19.186
-38.43935	463.844	19.2056
-38.4388	470.64	19.2251
-38.4362	471.318	19.2446
-38.4358	466.554	19.26416
-38.4332	464.79	19.2837
-38.4309	473.292	19.3032
-38.42981	466.629	19.3228
-38.4291	468.041	19.3423
-38.4274	472.794	19.3618
-38.426	467.759	19.3813
-38.4227	463.311	19.4009
-38.4223	474.406	19.42041
-38.42136	468.86	19.4399
-38.4186	465.459	19.4595
-38.417	470.174	19.479
-38.4149	469.7121	19.4985
-38.41328	463.062	19.5181
-38.4135	469.7352	19.5376
-38.4107	472.172	19.5571
-38.40926	465.731	19.57666
-38.4078	468.862	19.5962
-38.406	471.675	19.6157
-38.4038	464.2717	19.6353
-38.4032	466.996	19.6548
-38.4016	472.079	19.6743
-38.3987	466.367	19.6938
-38.3974	467.02	19.7134
-38.39592	469.517	19.73291
-38.3941	469.356	19.7524
-38.3939	464.412	19.772
-38.3913	471.547	19.7915
-38.38979	470.1438	19.811
-38.3879	466.435	19.8306
-38.3857	467.539	19.8501
-38.3854	472.879	19.8696
-38.3832	465.647	19.88916
-38.3811	468.632	19.9087
-38.3786	471.365	19.9282
-38.3782	470.189	19.9478
-38.3768	463.771	19.9673
-38.37508	473.417	19.9868
-38.3733	468.585	20.0063
-38.3725	463.265	20.0161

Data Header:			0.254_hd_dimension_typeiv_4545_r0			Time:	40.0217	s	4/13/2019 8:16:54 PM
Data Acquisition:	Timed
Station Name:	ft40.cfg
Test File Name:	monotonic_0.2540_typeiv_hd_4545_dimension.tst
Displacement	Force	Running Time
mm	N	s
-38.3722	466.2948	20.0259
-38.37	472.458	20.04541
-38.3681	470.491	20.0649
-38.366	461.299	20.0845
-38.365	470.7081	20.104
-38.3636	469.69	20.1235
-38.3605	465.884	20.1431
-38.35952	468.06	20.1626
-38.3585	470.751	20.1821
-38.3573	464.692	20.20166
-38.3547	468.884	20.2212
-38.3529	471.39	20.2407
-38.35223	465.115	20.2603
-38.3512	467.309	20.2798
-38.3482	470.344	20.2993
-38.3475	464.512	20.3188
-38.3452	464.846	20.3384
-38.3444	471.048	20.35791
-38.3429	467.593	20.3774
-38.3409	466.539	20.397
-38.3386	469.003	20.4165
-38.3372	470.249	20.436
-38.3362	464.368	20.4556
-38.3353	468.364	20.4751
-38.3324	471.562	20.4946
-38.3313	465.352	20.51416
-38.3294	466.246	20.5337
-38.3278	473.359	20.5532
-38.3257	467.106	20.5728
-38.3262	466.1525	20.5923
-38.323	472.198	20.6118
-38.3214	469.749	20.6313
-38.3195	464.34	20.6509
-38.317	472.814	20.67041
-38.3162	468.556	20.6899
-38.3147	465.211	20.7095
-38.3124	472.2341	20.729
-38.3115	471.84	20.7485
-38.3095	462.459	20.7681
-38.3078	471.357	20.7876
-38.3075	470.422	20.8071
-38.3043	466.543	20.82666
-38.3031	468.701	20.8462
-38.30109	469.879	20.8657
-38.3001	465.629	20.8853
-38.2996	468.159	20.9048
-38.2963	473.215	20.9243
-38.29549	467.017	20.9438
-38.2936	464.533	20.9634
-38.2913	471.715	20.98291
-38.2907	467.5	21.0024
-38.289	463.864	21.022
-38.2874	469.424	21.0415
-38.2867	468.937	21.061
-38.2834	467.241	21.0806
-38.2822	466.476	21.1001
-38.2813	470.932	21.1196
-38.2796	464.77	21.13916
-38.2769	469.612	21.1587
-38.2743	472.549	21.1782
-38.2742	468.473	21.1978
-38.2724	462.778	21.2173
-38.26918	472.591	21.2368
-38.2687	467.452	21.2563
-38.2683	467.434	21.2759
-38.2654	470.697	21.29541
-38.264	470.28	21.3149
-38.2628	461.898	21.3345
-38.2606	473.875	21.354
-38.25885	469.029	21.3735
-38.2576	464.322	21.3931
-38.256	468.758	21.4126
-38.255	473.27	21.4321
-38.254	462.626	21.45166
-38.2515	469.399	21.4712
-38.2489	470.699	21.4907
-38.2479	467.832	21.5103
-38.2466	468.12	21.5298
-38.2438	472.73	21.5493
-38.2425	465.038	21.5688
-38.2416	466.772	21.5884
-38.2397	471.586	21.60791
-38.2384	468.259	21.6274
-38.2364	464.4	21.647
-38.2353	468.642	21.6665
-38.2328	468.901	21.686
-38.2325	467.503	21.7056
-38.2295	468.884	21.7251
-38.2289	471.569	21.7446
-38.2257	466.726	21.76416
-38.2251	466.897	21.7837
-38.2243	472.661	21.8032
-38.2213	465.941	21.8228
-38.2203	467.885	21.8423
-38.2176	472.38	21.8618
-38.2166	468.308	21.8813
-38.2152	462.406	21.9009
-38.2149	472.529	21.92041
-38.2122	468.477	21.9399
-38.2109	465.668	21.9595
-38.2093	471.091	21.979
-38.2068	471.939	21.9985
-38.2051	461.314	22.0181
-38.2045	472.514	22.0376
-38.2023	470.961	22.0571
-38.2006	466.934	22.07666
-38.1993	468.468	22.0962
-38.1979	472.8129	22.1157
-38.19585	465.638	22.1353
-38.1941	469.062	22.1548
-38.1925	470.093	22.1743
-38.1911	467.953	22.1938
-38.189	466.374	22.2134
-38.1873	471.751	22.23291
-38.1864	465.9046	22.2524
-38.183	464.844	22.272
-38.18277	469.056	22.2915
-38.1811	473.604	22.311
-38.179	466.63	22.3306
-38.178	468.009	22.3501
-38.17646	470.353	22.3696
-38.1749	465.5899	22.38916
-38.1728	467.963	22.4087
-38.1712	471.209	22.4282
-38.16964	467.266	22.4478
-38.1693	465.201	22.4673
-38.1662	472.593	22.4868
-38.1652	467.637	22.5063
-38.1631	466.497	22.5259
-38.162	471.756	22.54541
-38.1606	471.443	22.5649
-38.1576	464.605	22.5845
-38.1566	471.937	22.604
-38.1557	469.089	22.6235
-38.1533	466.426	22.6431
-38.152	471.114	22.6626
-38.15004	472.368	22.6821
-38.148	462.207	22.70166
-38.1476	470.078	22.7212
-38.1455	472.129	22.7407
-38.1433	467.66	22.7603
-38.1423	466.311	22.7798
-38.1418	471.85	22.7993
-38.139	465.065	22.8188
-38.1373	468.341	22.8384
-38.1349	470.478	22.85791
-38.1322	469.091	22.8774
-38.1323	465.28	22.897
-38.131	471.433	22.9165
-38.1294	469.172	22.936
-38.127	466.748	22.9556
-38.1262	468.2955	22.9751
-38.1243	472.147	22.9946
-38.1218	466.621	23.01416
-38.1203	467.532	23.0337
-38.1195	469.977	23.0532
-38.1169	466.12	23.0728
-38.1165	466.3	23.0923
-38.1147	473.111	23.1118
-38.1132	468.571	23.1313
-38.111	462.481	23.1509
-38.1091	469.951	23.17041
-38.1077	469.711	23.1899
-38.1073	465.405	23.2095
-38.1056	469.45	23.229
-38.1023	470.643	23.2485
-38.1007	463.247	23.2681
-38.1004	471.286	23.2876
-38.0976	471.5672	23.3071
-38.0965	465.869	23.32666
-38.0947	469.141	23.3462
-38.0934	473.726	23.3657
-38.0918	463.253	23.3853
-38.0905	466.807	23.4048
-38.08812	470.07	23.4243
-38.0878	468.275	23.4438
-38.0853	466.623	23.4634
-38.0837	471.042	23.48291
-38.0813	464.562	23.5024
-38.0801	465.626	23.522
-38.07856	470.228	23.5415
-38.0766	470.437	23.561
-38.0757	464.949	23.5806
-38.0743	469.116	23.6001
-38.0724	468.583	23.6196
-38.0696	467.24	23.63916
-38.0689	466.405	23.6587
-38.0673	470.326	23.6782
-38.0646	466.432	23.6978
-38.0639	465.747	23.7173
-38.0622	468.41	23.7368
-38.0606	465.761	23.7563
-38.0598	465.1799	23.7759
-38.0578	470.262	23.79541
-38.0556	470.476	23.8149
-38.0528	462.402	23.8345
-38.0532	467.895	23.854
-38.04995	471.18	23.8735
-38.0496	464.073	23.8931
-38.0462	466.541	23.9126
-38.0462	471.4906	23.9321
-38.0437	461.331	23.95166
-38.0429	466.98	23.9712
-38.0407	469.504	23.9907
-38.0396	466.993	24.0103
-38.0379	465.8537	24.0298
-38.0362	471.414	24.0493
-38.0348	465.817	24.0688
-38.0321	466.039	24.0884
-38.0312	469.812	24.10791
-38.029	468.92	24.1274
-38.02877	466.4967	24.147
-38.0258	471.474	24.1665
-38.0258	465.83	24.186
-38.0234	464.28	24.2056
-38.022	468.417	24.2251
-38.01907	471.539	24.2446
-38.0183	465.858	24.26416
-38.0176	466.821	24.2837
-38.0156	467.232	24.3032
-38.0138	467.98	24.3228
-38.0113	466.305	24.3423
-38.0099	471.033	24.3618
-38.0093	467.532	24.3813
-38.0067	463.812	24.4009
-38.0049	469.452	24.42041
-38.0029	468.331	24.4399
-38.0013	464.131	24.4595
-37.9998	468.856	24.479
-37.9986	470.013	24.4985
-37.9961	462.552	24.5181
-37.9967	466.521	24.5376
-37.9934	469.383	24.5571
-37.9926	464.889	24.57666
-37.992	468.168	24.5962
-37.9887	472.361	24.6157
-37.9878	462.519	24.6353
-37.9862	466.166	24.6548
-37.9839	469.625	24.6743
-37.9827	467.281	24.6938
-37.9807	464.6734	24.7134
-37.9791	470.234	24.73291
-37.9766	465.732	24.7524
-37.9769	466.2218	24.772
-37.9753	468.64	24.7915
-37.97369	468.787	24.811
-37.9714	464.425	24.8306
-37.96965	470.714	24.8501
-37.9674	466.744	24.8696
-37.9673	466.039	24.88916
-37.9644	465.461	24.9087
-37.9632	471.043	24.9282
-37.9614	467.058	24.9478
-37.9601	464.968	24.9673
-37.9583	467.005	24.9868
-37.9574	468.799	25.0063
-37.9546	465.571	25.0259
-37.9534	470.435	25.04541
-37.9512	469.1879	25.0649
-37.9502	462.68	25.0845
-37.9482	469.627	25.104
-37.947	472.315	25.1235
-37.9453	463.847	25.1431
-37.9428	466.942	25.1626
-37.9416	472.953	25.1821
-37.9393	464.427	25.20166
-37.9382	466.0997	25.2212
-37.9361	469.811	25.2407
-37.9366	466.032	25.2603
-37.9329	466.233	25.2798
-37.9322	472.04	25.2993
-37.9304	464.267	25.3188
-37.9293	465.024	25.3384
-37.9268	470.62	25.35791
-37.9262	469.6438	25.3774
-37.9242	465.348	25.397
-37.9222	470.127	25.4165
-37.9211	465.812	25.436
-37.9201	466.419	25.4556
-37.9166	468.7211	25.4751
-37.9159	470.873	25.4946
-37.9147	463.2973	25.51416
-37.9121	468.906	25.5337
-37.9113	468.031	25.5532
-37.9095	468.225	25.5728
-37.9083	464.796	25.5923
-37.906	470.035	25.6118
-37.9053	468.261	25.6313
-37.9027	464.645	25.6509
-37.9011	466.573	25.67041
-37.8989	468.166	25.6899
-37.8981	464.535	25.7095
-37.8959	470.26	25.729
-37.8945	470.678	25.7485
-37.8918	462.653	25.7681
-37.8915	466.057	25.7876
-37.8899	472.819	25.8071
-37.8884	467.045	25.82666
-37.886	464.187	25.8462
-37.8839	472.255	25.8657
-37.8829	464.4675	25.8853
-37.8822	465.184	25.9048
-37.87923	471.133	25.9243
-37.8783	467.046	25.9438
-37.87682	463.188	25.9634
-37.8756	471.552	25.98291
-37.8734	466.127	26.0024
-37.8709	463.676	26.022
-37.8693	467.782	26.0415
-37.8701	471.5881	26.061
-37.867	465.177	26.0806
-37.8652	470.4509	26.1001
-37.8644	467.955	26.1196
-37.86211	466.283	26.13916
-37.8609	466.181	26.1587
-37.8591	472.42	26.1782
-37.8574	466.002	26.1978
-37.8554	467.2034	26.2173
-37.8537	468.718	26.2368
-37.8524	468.884	26.2563
-37.8504	464.355	26.2759
-37.8487	470.8237	26.29541
-37.84832	468.23	26.3149
-37.8457	464.455	26.3345
-37.8443	467.528	26.354
-37.8424	469.511	26.3735
-37.84103	463.4838	26.3931
-37.8396	468.341	26.4126
-37.8381	472.456	26.4321
-37.836	463.262	26.45166
-37.8351	463.775	26.4712
-37.8337	471.469	26.4907
-37.8313	466.451	26.5103
-37.82935	465.536	26.5298
-37.8275	472.343	26.5493
-37.8261	465.167	26.5688
-37.8239	464.8898	26.5884
-37.8232	469.746	26.60791
-37.8212	466.448	26.6274
-37.8203	464.6651	26.647
-37.8175	470.281	26.6665
-37.8158	467.393	26.686
-37.8144	465.201	26.7056
-37.8124	467.231	26.7251
-37.8125	470.509	26.7446
-37.8101	463.868	26.76416
-37.8089	468.274	26.7837
-37.8071	468.687	26.8032
-37.8057	467.05	26.8228
-37.8035	465.132	26.8423
-37.8014	471.827	26.8618
-37.8002	467.861	26.8813
-37.7984	465.349	26.9009
-37.7967	466.432	26.92041
-37.7957	468.404	26.9399
-37.7943	464.464	26.9595
-37.7927	469.492	26.979
-37.7903	468.477	26.9985
-37.7896	463.95	27.0181
-37.78783	466.2955	27.0376
-37.7852	472.917	27.0571
-37.7842	462.972	27.07666
-37.7816	468.436	27.0962
-37.7795	472.751	27.1157
-37.7796	464.776	27.1353
-37.7757	463.052	27.1548
-37.7762	470.007	27.1743
-37.7744	465.732	27.1938
-37.7722	463.994	27.2134
-37.7711	471.476	27.23291
-37.7686	465.724	27.2524
-37.7667	461.3819	27.272
-37.76553	468.694	27.2915
-37.7649	470.795	27.311
-37.7634	463.215	27.3306
-37.7613	468.243	27.3501
-37.7587	466.656	27.3696
-37.7574	465.706	27.38916
-37.75515	466.09	27.4087
-37.75502	470.461	27.4282
-37.7523	464.383	27.4478
-37.7525	468.2023	27.4673
-37.75	469.317	27.4868
-37.7486	466.832	27.5063
-37.7463	462.601	27.5259
-37.7442	469.6	27.54541
-37.7436	469.475	27.5649
-37.7418	466.05	27.5845
-37.7404	466.108	27.604
-37.7382	471.479	27.6235
-37.7376	463.04	27.6431
-37.7353	469.2016	27.6626
-37.7326	471.813	27.6821
-37.7322	462.684	27.70166
-37.72971	462.66	27.7212
-37.72963	472.599	27.7407
-37.7267	465.007	27.7603
-37.72533	465.1282	27.7798
-37.7235	470.002	27.7993
-37.7225	466.509	27.8188
-37.7212	462.105	27.8384
-37.7188	469.892	27.85791
-37.7184	467.784	27.8774
-37.7164	462.69	27.897
-37.7129	469.665	27.9165
-37.7125	469.4187	27.936
-37.71022	462.197	27.9556
-37.70903	466.649	27.9751
-37.7072	470.707	27.9946
-37.7062	464.2644	28.01416
-37.7028	467.363	28.0337
-37.7033	467.272	28.0532
-37.6999	464.255	28.0728
-37.6995	464.28	28.0923
-37.69772	470.054	28.1118
-37.6964	465.263	28.1313
-37.6952	463.199	28.1509
-37.6949	466.252	28.17041
-37.6908	468.365	28.1899
-37.689	462.088	28.2095
-37.6873	470.64	28.229
-37.68576	469.797	28.2485
-37.6844	465.001	28.2681
-37.6831	464.396	28.2876
-37.6808	469.699	28.3071
-37.68047	462.781	28.32666
-37.6772	468.1492	28.3462
-37.6773	470.486	28.3657
-37.6751	466.282	28.3853
-37.6731	461.4368	28.4048
-37.6715	471.544	28.4243
-37.6699	467.354	28.4438
-37.6682	464.262	28.4634
-37.6667	469.125	28.48291
-37.6653	466.265	28.5024
-37.6635	462.519	28.522
-37.6622	468.505	28.5415
-37.66	469.3443	28.561
-37.6588	461.854	28.5806
-37.657	468.117	28.6001
-37.6556	470.4884	28.6196
-37.6543	463.4	28.63916
-37.6513	465.604	28.6587
-37.65115	469.019	28.6782
-37.6491	463.743	28.6978
-37.6469	466.755	28.7173
-37.6457	466.753	28.7368
-37.6444	465.409	28.7563
-37.6424	463.932	28.7759
-37.6399	470.785	28.79541
-37.6396	467.543	28.8149
-37.6373	462.974	28.8345
-37.6348	464.29	28.854
-37.6338	470.442	28.8735
-37.6318	461.97	28.8931
-37.6316	467.408	28.9126
-37.6299	469.2002	28.9321
-37.6285	465.346	28.95166
-37.626	463.416	28.9712
-37.625	471.438	28.9907
-37.6231	463.759	29.0103
-37.62072	464.732	29.0298
-37.6204	471.311	29.0493
-37.6179	466.971	29.0688
-37.6161	461.36	29.0884
-37.61417	470.652	29.10791
-37.612	467.095	29.1274
-37.6127	462.7756	29.147
-37.6106	469.667	29.1665
-37.6084	465.328	29.186
-37.6073	459.867	29.2056
-37.6041	468.451	29.2251
-37.60284	469.7825	29.2446
-37.601	462.989	29.26416
-37.601	466.45	29.2837
-37.5977	467.806	29.3032
-37.5962	465.03	29.3228
-37.5953	463.839	29.3423
-37.5931	469.1723	29.3618
-37.5936	463.777	29.3813
-37.5899	464.829	29.4009
-37.5894	467.27	29.42041
-37.5865	467.695	29.4399
-37.5852	461.2912	29.4595
-37.5832	468.733	29.479
-37.5826	468.94	29.4985
-37.58	466.376	29.5181
-37.5791	463.104	29.5376
-37.577	470.23	29.5571
-37.5756	463.12	29.57666
-37.5742	467.259	29.5962
-37.5724	469.988	29.6157
-37.5705	465.979	29.6353
-37.5701	461.225	29.6548
-37.56741	471.0206	29.6743
-37.5655	464.198	29.6938
-37.5638	463.6	29.7134
-37.5625	469.927	29.73291
-37.5613	468.531	29.7524
-37.5605	461.32	29.772
-37.5582	469.917	29.7915
-37.5564	466.811	29.811
-37.5546	462.549	29.8306
-37.5528	468.791	29.8501
-37.5521	469.108	29.8696
-37.5507	460.903	29.88916
-37.5486	466.272	29.9087
-37.5464	472.307	29.9282
-37.54438	463.289	29.9478
-37.5435	464.911	29.9673
-37.5417	468.272	29.9868
-37.5402	465.723	30.0063
-37.5384	463.491	30.0259
-37.53598	468.747	30.04541
-37.535	465.0881	30.0649
-37.5328	464.688	30.0845
-37.5317	467.2804	30.104
-37.5301	469.4101	30.1235
-37.5293	462.2572	30.1431
-37.5264	466.807	30.1626
-37.5245	469.399	30.1821
-37.5237	466.854	30.20166
-37.522	463.0564	30.2212
-37.5208	470.466	30.2407
-37.5179	463.381	30.2603
-37.5171	465.76	30.2798
-37.5149	470.394	30.2993
-37.5127	466.3335	30.3188
-37.513	459.1597	30.3384
-37.5108	470.448	30.35791
-37.5083	467.5755	30.3774
-37.5073	463.699	30.397
-37.5068	467.832	30.4165
-37.5046	469.271	30.436
-37.5022	460.717	30.4556
-37.5017	469.958	30.4751
-37.4991	468.093	30.4946
-37.4978	462.8172	30.51416
-37.49506	467.479	30.5337
-37.4934	470.7	30.5532
-37.4935	462.349	30.5728
-37.4904	463.971	30.5923
-37.49052	469.3609	30.6118
-37.488	465.862	30.6313
-37.4857	464.292	30.6509
[...]
-37.2876	466.025	33.0337
-37.28521	468.451	33.0532
-37.28474	460.985	33.0728
-37.2824	464.713	33.0923
-37.281	467.592	33.1118
-37.27898	464.154	33.1313
-37.2779	462.863	33.1509
-37.276	469.345	33.17041
-37.2744	463.964	33.1899
-37.27227	462.663	33.2095
-37.2711	464.437	33.229
-37.2699	467.217	33.2485
-37.2674	463.895	33.2681
-37.2664	465.637	33.2876
-37.2655	466.076	33.3071
-37.2623	463.016	33.32666
-37.2614	465.162	33.3462
-37.2612	469.443	33.3657
-37.259	465.289	33.3853
-37.2571	461.6788	33.4048
-37.2545	468.243	33.4243
-37.2535	466.304	33.4438
-37.25248	463.319	33.4634
-37.2504	467.011	33.48291
-37.2486	468.2832	33.5024
-37.2465	460.353	33.522
-37.2452	470.273	33.5415
-37.24398	465.241	33.561
-37.2414	461.845	33.5806
-37.2402	466.756	33.6001
-37.2391	471.07	33.6196
-37.2381	460.498	33.63916
-37.2349	465.191	33.6587
-37.2337	469.471	33.6782
-37.2322	464.942	33.6978
-37.2305	464.548	33.7173
-37.229	467.8573	33.7368
-37.2273	461.359	33.7563
-37.2255	463.927	33.7759
-37.2236	469.618	33.79541
-37.2219	467.362	33.8149
-37.22036	462.341	33.8345
-37.2193	466.541	33.854
-37.2181	463.896	33.8735
-37.2154	463.916	33.8931
-37.2148	465.964	33.9126
-37.2128	467.94	33.9321
-37.2102	461.954	33.95166
-37.2092	465.031	33.9712
-37.2072	465.7655	33.9907
-37.20623	463.0632	34.0103
-37.2045	461.257	34.0298
-37.2027	467.297	34.0493
-37.2014	466.028	34.0688
-37.1997	460.355	34.0884
-37.1977	467.342	34.10791
-37.1969	465.868	34.1274
-37.1949	463.067	34.147
-37.1935	466.767	34.1665
-37.1909	467.005	34.186
-37.1911	460.983	34.2056
-37.1881	466.302	34.2251
-37.1869	467.07	34.2446
-37.186	462.311	34.26416
-37.184	463.337	34.2837
-37.18124	470.2753	34.3032
-37.1796	459.869	34.3228
-37.177	462.986	34.3423
-37.1767	467.123	34.3618
-37.1759	464.347	34.3813
-37.1732	464.362	34.4009
-37.17276	468.687	34.42041
-37.171	462.82	34.4399
-37.16848	462.582	34.4595
-37.1671	466.11	34.479
-37.1649	468.2623	34.4985
-37.1627	462.152	34.5181
-37.1634	465.936	34.5376
-37.1602	465.211	34.5571
-37.1585	464.322	34.57666
-37.15789	462.937	34.5962
-37.1556	466.691	34.6157
-37.1542	463.824	34.6353
-37.1528	462.976	34.6548
-37.1514	466.789	34.6743
-37.1494	464.409	34.6938
-37.1469	463.057	34.7134
-37.1458	467.206	34.73291
-37.1443	468.134	34.7524
-37.1428	460.131	34.772
-37.1406	464.508	34.7915
-37.1386	466.2587	34.811
-37.1374	462.134	34.8306
-37.13591	466.109	34.8501
-37.1344	469.021	34.8696
-37.133	458.203	34.88916
-37.1309	465.416	34.9087
-37.1295	468.909	34.9282
-37.1281	464.633	34.9478
-37.1257	463.348	34.9673
-37.125	469.484	34.9868
-37.1243	462.851	35.0063
-37.1221	463.448	35.0259
-37.1193	467.375	35.04541
-37.119	467.115	35.0649
-37.11618	463.797	35.0845
-37.11549	469.347	35.104
-37.114	463.658	35.1235
-37.111	463.71	35.1431
-37.111	464.658	35.1626
-37.1085	468.133	35.1821
-37.1056	463.202	35.20166
-37.1049	463.236	35.2212
-37.1031	464.759	35.2407
-37.1037	464.019	35.2603
-37.10091	463.646	35.2798
-37.0983	468.184	35.2993
-37.0965	464.211	35.3188
-37.0948	461.383	35.3384
-37.0936	465.752	35.35791
-37.0917	466.278	35.3774
-37.0907	461.798	35.397
-37.08831	465.648	35.4165
-37.08622	469.373	35.436
-37.0857	460.169	35.4556
-37.0831	464.549	35.4751
-37.0813	466.814	35.4946
-37.0811	462.155	35.51416
-37.0792	464.854	35.5337
-37.0769	471.8522	35.5532
-37.0774	461.756	35.5728
-37.0737	463.275	35.5923
-37.0735	468.709	35.6118
-37.0702	464.625	35.6313
-37.0698	463.133	35.6509
-37.06794	467.998	35.67041
-37.0658	463.38	35.6899
-37.0646	462.399	35.7095
-37.06242	465.887	35.729
-37.0601	466.949	35.7485
-37.0597	461.303	35.7681
-37.0579	464.7999	35.7876
-37.0566	462.8667	35.8071
-37.0554	464.039	35.82666
-37.0523	463.173	35.8462
-37.0512	469.138	35.8657
-37.0498	463.0365	35.8853
-37.0489	465.011	35.9048
-37.0473	464.2001	35.9243
-37.0436	464.345	35.9438
-37.0434	460.144	35.9634
-37.0415	468.377	35.98291
-37.0399	466.256	36.0024
-37.0384	458.567	36.022
-37.0367	464.792	36.0415
-37.0354	467.165	36.061
-37.0337	462.086	36.0806
-37.0316	465.015	36.1001
-37.0308	468.03	36.1196
-37.0285	459.235	36.13916
-37.0265	462.522	36.1587
-37.0255	468.248	36.1782
-37.0228	462.875	36.1978
-37.0223	460.818	36.2173
-37.0207	469.254	36.2368
-37.0181	460.873	36.2563
-37.0179	461.731	36.2759
-37.0148	466.278	36.29541
-37.0142	465.541	36.3149
-37.0131	461.093	36.3345
-37.0106	468.524	36.354
-37.0089	462.053	36.3735
-37.0083	460.641	36.3931
-37.0054	465.071	36.4126
-37.0047	468.344	36.4321
-37.00322	460.291	36.45166
-37.0013	461.62	36.4712
-36.9991	464.521	36.4907
-36.9977	462.9516	36.5103
-36.9956	461.945	36.5298
-36.9939	466.365	36.5493
-36.99292	462.986	36.5688
-36.9905	461.987	36.5884
-36.9893	465.01	36.60791
-36.9892	466.324	36.6274
-36.986	459.723	36.647
-36.9858	467.014	36.6665
-36.9833	467.565	36.686
-36.9807	459.211	36.7056
-36.9801	462.383	36.7251
-36.9792	466.689	36.7446
-36.9764	461.505	36.76416
-36.9753	462.54	36.7837
-36.9735	467.2558	36.8032
-36.9711	460.875	36.8228
-36.9702	462.479	36.8423
-36.9685	468.28	36.8618
-36.9675	463.559	36.8813
-36.9657	461.431	36.9009
-36.9631	467.167	36.92041
-36.9619	462.967	36.9399
-36.9599	461.043	36.9595
-36.9587	464.208	36.979
-36.9573	465.612	36.9985
-36.95517	460.691	37.0181
-36.9532	465.785	37.0376
-36.9513	464.639	37.0571
-36.95153	461.654	37.07666
-36.9488	460.882	37.0962
-36.9484	469.489	37.1157
-36.946	463.1449	37.1353
-36.94418	462.936	37.1548
-36.9434	464.5744	37.1743
-36.9403	464.979	37.1938
-36.9396	461.463	37.2134
-36.9372	466.839	37.23291
-36.9357	465.706	37.2524
-36.935	462.475	37.272
-36.93161	465.186	37.2915
-36.931	466.624	37.311
-36.9299	458.206	37.3306
-36.92799	462.9082	37.3501
-36.9257	467.2782	37.3696
-36.9247	461.197	37.38916
-36.9234	460.802	37.4087
-36.92149	466.887	37.4282
-36.9201	461.781	37.4478
-36.91679	462.753	37.4673
-36.9162	468.522	37.4868
-36.9144	461.977	37.5063
-36.9136	460.4	37.5259
-36.9112	467.605	37.54541
-36.9104	465.588	37.5649
-36.909	460.381	37.5845
-36.9062	466.806	37.604
-36.905	463.116	37.6235
-36.9029	460.638	37.6431
-36.901	464.074	37.6626
-36.9004	467.517	37.6821
-36.8981	460.7269	37.70166
-36.8969	464.42	37.7212
-36.8943	465.213	37.7407
-36.8935	464.133	37.7603
-36.89209	461.335	37.7798
-36.8914	468.7659	37.7993
-36.8889	465.74	37.8188
-36.8872	462.127	37.8384
-36.8863	463.94	37.85791
-36.8837	465.573	37.8774
-36.8819	460.0318	37.897
-36.88068	466.393	37.9165
-36.8785	468.546	37.936
-36.8776	459.7569	37.9556
-36.8763	460.465	37.9751
-36.87384	468.64	37.9946
-36.8716	461.756	38.01416
-36.87122	461.618	38.0337
-36.86779	468.421	38.0532
-36.86842	461.483	38.0728
-36.8651	459.638	38.0923
-36.8645	466.6897	38.1118
-36.8622	464.003	38.1313
-36.8604	460.673	38.1509
-36.8592	469.1926	38.17041
-36.8576	462.387	38.1899
-36.8556	460.492	38.2095
-36.8547	464.227	38.229
-36.8536	467.4826	38.2485
-36.851	459.65	38.2681
-36.848	466.128	38.2876
-36.8481	464.173	38.3071
-36.8466	462.098	38.32666
-36.8433	464.261	38.3462
-36.8448	467.545	38.3657
-36.8411	460.711	38.3853
-36.8401	463.226	38.4048
-36.8382	464.6304	38.4243
-36.8366	464.133	38.4438
-36.8342	459.277	38.4634
-36.8336	466.848	38.48291
-36.8315	466.723	38.5024
-36.8294	462.026	38.522
-36.8284	462.332	38.5415
-36.8272	468.414	38.561
-36.8247	458.1463	38.5806
-36.824	466.119	38.6001
-36.8219	467.356	38.6196
-36.82151	460.786	38.63916
-36.819	459.481	38.6587
-36.8168	468.378	38.6782
-36.8154	461.023	38.6978
-36.8135	463.353	38.7173
-36.8126	468.065	38.7368
-36.81012	464.224	38.7563
-36.8095	459.416	38.7759
-36.8072	466.941	38.79541
-36.806	463.571	38.8149
-36.8036	458.499	38.8345
-36.802	466.252	38.854
-36.8	466.05	38.8735
-36.79945	459.8569	38.8931
-36.7986	462.183	38.9126
-36.7949	465.544	38.9321
-36.79406	459.745	38.95166
-36.7923	463.1452	38.9712
-36.7909	464.345	38.9907
-36.78986	461.38	39.0103
-36.7873	460.7442	39.0298
-36.7861	468	39.0493
-36.7843	463.3779	39.0688
-36.7827	460.2327	39.0884
-36.7814	463.798	39.10791
-36.7806	464.778	39.1274
-36.7784	458.926	39.147
-36.7759	465.265	39.1665
-36.7758	464.866	39.186
-36.7727	460.991	39.2056
-36.7714	463.094	39.2251
-36.7695	468.362	39.2446
-36.7673	459.812	39.26416
-36.7662	462.29	39.2837
-36.766	467.865	39.3032
-36.7633	461.081	39.3228
-36.76236	457.473	39.3423
-36.7596	466.822	39.3618
-36.7587	461.098	39.3813
-36.7563	459.847	39.4009
-36.7554	466.21	39.42041
-36.7529	462.386	39.4399
-36.7523	457.791	39.4595
-36.7504	464.649	39.479
-36.749	466.101	39.4985
-36.7478	459.773	39.5181
-36.7455	463.021	39.5376
-36.7436	464.113	39.5571
-36.7423	459.601	39.57666
-36.7404	462.656	39.5962
-36.739	465.226	39.6157
-36.7378	461.198	39.6353
-36.7354	462.216	39.6548
-36.7348	462.7019	39.6743
-36.7321	462.827	39.6938
-36.7314	458.178	39.7134
-36.7304	466.684	39.73291
-36.7278	463.039	39.7524
-36.7263	461.0318	39.772
-36.7228	459.609	39.7915
-36.7228	464.88	39.811
-36.72163	459.029	39.8306
-36.7192	463.467	39.8501
-36.7173	464.207	39.8696
-36.7163	458.966	39.88916
-36.7143	459.174	39.9087
-36.71331	466.107	39.9282
-36.7107	459.367	39.9478
-36.7101	459.78	39.9673
-36.7074	464.083	39.9868
-36.7068	462.09	40.0063
-36.705	459.475	40.0161

Data Header:			0.254_hd_dimension_typeiv_4545_r0			Time:	44.1367	s	4/13/2019 8:16:58 PM
Data Acquisition:	Timed
Station Name:	ft40.cfg
Test File Name:	monotonic_0.2540_typeiv_hd_4545_dimension.tst
Displacement	Force	Running Time
mm	N	s
-36.7049	457.729	40.0259
-36.7036	462.606	40.0356
-36.7024	465.357	40.04541
-36.7028	466.5675	40.0552
-36.7019	461.117	40.0649
-36.7008	456.561	40.0747
-36.70013	458.513	40.0845
-36.6997	459.569	40.0942
-36.6987	467.015	40.104
-36.6975	465.167	40.11377
-36.697	464.485	40.1235
-36.6956	463.01	40.1333
-36.6955	456.085	40.1431
-36.69408	459.679	40.1528
-36.6928	462.827	40.1626
-36.6928	465.927	40.1724
-36.6921	466.174	40.1821
-36.6912	457.196	40.1919
-36.6907	457.475	40.20166
-36.6885	461.177	40.2114
-36.6883	462.905	40.2212
-36.6867	462.45	40.231
-36.6873	462.315	40.2407
-36.6854	465.212	40.2505
-36.686	459.578	40.2603
-36.6834	458.314	40.27002
-36.6829	460.088	40.2798
-36.6825	463.889	40.2896
-36.6815	465.592	40.2993
-36.6812	462.452	40.3091
-36.6809	461.017	40.3188
-36.6796	459.723	40.3286
-36.6777	461.3251	40.3384
-36.6781	459.84	40.3481
-36.67643	462.499	40.35791
-36.6746	463.896	40.3677
-36.6751	461.6	40.3774
-36.67503	459.427	40.3872
-36.6741	456.925	40.397
-36.6726	461.319	40.4067
-36.6735	463.132	40.4165
-36.6716	462.875	40.42627
-36.6708	465.669	40.436
-36.6694	460.652	40.4458
-36.6692	460.077	40.4556
-36.6696	459.363	40.4653
-36.6685	460.704	40.4751
-36.6664	466.176	40.4849
-36.6659	463.942	40.4946
-36.6651	461.304	40.5044
-36.6642	458.614	40.51416
-36.6633	456.705	40.5239
-36.6621	462.644	40.5337
-36.6611	460.617	40.5435
-36.6612	464.36	40.5532
-36.6598	463.486	40.563
-36.6594	459.548	40.5728
-36.6584	458.894	40.58252
-36.6579	453.913	40.5923
-36.6571	460.592	40.6021
-36.6556	465.962	40.6118
-36.6552	463.993	40.6216
-36.6547	459.992	40.6313
-36.6539	454.5304	40.6411
-36.6523	458.533	40.6509
-36.6519	459.588	40.6606
-36.6517	462.866	40.67041
-36.6507	465.759	40.6802
-36.6498	462.852	40.6899
-36.6475	458.4436	40.6997
-36.6483	456.459	40.7095
-36.6468	457.822	40.7192
-36.6464	464.463	40.729
-36.6454	465.655	40.73877
-36.6454	461.687	40.7485
-36.6442	456.9512	40.7583
-36.6426	455.654	40.7681
-36.6423	458.813	40.7778
-36.6416	462.804	40.7876
-36.64	462.318	40.7974
-36.6381	462.97	40.8071
-36.6398	462.193	40.8169
-36.638	455.621	40.82666
-36.6373	457.643	40.8364
-36.6366	458.434	40.8462
-36.63625	463.764	40.856
-36.6345	463.319	40.8657
-36.6338	457.232	40.8755
-36.633	457.949	40.8853
-36.6325	456.889	40.89502
-36.6304	459.229	40.9048
-36.6304	460.818	40.9146
-36.63	460.003	40.9243
-36.6303	464.7	40.9341
-36.6288	458.844	40.9438
-36.6282	457.476	40.9536
-36.62582	457.024	40.9634
-36.6255	459.003	40.9731
-36.625	463.367	40.98291
-36.6258	459.585	40.9927
-36.6234	459.427	41.0024
-36.6222	460.497	41.0122
-36.6213	456.195	41.022
-36.6207	456.737	41.0317
-36.61993	460.508	41.0415
-36.6192	463.29	41.05127
-36.6187	461.702	41.061
-36.618	458.533	41.0708
-36.6166	455.221	41.0806
-36.6162	456.997	41.0903
-36.6149	459.784	41.1001
-36.6135	461.617	41.1099
-36.614	460.126	41.1196
-36.6121	461.374	41.1294
-36.6119	458.127	41.13916
-36.6121	455.735	41.1489
-36.61	457.729	41.1587
-36.6091	461.44	41.1685
-36.60865	463.7077	41.1782
-36.6082	460.946	41.188
-36.607	454.055	41.1978
-36.60701	454.681	41.20752
-36.606	457.177	41.2173
-36.6054	458.502	41.2271
-36.60326	464.677	41.2368
-36.6038	460.8515	41.2466
-36.6019	460.127	41.2563
-36.6012	456.603	41.2661
-36.6008	452.971	41.2759
-36.5999	457.687	41.2856
-36.5998	463.356	41.29541
-36.59837	463.261	41.3052
-36.5968	458.195	41.3149
-36.5964	454.646	41.3247
-36.5963	456.017	41.3345
-36.59391	457.106	41.3442
-36.5942	459.916	41.354
-36.5925	461.079	41.36377
-36.5929	459.496	41.3735
-36.5915	457.865	41.3833
-36.5906	453.254	41.3931
-36.5899	456.07	41.4028
-36.5887	459.0448	41.4126
-36.5893	460.897	41.4224
-36.5872	461.0098	41.4321
-36.5865	455.138	41.4419
-36.58564	453.088	41.45166
-36.5865	454.991	41.4614
-36.5842	456.387	41.4712
-36.5834	458.998	41.481
-36.584	459.967	41.4907
-36.5821	459.841	41.5005
-36.5811	453.108	41.5103
-36.58	453.132	41.52002
-36.5789	454.755	41.5298
-36.5791	460.055	41.5396
-36.5783	460.311	41.5493
-36.5767	457.002	41.5591
-36.5764	454.634	41.5688
-36.5738	453.805	41.5786
-36.5757	456.318	41.5884
-36.5733	455.199	41.5981
-36.5727	457.998	41.60791
-36.57151	461.352	41.6177
-36.5712	456.652	41.6274
-36.571	455.186	41.6372
-36.56913	451.507	41.647
-36.5688	455.932	41.6567
-36.5686	458.099	41.6665
-36.56723	456.586	41.67627
-36.5681	457.949	41.686
-36.56546	455.924	41.6958
-36.5647	452.949	41.7056
-36.5653	452.867	41.7153
-36.5647	452.5751	41.7251
-36.5611	459.061	41.7349
-36.5621	459.389	41.7446
-36.5603	455.117	41.7544
-36.5602	451.966	41.76416
-36.5589	451.1369	41.7739
-36.5585	454.0975	41.7837
-36.5571	455.056	41.7935
-36.5569	458.014	41.8032
-36.5562	457.327	41.813
-36.5556	453.856	41.8228
-36.554	450.007	41.83252
-36.5529	450.332	41.8423
-36.552	452.999	41.8521
-36.55246	459.319	41.8618
-36.5512	456.171	41.8716
-36.5503	452.766	41.8813
-36.548	449.619	41.8911
-36.5491	450.614	41.9009
-36.5472	450.476	41.9106
-36.5476	456.221	41.92041
-36.5454	455.785	41.9302
-36.544	452.544	41.9399
-36.5452	448.65	41.9497
-36.5445	443.061	41.9595
-36.5435	447.671	41.9692
-36.5421	453.511	41.979
-36.5409	453.95	41.98877
-36.5404	448.058	41.9985
-36.5395	443.797	42.0083
-36.53857	441.222	42.0181
-36.5385	434.612	42.0278
-36.5337	-76.5289	42.0376
-36.5336	-37.9352	42.0474
-36.5335	-19.9148	42.0571
-36.534	-37.6672	42.0669
-36.5318	-48.4225	42.07666
-36.5311	-47.6225	42.0864
-36.5313	-37.6868	42.0962
-36.5306	-37.3706	42.106
-36.5293	-38.50515	42.1157
-36.5288	-41.6031	42.1255
-36.5281	-44.21619	42.1353
-36.5285	-42.9798	42.14502
-36.5264	-42.6019	42.1548
-36.5249	-39.8887	42.1646
-36.5249	-38.5487	42.1743
-36.5245	-37.095	42.1841
-36.5229	-43.1309	42.1938
-36.5221	-43.74192	42.2036
-36.5229	-43.0533	42.2134
-36.5214	-41.0181	42.2231
-36.5203	-39.3966	42.23291
-36.5204	-41.2145	42.2427
-36.5189	-42.0869	42.2524
-36.51722	-40.6605	42.2622
-36.51807	-43.24192	42.272
-36.5162	-43.6116	42.2817
-36.5157	-40.4457	42.2915
-36.5134	-38.26133	42.30127
-36.5143	-41.47361	42.311
-36.5132	-41.6802	42.3208
-36.5121	-44.5081	42.3306
-36.5111	-43.6289	42.3403
-36.5107	-41.0255	42.3501
-36.5096	-40.0608	42.3599
-36.5093	-38.4793	42.3696
-36.509	-39.1913	42.3794
-36.50745	-42.0876	42.38916
-36.5069	-44.5711	42.3989
-36.5056	-44.5455	42.4087
-36.5041	-38.1358	42.4185
-36.50423	-37.629	42.4282
-36.5044	-39.9343	42.438
-36.5019	-42.3723	42.4478
-36.5026	-44.63364	42.45752
-36.5016	-40.9076	42.4673
-36.4999	-41.4361	42.4771
-36.4996	-37.4924	42.4868
-36.4995	-37.4832	42.4966
-36.49818	-40.6282	42.5063
-36.4964	-44.5909	42.5161
-36.4959	-46.1972	42.5259
-36.495	-42.0112	42.5356
-36.4948	-35.9181	42.54541
-36.4943	-38.3261	42.5552
-36.4922	-40.15646	42.5649
-36.4918	-43.4665	42.5747
-36.4906	-44.557	42.5845
-36.4912	-43.0259	42.5942
-36.4896	-39.0613	42.604
-36.4877	-37.6833	42.61377
-36.4881	-37.8447	42.6235
-36.4874	-42.5175	42.6333
-36.4855	-46.2012	42.6431
-36.4861	-44.4145	42.6528
-36.485	-39.3686	42.6626
-36.4838	-35.8819	42.6724
-36.4832	-39.5896	42.6821
-36.4823	-41.706	42.6919
-36.4809	-43.4915	42.70166
-36.4801	-43.7423	42.7114
-36.4805	-41.4674	42.7212
-36.4792	-39.9487	42.731
-36.4782	-37.0901	42.7407
-36.4778	-38.4996	42.7505
-36.4759	-47.1229	42.7603
-36.4757	-44.5342	42.77002
-36.4757	-43.4727	42.7798
-36.4735	-38.7822	42.7896
-36.4739	-39.6376	42.7993
-36.4724	-42.6171	42.8091
-36.4724	-41.9724	42.8188
-36.4721	-44.122	42.8286
-36.47044	-43.6918	42.8384
-36.4693	-41.5989	42.8481
-36.4687	-39.1966	42.85791
-36.4673	-35.0842	42.8677
-36.4673	-43.1454	42.8774
-36.4668	-44.5088	42.8872
-36.4643	-43.8435	42.897
-36.4635	-42.71579	42.9067
-36.4626	-38.4924	42.9165
-36.4628	-41.7855	42.92627
-36.46233	-40.2932	42.936
-36.4607	-40.4913	42.9458
-36.4608	-43.3122	42.9556
-36.46	-44.8387	42.9653
-36.4593	-41.94857	42.9751
-36.4576	-37.7817	42.9849
-36.4563	-38.08202	42.9946
-36.4559	-40.6089	43.0044
-36.4552	-43.404	43.01416
-36.4559	-43.0068	43.0239
-36.4538	-44.1363	43.0337
-36.4525	-41.1537	43.0435
-36.4525	-38.8685	43.0532
-36.4525	-38.3332	43.063
-36.4502	-41.5046	43.0728
-36.4501	-45.7227	43.08252
-36.4502	-45.488	43.0923
-36.4473	-40.0978	43.1021
-36.4474	-39.1723	43.1118
-36.4475	-36.4444	43.1216
-36.4458	-43.1357	43.1313
-36.4452	-44.2478	43.1411
-36.4447	-43.8393	43.1509
-36.4436	-44.5499	43.1606
-36.44191	-39.6928	43.17041
-36.4412	-38.722	43.1802
-36.44091	-37.7907	43.1899
-36.4403	-43.1911	43.1997
-36.44	-47.7909	43.2095
-36.4379	-43.27253	43.2192
-36.4371	-38.5123	43.229
-36.43644	-37.6317	43.23877
-36.4358	-39.6564	43.2485
-36.4354	-44.1561	43.2583
-36.4336	-43.7555	43.2681
-36.4343	-46.6778	43.2778
-36.4318	-42.7471	43.2876
-36.4318	-37.3737	43.2974
-36.4315	-38.1336	43.3071
-36.4309	-40.6206	43.3169
-36.4304	-47.2578	43.32666
-36.429	-46.6978	43.3364
-36.4277	-40.403	43.3462
-36.4264	-38.199	43.356
-36.4267	-40.0298	43.3657
-36.4264	-41.3815	43.3755
-36.42474	-43.0104	43.3853
-36.4241	-45.9459	43.39502
-36.4233	-43.1537	43.4048
-36.4219	-41.2049	43.4146
-36.4211	-38.67942	43.4243
-36.4205	-39.1956	43.4341
-36.419	-43.054	43.4438
-36.419	-44.989	43.4536
-36.4179	-43.3616	43.4634
-36.4179	-39.7624	43.4731
-36.4162	-39.1984	43.48291
-36.417	-41.1011	43.4927
-36.4142	-39.9265	43.5024
-36.4137	-43.5688	43.5122
-36.41349	-43.463	43.522
-36.4119	-43.0228	43.5317
-36.4113	-40.1968	43.5415
-36.4103	-38.09	43.55127
-36.4102	-42.3993	43.561
-36.409	-41.7526	43.5708
-36.4084	-43.8953	43.5806
-36.4082	-42.5494	43.5903
-36.4073	-42.0934	43.6001
-36.4065	-41.1635	43.6099
-36.4052	-39.8489	43.6196
-36.4037	-40.8419	43.6294
-36.4034	-42.7286	43.63916
-36.4028	-43.6412	43.6489
-36.401	-43.3717	43.6587
-36.4023	-37.7259	43.6685
-36.4009	-37.2721	43.6782
-36.3994	-39.27528	43.688
-36.3989	-42.1763	43.6978
-36.3975	-44.2832	43.70752
-36.3982	-43.1088	43.7173
-36.3971	-41.2826	43.7271
-36.3948	-38.8253	43.7368
-36.3952	-36.1089	43.7466
-36.3932	-41.5226	43.7563
-36.3924	-45.2047	43.7661
-36.3914	-44.6064	43.7759
-36.3918	-43.4423	43.7856
-36.3904	-36.4059	43.79541
-36.3911	-38.1712	43.8052
-36.3884	-41.4725	43.8149
-36.3878	-43.5337	43.8247
-36.3866	-44.4091	43.8345
-36.387	-44.77491	43.8442
-36.3854	-39.0874	43.854
-36.3849	-38.0866	43.86377
-36.3841	-36.17561	43.8735
-36.3829	-42.3333	43.8833
-36.3825	-47.3838	43.8931
-36.3817	-43.8327	43.9028
-36.3809	-40.0194	43.9126
-36.3795	-36.4367	43.9224
-36.38	-39.0869	43.9321
-36.3782	-41.5727	43.9419
-36.3765	-42.0341	43.95166
-36.3771	-46.2606	43.9614
-36.3769	-43.7583	43.9712
-36.3741	-39.1606	43.981
-36.37339	-37.7799	43.9907
-36.374	-39.7674	44.0005
-36.3713	-46.415	44.0103
-36.3717	-45.9602	44.02002
-36.3713	-41.0512	44.0298
-36.3698	-40.6613	44.0396
-36.369	-38.5773	44.0493
-36.3689	-40.6612	44.0591
-36.3676	-42.2735	44.0688
-36.3669	-44.0423	44.0786
-36.3664	-44.5657	44.0884
-36.3661	-41.0237	44.0981
-36.3649	-38.1345	44.10791
-36.3635	-38.7316	44.1177
-36.3622	-42.0282	44.1274