File: data/processed_data_files/tensile/0.254_hd_dimension_typeiv_090_r(8).dat
MTS793|BTW|ENU|1|2|.|/|:|1|0|0|A

Data Header:			0.254_hd_dimension_typeiv_090_r0			Time:	20.0181	s	4/14/2019 12:37:12 AM
Data Acquisition:	Timed
Station Name:	ft40.cfg
Test File Name:	monotonic_0.2540_typeiv_hd_090_dimension.tst
Displacement	Force	Running Time
mm	N	s
-40.0405	-276.887	0.0227051
-40.041	-275.714	0.0422363
-40.0411	-276.773	0.0617676
-40.041	-278.507	0.0812988
-40.0406	-275.498	0.10083
-40.0388	-274.219	0.120361
-40.0365	-274.749	0.139893
-40.0335	-273.5676	0.159424
-40.0332	-268.248	0.178955
-40.0313	-276.552	0.198486
-40.0286	-269.456	0.218018
-40.0281	-266.2309	0.237549
-40.0256	-268.807	0.25708
-40.0246	-270.9	0.276611
-40.023	-260.711	0.296143
-40.0215	-266.563	0.315674
-40.02	-264.787	0.335205
-40.0179	-261.342	0.354736
-40.0171	-261.512	0.374268
-40.0153	-266.543	0.393799
-40.0138	-255.243	0.41333
-40.0113	-258.372	0.432861
-40.0094	-260.768	0.452393
-40.0094	-254.857	0.471924
-40.0078	-254.264	0.491455
-40.006	-259.489	0.510986
-40.0026	-255.523	0.530518
-40.0013	-252.0177	0.550049
-40.00045	-254.876	0.56958
-39.9984	-250.279	0.589111
-39.9971	-250.803	0.608643
-39.9949	-251.221	0.628174
-39.9939	-250.394	0.647705
-39.9915	-244.221	0.667236
-39.9906	-247.847	0.686768
-39.9895	-247.762	0.706299
-39.9876	-244.719	0.72583
-39.9857	-241.632	0.745361
-39.9848	-247.235	0.764893
-39.9829	-240.583	0.784424
-39.9814	-239.403	0.803955
-39.9792	-240.834	0.823486
-39.9778	-242.178	0.843018
-39.9756	-233.605	0.862549
-39.9737	-241.192	0.88208
-39.9732	-236.758	0.901611
-39.971	-230.694	0.921143
-39.9696	-232.702	0.940674
-39.9674	-239.9449	0.960205
-39.966	-227.615	0.979736
-39.964	-230.389	0.999268
-39.9633	-233.022	1.0188
-39.9609	-226.76	1.03833
-39.9595	-228.966	1.05786
-39.9592	-231.7681	1.07739
-39.9566	-223.147	1.09692
-39.9549	-222.573	1.11646
-39.9539	-228.321	1.13599
-39.9517	-221.334	1.15552
-39.9511	-219.772	1.17505
-39.9477	-223.6985	1.19458
-39.9474	-222.242	1.21411
-39.9445	-216.328	1.23364
-39.9434	-219.242	1.25317
-39.9416	-217.539	1.27271
-39.9402	-215.434	1.29224
-39.93819	-215.578	1.31177
-39.9371	-216.558	1.3313
-39.9363	-210.343	1.35083
-39.9347	-210.007	1.37036
-39.9312	-212.16	1.38989
-39.9315	-211.485	1.40942
-39.9282	-205.194	1.42896
-39.92749	-212.27	1.44849
-39.9252	-207.454	1.46802
-39.9226	-203.0372	1.48755
-39.9231	-204.9639	1.50708
-39.921	-208.166	1.52661
-39.9198	-199.263	1.54614
-39.9184	-206.358	1.56567
-39.9167	-204.389	1.58521
-39.91441	-196.942	1.60474
-39.9128	-197.843	1.62427
-39.9117	-205.297	1.6438
-39.90905	-195.904	1.66333
-39.90752	-197.796	1.68286
-39.9073	-197.955	1.70239
-39.9053	-193.983	1.72192
-39.9034	-190.347	1.74146
-39.9006	-198.594	1.76099
-39.8989	-191.763	1.78052
-39.8964	-187.675	1.80005
-39.8965	-193.948	1.81958
-39.8958	-190.001	1.83911
-39.8936	-185.867	1.85864
-39.8921	-187.4348	1.87817
-39.8895	-189.975	1.89771
-39.8882	-183.4449	1.91724
-39.8872	-184.606	1.93677
-39.88533	-183.475	1.9563
-39.8841	-182.1459	1.97583
-39.88245	-178.737	1.99536
-39.8801	-185.339	2.01489
-39.8778	-177.88	2.03442
-39.8772	-174.954	2.05396
-39.8754	-179.113	2.07349
-39.87318	-179.404	2.09302
-39.8728	-170.765	2.11255
-39.8713	-177.405	2.13208
-39.868	-174.1424	2.15161
-39.8674	-168.878	2.17114
-39.8651	-172.6223	2.19067
-39.8649	-174.655	2.21021
-39.8622	-164.58	2.22974
-39.8616	-170.5098	2.24927
-39.8584	-172.007	2.2688
-39.8581	-162.757	2.28833
-39.8556	-163.53	2.30786
-39.8539	-170.586	2.32739
-39.8531	-162.339	2.34692
-39.8502	-160.418	2.36646
-39.8499	-164.705	2.38599
-39.8474	-159.598	2.40552
-39.8455	-158.63	2.42505
-39.8441	-160.7059	2.44458
-39.842	-159.035	2.46411
-39.842	-154.148	2.48364
-39.8383	-158.145	2.50317
-39.8377	-155.68	2.52271
-39.8357	-153.441	2.54224
-39.8356	-151.856	2.56177
-39.833	-155.619	2.5813
-39.8321	-150.107	2.60083
-39.82967	-149.002	2.62036
-39.8281	-149.901	2.63989
-39.8269	-150.169	2.65942
-39.8252	-144.454	2.67896
-39.8243	-151.52	2.69849
-39.8212	-143.613	2.71802
-39.821	-140.093	2.73755
-39.8177	-144.2159	2.75708
-39.8166	-146.7999	2.77661
-39.8152	-136.127	2.79614
-39.81295	-141.351	2.81567
-39.8112	-141.239	2.83521
-39.8101	-135.127	2.85474
-39.8088	-137.631	2.87427
-39.8074	-142.251	2.8938
-39.8047	-131.408	2.91333
-39.8038	-134.257	2.93286
-39.801	-137.313	2.95239
-39.8006	-130.436	2.97192
-39.7989	-128.887	2.99146
-39.7972	-134.994	3.01099
-39.7956	-130.642	3.03052
-39.793	-125.024	3.05005
-39.79221	-130.181	3.06958
-39.7903	-125.981	3.08911
-39.7895	-124.203	3.10864
-39.78767	-126.871	3.12817
-39.7861	-126.072	3.14771
-39.78455	-118.678	3.16724
-39.7821	-121.631	3.18677
-39.7804	-123.575	3.2063
-39.7788	-120.101	3.22583
-39.7777	-115.225	3.24536
-39.7757	-120.962	3.26489
-39.7731	-114.2053	3.28442
-39.7722	-113.927	3.30396
-39.7707	-116.149	3.32349
-39.7705	-117.422	3.34302
-39.7677	-107.63	3.36255
-39.7669	-116.409	3.38208
-39.7648	-113.231	3.40161
-39.7645	-106.455	3.42114
-39.7614	-108.992	3.44067
-39.7595	-114.022	3.46021
-39.7584	-105.03	3.47974
-39.7567	-106.8359	3.49927
-39.7553	-108.181	3.5188
-39.7537	-101.013	3.53833
-39.7519	-103.296	3.55786
-39.7499	-106.192	3.57739
-39.7482	-98.5156	3.59692
-39.7467	-99.3569	3.61646
-39.745	-105.016	3.63599
-39.7432	-97.3953	3.65552
-39.74168	-95.6765	3.67505
-39.7396	-98.43074	3.69458
-39.7383	-97.6097	3.71411
-39.7369	-91.8241	3.73364
-39.7363	-94.9952	3.75317
-39.7338	-92.6469	3.77271
-39.7341	-90.4633	3.79224
-39.7303	-91.3015	3.81177
-39.7283	-95.7281	3.8313
-39.7264	-86.1601	3.85083
-39.7258	-85.586	3.87036
-39.7235	-89.4099	3.88989
-39.7223	-89.6356	3.90942
-39.7215	-81.5405	3.92896
-39.7202	-88.9319	3.94849
-39.718	-83.5144	3.96802
-39.7154	-79.127	3.98755
-39.714	-81.2564	4.00708
-39.71339	-82.6499	4.02661
-39.7109	-74.0176	4.04614
-39.7098	-82.7474	4.06567
-39.7073	-80.0412	4.08521
-39.7066	-72.3663	4.10474
-39.7036	-73.6356	4.12427
-39.7022	-79.93644	4.1438
-39.7011	-73.2882	4.16333
-39.7001	-73.5153	4.18286
-39.6982	-75.024	4.20239
-39.6963	-69.03067	4.22192
-39.6944	-68.8714	4.24146
-39.6931	-73.1357	4.26099
-39.6913	-66.4294	4.28052
-39.6908	-63.6348	4.30005
-39.6889	-69.6766	4.31958
-39.68634	-63.9325	4.33911
-39.68462	-62.1028	4.35864
-39.683	-64.2679	4.37817
-39.6813	-65.1584	4.39771
-39.6806	-59.2789	4.41724
-39.6786	-61.5862	4.43677
-39.6767	-59.7837	4.4563
-39.67622	-57.695	4.47583
-39.6742	-55.7184	4.49536
-39.67252	-61.0024	4.51489
-39.6706	-53.08535	4.53442
-39.6687	-50.013	4.55396
-39.6664	-54.4465	4.57349
-39.6656	-56.4383	4.59302
-39.6631	-47.7716	4.61255
-39.6621	-52.7399	4.63208
-39.6604	-50.3905	4.65161
-39.6599	-45.9304	4.67114
-39.6578	-47.2025	4.69067
-39.6554	-50.579	4.71021
-39.6539	-41.4759	4.72974
-39.6519	-44.4009	4.74927
-39.6508	-47.7729	4.7688
-39.6487	-40.1223	4.78833
-39.6482	-41.7271	4.80786
-39.64735	-45.6203	4.82739
-39.6437	-40.7634	4.84692
-39.643	-37.0742	4.86646
-39.641	-40.7548	4.88599
-39.6384	-35.985	4.90552
-39.638	-35.5085	4.92505
-39.6355	-39.4742	4.94458
-39.63496	-34.0454	4.96411
-39.6335	-29.29821	4.98364
-39.6317	-33.198	5.00317
-39.6296	-33.2887	5.02271
-39.62817	-29.6004	5.04224
-39.6266	-28.324	5.06177
-39.6232	-33.1425	5.0813
-39.62389	-25.6942	5.10083
-39.6212	-25.9605	5.12036
-39.6203	-26.6545	5.13989
-39.6181	-26.78573	5.15942
-39.6166	-20.8732	5.17896
-39.6153	-27.4736	5.19849
-39.6136	-20.22784	5.21802
-39.6114	-16.8748	5.23755
-39.6103	-20.72296	5.25708
-39.6078	-23.7439	5.27661
-39.6066	-14.0167	5.29614
-39.60582	-18.5488	5.31567
-39.6046	-18.1859	5.33521
-39.6025	-12.6716	5.35474
-39.6	-15.3674	5.37427
-39.5985	-19.4429	5.3938
-39.5977	-9.37197	5.41333
-39.59597	-10.8486	5.43286
-39.593	-16.51289	5.45239
-39.5921	-9.71049	5.47192
-39.5902	-7.10529	5.49146
-39.5889	-12.0781	5.51099
-39.5876	-7.66044	5.53052
-39.5856	-3.49394	5.55005
-39.5834	-8.69468	5.56958
-39.5825	-4.71572	5.58911
-39.5804	-2.82914	5.60864
-39.5797	-4.34814	5.62817
-39.5778	-5.14191	5.64771
-39.5754	3.59377	5.66724
-39.5751	0.634581	5.68677
-39.5726	-1.75338	5.7063
-39.5712	0.371062	5.72583
-39.5701	6.19835	5.74536
-39.5683	-0.438562	5.76489
-39.5669	7.58034	5.78442
-39.5653	8.6928	5.80396
-39.5631	5.78384	5.82349
-39.5606	6.08874	5.84302
-39.5595	12.6875	5.86255
-39.5582	6.32082	5.88208
-39.55621	9.14325	5.90161
-39.5546	16.1941	5.92114
-39.55349	12.6487	5.94067
-39.5522	8.72903	5.96021
-39.5485	17.2885	5.97974
-39.5482	15.504	5.99927
-39.5477	13.4638	6.0188
-39.5447	20.6539	6.03833
-39.54335	18.6876	6.05786
-39.5415	14.1528	6.07739
-39.5395	21.9909	6.09692
-39.5385	23.5545	6.11646
-39.5369	17.5501	6.13599
-39.5359	21.9799	6.15552
-39.534	27.0916	6.17505
-39.5325	22.0605	6.19458
-39.5304	22.8365	6.21411
-39.5282	30.7179	6.23364
-39.5275	26.2458	6.25317
-39.5258	26.4475	6.27271
-39.5235	29.5242	6.29224
-39.5226	30.4528	6.31177
-39.5208	28.5996	6.3313
-39.5187	36.699	6.35083
-39.517	34.5234	6.37036
-39.5155	32.8294	6.38989
-39.5139	33.4609	6.40942
-39.512	40.28	6.42896
-39.511	35.1548	6.44849
-39.5097	39.9704	6.46802
-39.5066	43.1346	6.48755
-39.5062	37.5521	6.50708
-39.5038	38.79237	6.52661
-39.5024	47.8166	6.54614
-39.5006	41.6586	6.56567
-39.5006	42.6712	6.58521
-39.4983	48.9217	6.60474
-39.4956	47.04575	6.62427
-39.4946	42.413	6.6438
-39.4929	50.3339	6.66333
-39.4916	50.25425	6.68286
-39.4895	45.7329	6.70239
-39.48772	52.9711	6.72192
-39.4856	52.8129	6.74146
-39.4851	47.2247	6.76099
-39.4823	53.2664	6.78052
-39.4806	59.0354	6.80005
-39.48093	53.4056	6.81958
-39.47789	56.00074	6.83911
-39.4771	59.4058	6.85864
-39.4757	58.75872	6.87817
-39.4735	56.2998	6.89771
-39.4715	63.5394	6.91724
-39.4689	60.8382	6.93677
-39.468	61.9819	6.9563
-39.467	62.6284	6.97583
-39.4652	66.0994	6.99536
-39.4644	59.9857	7.01489
-39.4626	68.4858	7.03442
-39.4613	71.1256	7.05396
-39.459	66.896	7.07349
-39.4574	64.9736	7.09302
-39.4563	74.7424	7.11255
-39.4534	68.3327	7.13208
-39.4538	69.9501	7.15161
-39.4516	75.2244	7.17114
-39.4487	71.9625	7.19067
-39.4472	68.72506	7.21021
-39.4455	79.1295	7.22974
-39.4453	75.1411	7.24927
-39.4436	72.6084	7.2688
-39.4411	81.6359	7.28833
-39.4392	82.0133	7.30786
-39.4366	75.093	7.32739
-39.4358	80.95929	7.34692
-39.4336	82.79097	7.36646
-39.4338	78.7851	7.38599
-39.4303	83.9943	7.40552
-39.4292	85.425	7.42505
-39.42815	81.6299	7.44458
-39.4258	85.252	7.46411
-39.4244	91.0656	7.48364
-39.42321	87.0312	7.50317
-39.4213	87.9538	7.52271
-39.42	90.4935	7.54224
-39.4179	94.0324	7.56177
-39.4171	89.5284	7.5813
-39.4152	94.5428	7.60083
-39.4137	93.9535	7.62036
-39.4121	93.0945	7.63989
-39.4108	94.9846	7.65942
-39.4084	99.9762	7.67896
-39.4065	92.9763	7.69849
-39.40266	98.2537	7.71802
-39.4026	103.317	7.73755
-39.4007	98.9067	7.75708
-39.40036	95.66658	7.77661
-39.398	106.335	7.79614
-39.3982	101.345	7.81567
-39.3955	102.15	7.83521
-39.3939	105.77	7.85474
-39.3934	104.853	7.87427
-39.3904	100.565	7.8938
-39.3885	110.637	7.91333
-39.3877	109.283	7.93286
-39.3864	103.399	7.95239
-39.3839	110.076	7.97192
-39.3828	113.055	7.99146
-39.3809	108.582	8.01099
-39.3793	111.634	8.03052
-39.3773	116.0054	8.05005
-39.3757	112.074	8.06958
-39.3748	114.995	8.08911
-39.3721	118.203	8.10864
-39.3705	115.85	8.12817
-39.3683	114.624	8.14771
-39.3681	124.436	8.16724
-39.366	122.65	8.18677
-39.3636	120.245	8.2063
-39.3628	121.4257	8.22583
-39.3612	127.75	8.24536
-39.3602	120.1664	8.26489
-39.3572	127.669	8.28442
-39.3569	128.622	8.30396
-39.3554	125.79	8.32349
-39.3548	124.787	8.34302
-39.35141	131.665	8.36255
-39.3509	125.287	8.38208
-39.3479	129.204	8.40161
-39.3468	135.04	8.42114
-39.3446	133.14	8.44067
-39.3424	127.848	8.46021
-39.3418	137.78	8.47974
-39.3394	134.145	8.49927
-39.3374	132.936	8.5188
-39.3369	140.085	8.53833
-39.3353	138.179	8.55786
-39.3329	135.257	8.57739
-39.3325	141.645	8.59692
-39.3296	143.422	8.61646
-39.32864	138.0639	8.63599
-39.3275	142.8672	8.65552
-39.3259	144.457	8.67505
-39.32362	141.796	8.69458
-39.3231	142.325	8.71411
-39.3215	147.803	8.73364
-39.319	145.527	8.75317
-39.3186	146.852	8.77271
-39.3151	150.284	8.79224
-39.313	150.986	8.81177
-39.312	145.893	8.8313
-39.3117	154.85	8.85083
-39.3081	156.046	8.87036
-39.3067	151.115	8.88989
-39.3056	150.327	8.90942
-39.3034	159.261	8.92896
-39.3025	153.427	8.94849
-39.3008	157.496	8.96802
-39.3002	160.78	8.98755
-39.2978	156.241	9.00708
-39.29583	157.039	9.02661
-39.29446	166.099	9.04614
-39.2935	158.968	9.06567
-39.291	160.4389	9.08521
-39.29039	166.183	9.10474
-39.2883	163.9632	9.12427
-39.287	159.679	9.1438
-39.2842	169.234	9.16333
-39.2831	167.186	9.18286
-39.2809	164.066	9.20239
-39.281	170.012	9.22192
-39.2778	170.283	9.24146
-39.2768	164.677	9.26099
-39.2747	171.87	9.28052
-39.274	175.495	9.30005
-39.2719	169.699	9.31958
-39.2701	173.584	9.33911
-39.2688	176.881	9.35864
-39.2677	176.558	9.37817
-39.2656	173.28	9.39771
-39.2635	179.427	9.41724
-39.2622	176.769	9.43677
-39.2603	178.601	9.4563
-39.259	182.601	9.47583
-39.2569	184.083	9.49536
-39.2554	176.578	9.51489
-39.25399	184.565	9.53442
-39.2528	188.884	9.55396
-39.2509	183.74	9.57349
-39.2494	181.338	9.59302
-39.247	190.286	9.61255
-39.2451	184.214	9.63208
-39.2447	188.225	9.65161
-39.2421	191.331	9.67114
-39.2397	189.404	9.69067
-39.2403	185.119	9.71021
-39.2373	196.65	9.72974
-39.2355	190.574	9.74927
-39.2337	189.127	9.7688
-39.2326	197.952	9.78833
-39.2315	196.618	9.80786
-39.2292	190.3429	9.82739
-39.2281	196.632	9.84692
-39.2257	199.714	9.86646
-39.2248	195.601	9.88599
-39.2224	201.041	9.90552
-39.22076	202.181	9.92505
-39.22	197.454	9.94458
-39.218	199.892	9.96411
-39.21595	207.074	9.98364
-39.2147	202.554	10.0032
-39.2137	201.937	10.0227
-39.2107	205.623	10.0422
-39.20927	207.947	10.0618
-39.2078	204.369	10.0813
-39.2058	210.327	10.10083
-39.2055	209.748	10.1204
-39.203	207.355	10.1399
-39.2009	208.806	10.1594
-39.20005	216.537	10.179
-39.1987	208.7612	10.1985
-39.1967	213.915	10.218
-39.1946	218.8089	10.2375
-39.1944	214.809	10.25708
-39.191	212.189	10.2766
-39.1903	222.624	10.2961
-39.1889	217.524	10.3157
-39.1869	217.483	10.3352
-39.1848	222.978	10.3547
-39.1846	219.5	10.3743
-39.1833	217.661	10.3938
-39.18	226.197	10.41333
-39.1793	223.424	10.4329
-39.1771	219.171	10.4524
-39.175	226.83	10.4719
-39.1734	226.471	10.4915
-39.1732	223.493	10.511
-39.1715	226.228	10.5305
-39.1688	231.882	10.55
-39.1681	225.249	10.56958
-39.1666	230.487	10.5891
-39.1652	233.243	10.6086
-39.1618	230.382	10.6282
-39.1615	229.156	10.6477
-39.1607	237.747	10.6672
-39.1582	234.578	10.6868
-39.1566	234.142	10.7063
-39.1546	234.905	10.72583
-39.1531	240.189	10.7454
-39.151	233.721	10.7649
-39.1481	240.839	10.7844
-39.1476	240.541	10.804
-39.1469	238.298	10.8235
-39.145	239.643	10.843
-39.1441	248.228	10.8625
-39.1424	238.804	10.88208
-39.1412	243.575	10.9016
-39.1375	249.454	10.9211
-39.1364	244.759	10.9407
-39.1355	240.1	10.9602
-39.1337	249.766	10.9797
-39.13179	248.37	10.9993
-39.1295	245.615	11.0188
-39.1283	254.389	11.03833
-39.12735	251.382	11.0579
-39.1259	247.247	11.0774
-39.1237	253.746	11.0969
-39.1213	255.95	11.1165
-39.12001	247.742	11.136
-39.11969	255.8221	11.1555
-39.1161	258.352	11.175
-39.11409	253.936	11.19458
-39.11343	253.938	11.2141
-39.1132	261.891	11.2336
-39.1115	257.228	11.2532
-39.1087	260.069	11.2727
-39.1085	261.872	11.2922
-39.1059	263.2771	11.3118
-39.105	259.139	11.3313
-39.1024	267.068	11.35083
-39.1006	267.62	11.3704
-39.0985	262.697	11.3899
-39.0978	263.9046	11.4094
-39.0957	271.2439	11.429
-39.0938	264.411	11.4485
-39.0936	267.885	11.468
-39.0913	273.146	11.4875
-39.0894	269.1221	11.50708
-39.0895	268.033	11.5266
-39.0874	276.486	11.5461
-39.0845	270.4563	11.5657
-39.0832	270.637	11.5852
-39.0821	279.683	11.6047
-39.08	275.974	11.6243
-39.0772	271.22	11.6438
-39.0762	278.7663	11.66333
-39.07373	279.932	11.6829
-39.0736	274.175	11.7024
-39.07156	281.982	11.7219
-39.0686	279.633	11.7415
-39.06834	276.743	11.761
-39.0666	282.021	11.7805
-39.0649	286.2023	11.8
-39.06366	280.473	11.81958
-39.0621	282.71	11.8391
-39.0597	285.787	11.8586
-39.059	284.995	11.8782
-39.0569	283.04	11.8977
-39.0544	288.241	11.9172
-39.0542	288.0722	11.9368
-39.0526	288.326	11.9563
-39.05088	289.357	11.97583
-39.049	291.685	11.9954
-39.0485	286.053	12.0149
-39.0456	293.5488	12.0344
-39.0442	296.736	12.054
-39.0426	292.274	12.0735
-39.0421	290.731	12.093
-39.039	300.037	12.1125
-39.03767	293.616	12.13208
-39.0355	294.795	12.1516
-39.0344	300.404	12.1711
-39.0333	296.139	12.1907
-39.0311	294.316	12.2102
-39.0309	304.412	12.2297
-39.0281	298.646	12.2493
-39.0265	296.087	12.2688
-39.0243	305.792	12.28833
-39.0222	304.1189	12.3079
-39.0218	298.017	12.3274
-39.0181	305.528	12.3469
-39.0178	306.873	12.3665
-39.0172	302.162	12.386
-39.0141	308.892	12.4055
-39.01339	308.381	12.425
-39.011	305.302	12.44458
-39.0096	308.177	12.4641
-39.0086	313.152	12.4836
-39.0065	309.339	12.5032
-39.0051	309.798	12.5227
-39.0029	312.579	12.5422
-39.0007	313.965	12.5618
-38.9995	309.71	12.5813
-38.9982	316.238	12.60083
-38.9969	317.026	12.6204
-38.9954	314.656	12.6399
-38.99369	315.904	12.6594
-38.9922	322.161	12.679
-38.9895	313.733	12.6985
-38.9883	319.488	12.718
-38.9865	323.912	12.7375
-38.9858	318.373	12.75708
-38.9835	315.185	12.7766
-38.9807	326.899	12.7961
-38.9809	320.276	12.8157
-38.9796	320.854	12.8352
-38.9779	327.071	12.8547
-38.9764	323.5647	12.8743
-38.9739	320.708	12.8938
-38.9723	329.536	12.91333
-38.9718	328.054	12.9329
-38.96891	321.584	12.9524
-38.9674	330.226	12.9719
-38.9659	331.162	12.9915
-38.9629	327.195	13.011
-38.963	329.52	13.0305
-38.961	334.858	13.05
-38.9582	329.639	13.06958
-38.9581	330.987	13.0891
-38.9555	334.067	13.1086
-38.95475	331.883	13.1282
-38.953	331.422	13.1477
-38.9516	339.782	13.1672
-38.9501	336.6264	13.1868
-38.9474	334.207	13.2063
-38.9477	335.9873	13.22583
-38.94445	342.233	13.2454
-38.9431	335.201	13.2649
-38.9421	340.824	13.2844
-38.9394	341.314	13.304
-38.938	339.362	13.3235
-38.9372	339.701	13.343
-38.9346	346.043	13.3625
-38.9336	340.578	13.38208
-38.9316	341.22	13.4016
-38.9301	348.097	13.4211
-38.9281	343.316	13.4407
-38.9266	339.473	13.4602
-38.9259	349.3204	13.4797
-38.9242	346.487	13.4993
-38.9214	343.974	13.5188
-38.92	351.12	13.53833
-38.9187	347.654	13.5579
-38.9174	345.709	13.5774
-38.9158	351.606	13.5969
-38.914	356.344	13.6165
-38.9129	347.7	13.636
-38.9106	353.398	13.6555
-38.9081	355.004	13.675
-38.9074	351.262	13.69458
-38.9068	350.84	13.7141
-38.9047	357.3064	13.7336
-38.9027	355.533	13.7532
-38.9007	356.207	13.7727
-38.8995	357.229	13.7922
-38.8975	358.748	13.8118
-38.8958	355.447	13.8313
-38.8941	362.779	13.85083
-38.8927	361.765	13.8704
-38.8911	356.922	13.8899
-38.8895	357.884	13.9094
-38.887	366.403	13.929
-38.8864	359.319	13.9485
-38.8847	363.479	13.968
-38.883	367.345	13.9875
-38.88113	360.327	14.00708
-38.8795	361.862	14.0266
-38.8787	371.361	14.0461
-38.8767	363.585	14.0657
-38.8743	363.776	14.0852
-38.8736	373.019	14.1047
-38.8709	367.6489	14.1243
-38.869	363.07	14.1438
-38.8694	371.977	14.16333
-38.8658	371.151	14.1829
-38.8659	366.203	14.2024
-38.8635	373.377	14.2219
-38.86174	371.117	14.2415
-38.85947	367.382	14.261
-38.858	372.075	14.2805
-38.8559	379.771	14.3
-38.8551	371.77	14.31958
-38.8537	374.81	14.3391
-38.8523	375.8299	14.3586
-38.8498	376.733	14.3782
-38.848	372.918	14.3977
-38.84647	381.109	14.4172
-38.8449	378.788	14.4368
-38.8434	376.767	14.4563
-38.8421	378.896	14.47583
-38.8404	381.647	14.4954
-38.83881	376.282	14.5149
-38.8384	382.802	14.5344
-38.8351	384.92	14.554
-38.8336	380.531	14.5735
-38.8308	378.84	14.593
-38.8307	387.762	14.6125
-38.8286	381.4978	14.63208
-38.8275	383.284	14.6516
-38.8258	388.382	14.6711
-38.82523	384.28	14.6907
-38.8229	381.1123	14.7102
-38.8216	390.49	14.7297
-38.82	387.545	14.7493
-38.8185	384.059	14.7688
-38.8159	392.363	14.78833
-38.8146	390.498	14.8079
-38.8125	385.023	14.8274
-38.8118	390.109	14.8469
-38.8098	393.729	14.8665
-38.8085	388.309	14.886
-38.8072	395.072	14.9055
-38.8053	393.587	14.925
-38.8012	390.779	14.94458
-38.8009	391.787	14.9641
-38.8002	398.967	14.9836
-38.7979	395.226	15.0032
-38.7972	393.278	15.0227
-38.7951	396.101	15.0422
-38.7933	400.064	15.0618
-38.7923	393.743	15.0813
-38.7903	400.191	15.10083
-38.7875	399.788	15.1204
-38.7871	397.37	15.1399
-38.7854	398.6492	15.1594
-38.7827	403.151	15.179
-38.7818	395.392	15.1985
-38.7802	400.769	15.218
-38.7784	404.955	15.2375
-38.7773	400.633	15.25708
-38.7758	397.086	15.2766
-38.7738	406.867	15.2961
-38.7725	401.36	15.3157
-38.7698	401.382	15.3352
-38.769	407.546	15.3547
-38.7663	403.816	15.3743
-38.7662	400.098	15.3938
-38.7645	407.972	15.41333
-38.7626	407.545	15.4329
-38.7607	401.356	15.4524
-38.7594	411.395	15.4719
-38.7569	408.628	15.4915
-38.7557	403.972	15.511
-38.7538	408.131	15.5305
-38.7525	413.085	15.55
-38.7523	407.726	15.56958
-38.7493	411.353	15.5891
-38.7479	412.563	15.6086
-38.7467	410.967	15.6282
-38.7437	407.387	15.6477
-38.7431	415.72	15.6672
-38.7401	414.059	15.6868
-38.7392	411.673	15.7063
-38.7378	412.573	15.72583
-38.7375	416.985	15.7454
-38.7342	410.867	15.7649
-38.7327	415.978	15.7844
-38.7308	417.992	15.804
-38.72966	413.879	15.8235
-38.7269	413.939	15.843
-38.7262	422.144	15.8625
-38.725	414.198	15.88208
-38.7232	415.679	15.9016
-38.72237	423.792	15.9211
-38.7202	416.472	15.9407
-38.7185	412.065	15.9602
-38.7163	422.863	15.9797
-38.7162	420.299	15.9993
-38.7137	416.168	16.0188
-38.7117	423.7822	16.03833
-38.7096	419.015	16.0579
-38.7091	416.2832	16.0774
-38.70689	423.0528	16.0969
-38.7061	425.931	16.1165
-38.7047	420.112	16.136
-38.7026	423.337	16.1555
-38.6999	425.033	16.175
-38.7007	422.5864	16.19458
-38.6985	422.515	16.2141
-38.6966	429.646	16.2336
-38.694	424.612	16.2532
-38.6932	425.448	16.2727
-38.6912	425.944	16.2922
-38.6892	427.029	16.3118
-38.6872	421.959	16.3313
-38.68729	432.435	16.35083
-38.68412	430.197	16.3704
-38.6819	424.049	16.3899
-38.6807	425.726	16.4094
-38.6794	433.058	16.429
-38.6782	428.052	16.4485
-38.6774	429.4614	16.468
-38.6753	431.588	16.4875
-38.6738	426.056	16.50708
-38.673	426.273	16.5266
-38.6702	435.332	16.5461
-38.66803	428.291	16.5657
-38.6671	427.383	16.5852
-38.6656	436.012	16.6047
-38.6631	430.846	16.6243
-38.6614	426.585	16.6438
-38.6611	433.632	16.66333
-38.6571	434.564	16.6829
-38.6569	430.299	16.7024
-38.6552	434.521	16.7219
-38.6538	433.818	16.7415
-38.6515	429.869	16.761
-38.6493	436.002	16.7805
-38.6494	440.232	16.8
-38.6471	432.708	16.81958
-38.6444	435.101	16.8391
-38.6439	436.726	16.8586
-38.6422	435.218	16.8782
-38.64127	431.881	16.8977
-38.6383	440.214	16.9172
-38.6366	438.042	16.9368
-38.6356	437.567	16.9563
-38.6339	438.498	16.97583
-38.6327	442.362	16.9954
-38.63121	433.536	17.0149
-38.6285	441.401	17.0344
-38.62748	442.074	17.054
-38.626	436.274	17.0735
-38.6247	435.099	17.093
-38.6217	445.219	17.1125
-38.6207	439.403	17.13208
-38.6186	441.267	17.1516
-38.6174	445.174	17.1711
-38.6168	438.636	17.1907
-38.6139	436.968	17.2102
-38.6132	444.217	17.2297
-38.6118	440.071	17.2493
-38.6095	436.699	17.2688
-38.6069	445.76	17.28833
-38.6062	442.121	17.3079
-38.6042	437.141	17.3274
-38.60289	441.9231	17.3469
-38.6014	446.566	17.3665
-38.5989	440.536	17.386
-38.598	444.217	17.4055
-38.5952	443.145	17.425
-38.5939	441.39	17.44458
-38.59383	442.172	17.4641
-38.5928	449.476	17.4836
-38.5902	443.011	17.5032
-38.5892	442.459	17.5227
-38.58741	446.354	17.5422
-38.5846	447.94	17.5618
-38.5831	441.276	17.5813
-38.5815	446.542	17.60083
-38.5802	448.067	17.6204
-38.5786	442.326	17.6399
-38.5772	444.088	17.6594
-38.5751	450.276	17.679
-38.574	440.821	17.6985
-38.5722	446.721	17.718
-38.5705	452.374	17.7375
-38.5684	445.0607	17.75708
-38.5668	441.536	17.7766
-38.5659	450.938	17.7961
-38.5639	447.12	17.8157
-38.5614	444.066	17.8352
-38.5606	452.713	17.8547
-38.5591	445.6062	17.8743
-38.5576	443.3952	17.8938
-38.55574	451.483	17.91333
-38.5545	451.196	17.9329
-38.5525	442.886	17.9524
-38.5519	451.435	17.9719
-38.549	449.202	17.9915
-38.5475	445.525	18.011
-38.5463	446.518	18.0305
-38.5438	452.599	18.05
-38.5415	447.638	18.06958
-38.5415	449.914	18.0891
-38.5391	449.001	18.1086
-38.5378	448.209	18.1282
-38.5357	445.989	18.1477
-38.5352	455.807	18.1672
-38.5319	450.727	18.1868
-38.5324	446.333	18.2063
-38.5296	449.134	18.22583
-38.5282	452.519	18.2454
-38.5264	446.643	18.2649
-38.5247	451.8468	18.2844
-38.5236	454.3	18.304
-38.5218	448.769	18.3235
-38.52055	447.427	18.343
-38.5192	454.584	18.3625
-38.5171	448.576	18.38208
-38.5144	449.78	18.4016
-38.5144	455.528	18.4211
-38.511	448.5	18.4407
-38.5109	445.879	18.4602
-38.5079	453.567	18.4797
-38.5058	453.493	18.4993
-38.5061	448.204	18.5188
-38.5031	455.385	18.53833
-38.5015	451.0047	18.5579
-38.501	448.842	18.5774
-38.4991	454.6178	18.5969
-38.4974	455.579	18.6165
-38.4963	448.509	18.636
-38.4941	451.6774	18.6555
-38.4927	453.868	18.675
-38.4906	451.558	18.69458
-38.488	448.545	18.7141
-38.4866	455.832	18.7336
-38.4844	452.089	18.7532
-38.4837	449.254	18.7727
-38.4829	453.017	18.7922
-38.4816	454.764	18.8118
-38.47839	447.357	18.8313
-38.4786	455.419	18.85083
-38.4766	454.9585	18.8704
-38.4734	449.253	18.8899
-38.47345	450.833	18.9094
-38.4715	456.79	18.929
-38.4692	449.966	18.9485
-38.4682	450.952	18.968
-38.4659	454.996	18.9875
-38.4648	449.449	19.00708
-38.4627	449.321	19.0266
-38.46067	456.329	19.0461
-38.4614	451.282	19.0657
-38.4587	449.442	19.0852
-38.4566	457.957	19.1047
-38.45525	450.144	19.1243
-38.4534	448.667	19.1438
-38.4509	454.394	19.16333
-38.4497	455.925	19.1829
-38.4481	450.077	19.2024
-38.4467	454.636	19.2219
-38.4441	449.435	19.2415
-38.4434	450.249	19.261
-38.4409	452.1972	19.2805
-38.44	456.713	19.3
-38.439	451.077	19.31958
-38.4374	450.348	19.3391
-38.4349	452.477	19.3586
-38.4342	453.983	19.3782
-38.4317	448.589	19.3977
-38.4297	456.145	19.4172
-38.4279	453.747	19.4368
-38.4268	449.235	19.4563
-38.4251	450.669	19.47583
-38.4236	453.084	19.4954
-38.4231	446.702	19.5149
-38.42038	454.761	19.5344
-38.4194	456.578	19.554
-38.4176	446.346	19.5735
-38.4159	448.278	19.593
-38.4146	456.481	19.6125
-38.4122	449.052	19.63208
-38.4106	448.691	19.6516
-38.4088	453.938	19.6711
-38.4079	448.42	19.6907
-38.40556	446.68	19.7102
-38.404	453.351	19.7297
-38.4032	451.086	19.7493
-38.401	446.299	19.7688
-38.39967	455.712	19.78833
-38.3967	449.139	19.8079
-38.3963	447.567	19.8274
-38.3947	451.068	19.8469
-38.3924	454.4472	19.8665
-38.39	447.15	19.886
-38.3914	452.283	19.9055
-38.3891	449.515	19.925
-38.3865	449.227	19.94458
-38.3846	449.859	19.9641
-38.3831	454.962	19.9836
-38.38179	450.395	20.0032
-38.3802	447.972	20.0129

Data Header:			0.254_hd_dimension_typeiv_090_r0			Time:	33.3853	s	4/14/2019 12:37:26 AM
Data Acquisition:	Timed
Station Name:	ft40.cfg
Test File Name:	monotonic_0.2540_typeiv_hd_090_dimension.tst
Displacement	Force	Running Time
mm	N	s
-38.3792	447.585	20.0227
-38.3796	451.767	20.0325
-38.3775	450.5	20.0422
-38.3768	451.026	20.052
-38.3762	451.488	20.0618
-38.376	446.986	20.0715
-38.3752	445.016	20.0813
-38.3745	447.283	20.0911
-38.3729	451.778	20.10083
-38.3731	452.586	20.1106
-38.37289	451.751	20.1204
-38.3704	446.552	20.1301
-38.3715	445.2626	20.1399
-38.369	446.6282	20.1497
-38.3687	447.944	20.1594
-38.3679	452.167	20.1692
-38.3673	452.456	20.179
-38.36681	450.362	20.1887
-38.3664	445.108	20.1985
-38.3648	441.836	20.2083
-38.3643	448.85	20.218
-38.3633	451.797	20.2278
-38.3615	453.56	20.2375
-38.3609	449.314	20.2473
-38.3598	445.5051	20.25708
-38.3596	447.561	20.2668
-38.3589	444.994	20.2766
-38.3578	451.39	20.2864
-38.3578	453.0603	20.2961
-38.3572	451.379	20.3059
-38.3564	448.29	20.3157
-38.3544	441.535	20.3254
-38.354	444.412	20.3352
-38.3539	450.729	20.345
-38.3523	452.431	20.3547
-38.3514	452.871	20.3645
-38.3506	446.337	20.3743
-38.3488	445.743	20.384
-38.3484	445.27	20.3938
-38.3485	446.0163	20.4036
-38.3482	449.232	20.41333
-38.3471	452.578	20.4231
-38.345	450.809	20.4329
-38.3453	442.604	20.4426
-38.3445	445.853	20.4524
-38.3424	446.5351	20.4622
-38.3415	451.926	20.4719
-38.3415	449.614	20.4817
-38.3407	447.714	20.4915
-38.3403	446.268	20.5012
-38.3389	445.222	20.511
-38.3388	444.991	20.5208
-38.3381	444.8439	20.5305
-38.338	450.156	20.5403
-38.3369	451.118	20.55
-38.3346	445.933	20.5598
-38.3345	445.955	20.56958
-38.334	442.81	20.5793
-38.3319	446.614	20.5891
-38.3329	449.2489	20.5989
-38.3304	446.398	20.6086
-38.3305	449.236	20.6184
-38.3292	447.44	20.6282
-38.3281	444.819	20.6379
-38.32803	443.112	20.6477
-38.3277	444.333	20.6575
-38.32819	450.592	20.6672
-38.3259	449.809	20.677
-38.3239	446.638	20.6868
-38.32383	444.608	20.6965
-38.3209	440.456	20.7063
-38.3221	448.457	20.7161
-38.3227	445.242	20.72583
-38.3209	448.689	20.7356
-38.319	448.159	20.7454
-38.3184	444.839	20.7551
-38.3181	442.113	20.7649
-38.3175	442.188	20.7747
-38.318	446.307	20.7844
-38.3148	452.0108	20.7942
-38.315	447.988	20.804
-38.3142	444.538	20.8137
-38.3129	441.586	20.8235
-38.3123	443.209	20.8333
-38.3116	443.994	20.843
-38.3114	450.757	20.8528
-38.3114	447.302	20.8625
-38.3092	448.804	20.8723
-38.3085	442.378	20.88208
-38.30761	438.013	20.8918
-38.3078	443.003	20.9016
-38.3063	446.1882	20.9114
-38.3053	450.074	20.9211
-38.3034	446.172	20.9309
-38.3036	442.832	20.9407
-38.3039	443.26	20.9504
-38.3024	439.75	20.9602
-38.3002	446.481	20.97
-38.3007	447.477	20.9797
-38.30011	449.099	20.9895
-38.2991	447.153	20.9993
-38.2982	437.586	21.009
-38.2964	441.217	21.0188
-38.2958	445.169	21.0286
-38.2953	448.091	21.03833
-38.2947	448.165	21.0481
-38.2932	443.792	21.0579
-38.2932	443.853	21.0676
-38.29237	443.313	21.0774
-38.2912	441.959	21.0872
-38.2908	446.705	21.0969
-38.2898	446.975	21.1067
-38.2883	447.742	21.1165
-38.2882	441.494	21.1262
-38.2878	440.305	21.136
-38.28616	441.909	21.1458
-38.2857	445.18	21.1555
-38.286	445.256	21.1653
-38.2851	444.2684	21.175
-38.2826	445.168	21.1848
-38.2817	442.814	21.19458
-38.2815	441.705	21.2043
-38.2804	439.139	21.2141
-38.2802	444.328	21.2239
-38.2803	448.539	21.2336
-38.2787	446.552	21.2434
-38.2782	443.318	21.2532
-38.2763	439.314	21.2629
-38.2763	440.864	21.2727
-38.27607	445.5903	21.2825
-38.2737	443.872	21.2922
-38.2735	446.422	21.302
-38.2722	444.001	21.3118
-38.2715	441.505	21.3215
-38.2714	439.9877	21.3313
-38.2716	437.819	21.3411
-38.2698	446.5433	21.35083
-38.2674	447.342	21.3606
-38.2685	445.014	21.3704
-38.266	441.706	21.3801
-38.2661	438.153	21.3899
-38.2647	442.722	21.3997
-38.2638	442.663	21.4094
-38.2635	446.77	21.4192
-38.2625	447.4852	21.429
-38.2619	443.1051	21.4387
-38.2618	440.891	21.4485
-38.2608	436.516	21.4583
-38.26	441.032	21.468
-38.25853	448.448	21.4778
-38.2582	447.217	21.4875
-38.2572	443.6991	21.4973
-38.25687	438.648	21.50708
-38.2563	439.006	21.5168
-38.2538	440.062	21.5266
-38.2534	445.186	21.5364
-38.2524	445.275	21.5461
-38.2522	445.477	21.5559
-38.2513	440.612	21.5657
-38.2504	437.025	21.5754
-38.2505	438.967	21.5852
-38.2485	443.488	21.595
-38.2479	447.509	21.6047
-38.2478	443.9805	21.6145
-38.2464	441.272	21.6243
-38.2445	439.773	21.634
-38.2445	436.138	21.6438
-38.2433	442.481	21.6536
-38.2435	441.872	21.66333
-38.2423	444.343	21.6731
-38.2419	444.965	21.6829
-38.241	435.511	21.6926
-38.2405	437.877	21.7024
-38.2396	440.335	21.7122
-38.2383	444.016	21.7219
-38.2369	445.1449	21.7317
-38.2367	439.71	21.7415
-38.23555	440.941	21.7512
-38.23571	439.295	21.761
-38.2348	439.215	21.7708
-38.2327	440.4361	21.7805
-38.2323	442.514	21.7903
-38.2322	445.047	21.8
-38.2302	442.002	21.8098
-38.22953	437.764	21.81958
-38.2292	438.2301	21.8293
-38.2295	439.984	21.8391
-38.22821	442.992	21.8489
-38.2272	442.573	21.8586
-38.2271	441.463	21.8684
-38.2255	442.1037	21.8782
-38.2243	439.55	21.8879
-38.2243	436.197	21.8977
-38.2216	439.342	21.9075
-38.2223	443.591	21.9172
-38.221	443.7894	21.927
-38.2209	441.086	21.9368
-38.21928	436.7988	21.9465
-38.2187	437.721	21.9563
-38.2184	441.675	21.9661
-38.2179	440.342	21.97583
-38.2164	445.153	21.9856
-38.215	442.1644	21.9954
-38.214	441.8786	22.0051
-38.2139	435.3299	22.0149
-38.2138	433.143	22.0247
-38.2132	443.0683	22.0344
-38.21085	445.049	22.0442
-38.2102	445.414	22.054
-38.2101	440.133	22.0637
-38.2084	435.404	22.0735
-38.2093	439.265	22.0833
-38.2071	437.026	22.093
-38.2074	443.3504	22.1028
-38.206	444.923	22.1125
-38.2044	441.268	22.1223
-38.20417	438.4996	22.13208
-38.2026	433.389	22.1418
-38.2026	437.838	22.1516
-38.20171	444.483	22.1614
-38.2006	444.339	22.1711
-38.2	442.228	22.1809
-38.1992	435.191	22.1907
-38.1986	435.4386	22.2004
-38.1978	436.691	22.2102
-38.1976	439.309	22.22
-38.196	444.088	22.2297
-38.1945	444.687	22.2395
-38.1952	438.279	22.2493
-38.1942	435.151	22.259
-38.1935	437.106	22.2688
-38.1923	439.662	22.2786
-38.1918	444.575	22.28833
-38.1907	442.736	22.2981
-38.1892	438.656	22.3079
-38.1892	438.058	22.3176
-38.1878	436.344	22.3274
-38.1869	440.015	22.3372
-38.1871	440.246	22.3469
-38.1855	440.701	22.3567
-38.1847	442.676	22.3665
-38.1843	437.037	22.3762
-38.1834	437.612	22.386
-38.18132	436.646	22.3958
-38.1816	439.681	22.4055
-38.1814	443.163	22.4153
-38.17886	438.567	22.425
-38.179	440.588	22.4348
-38.1792	438.389	22.44458
-38.1775	436.098	22.4543
-38.1763	437.708	22.4641
-38.1757	437.816	22.4739
-38.1765	443.818	22.4836
-38.17382	442.4101	22.4934
-38.1724	436.567	22.5032
-38.173	437.073	22.5129
-38.1724	435.3558	22.5227
-38.1708	439.95	22.5325
-38.1695	439.052	22.5422
-38.17	440.503	22.552
-38.1673	441.412	22.5618
-38.1672	436.461	22.5715
-38.1667	434.756	22.5813
-38.1664	436.624	22.5911
-38.1648	439.075	22.60083
-38.1652	443.066	22.6106
-38.1637	440.535	22.6204
-38.1624	435.172	22.6301
-38.1619	433.079	22.6399
-38.1613	437.009	22.6497
-38.1603	437.26	22.6594
-38.1595	442.642	22.6692
-38.1586	440.407	22.679
-38.158	441.228	22.6887
-38.156	436.145	22.6985
-38.15601	434.376	22.7083
-38.1557	438.696	22.718
-38.1544	442.912	22.7278
-38.154	444.25	22.7375
-38.1531	439.536	22.7473
-38.1525	432.63	22.75708
-38.1522	436.621	22.7668
-38.1503	436.806	22.7766
-38.1489	441.592	22.7864
-38.1477	442.779	22.7961
-38.14978	439.992	22.8059
-38.1471	440.091	22.8157
-38.1468	431.573	22.8254
-38.1459	434.864	22.8352
-38.1443	440.814	22.845
-38.1445	443.308	22.8547
-38.14278	442.457	22.8645
-38.1427	434.246	22.8743
-38.141	435.471	22.884
-38.1416	435.354	22.8938
-38.1397	437.462	22.9036
-38.1394	439.583	22.91333
-38.1385	442.008	22.9231
-38.1362	440.646	22.9329
-38.1368	433.9743	22.9426
-38.1359	434.558	22.9524
-38.1348	435.394	22.9622
-38.1335	439.967	22.9719
-38.1337	441.0332	22.9817
-38.134	437.8208	22.9915
-38.1311	438.872	23.0012
-38.1315	435.162	23.011
-38.129	437.346	23.0208
-38.1291	436.832	23.0305
-38.1287	438.487	23.0403
-38.1281	442.725	23.05
-38.1269	436.842	23.0598
-38.1259	436.468	23.06958
-38.1252	432.734	23.0793
-38.1253	436.885	23.0891
-38.1237	441.9798	23.0989
-38.1231	437.645	23.1086
-38.1214	439.463	23.1184
-38.1212	437.707	23.1282
-38.1198	436.826	23.1379
-38.1203	434.374	23.1477
-38.1184	435.086	23.1575
-38.1181	441.775	23.1672
-38.1171	440.839	23.177
-38.116	439.325	23.1868
-38.1155	436.225	23.1965
-38.1144	432.913	23.2063
-38.1124	437.388	23.2161
-38.113	438.432	23.22583
-38.1131	440.491	23.2356
-38.1119	441.486	23.2454
-38.1103	436.913	23.2551
-38.1103	435.6369	23.2649
-38.1083	432.711	23.2747
-38.1082	436.212	23.2844
-38.1078	442.66	23.2942
-38.1064	441.021	23.304
-38.1063	435.981	23.3137
-38.1048	433.0795	23.3235
-38.1035	435.062	23.3333
-38.1038	434.925	23.343
-38.1024	440.871	23.3528
-38.1015	440.642	23.3625
-38.1008	440.427	23.3723
-38.1	436.706	23.38208
-38.0993	430.8002	23.3918
-38.0976	437.5	23.4016
-38.0974	439.884	23.4114
-38.0963	442.412	23.4211
-38.0961	436.879	23.4309
-38.0958	432.8389	23.4407
-38.0944	434.334	23.4504
-38.0935	433.1926	23.4602
-38.0933	438.627	23.47
-38.0925	440.304	23.4797
-38.0901	440.495	23.4895
-38.091	439.5192	23.4993
-38.0892	430.518	23.509
-38.0887	432.792	23.5188
-38.0869	437.289	23.5286
-38.0863	439.066	23.53833
-38.0864	441.875	23.5481
-38.0843	434.389	23.5579
-38.0844	434.6564	23.5676
-38.0849	435.005	23.5774
-38.0823	432.859	23.5872
-38.0813	438.1188	23.5969
-38.0812	439.438	23.6067
-38.0809	439.6	23.6165
-38.0791	435.284	23.6262
-38.0781	433.037	23.636
-38.0777	434.762	23.6458
-38.0778	436.45	23.6555
-38.0758	439.757	23.6653
-38.0751	436.566	23.675
-38.076	435.783	23.6848
-38.074	435.308	23.69458
-38.0733	434.182	23.7043
-38.0722	434.591	23.7141
-38.0713	435.746	23.7239
-38.0704	440.5123	23.7336
-38.0696	436.813	23.7434
-38.06752	436.884	23.7532
-38.0686	431.346	23.7629
-38.0668	433.681	23.7727
-38.0661	438.632	23.7825
-38.0656	435.835	23.7922
-38.0652	440.702	23.802
-38.0635	435.8595	23.8118
-38.0634	433.75	23.8215
-38.0624	434.61	23.8313
-38.0621	431.49	23.8411
-38.0613	437.6445	23.85083
-38.0601	439.964	23.8606
-38.0597	437.527	23.8704
-38.0585	433.537	23.8801
-38.0575	430.2908	23.8899
-38.0566	435.538	23.8997
-38.0553	434.636	23.9094
-38.055	441.258	23.9192
-38.054	439.764	23.929
-38.0537	436.881	23.9387
-38.0528	433.406	23.9485
-38.0523	430.497	23.9583
-38.0504	434.653	23.968
-38.0502	440.822	23.9778
-38.0494	439.834	23.9875
-38.0494	436.775	23.9973
-38.048	433.1	24.00708
-38.0472	432.626	24.0168
-38.04689	434.7457	24.0266
-38.0465	437.384	24.0364
-38.0461	439.532	24.0461
-38.0428	440.253	24.0559
-38.043	435.509	24.0657
-38.0417	430.1431	24.0754
-38.0411	434.913	24.0852
-38.041	436.131	24.095
-38.0393	440.667	24.1047
-38.0389	438.241	24.1145
-38.03756	433.118	24.1243
-38.0375	432.8717	24.134
-38.0365	433.595	24.1438
-38.0358	434.893	24.1536
-38.0349	437.87	24.16333
-38.0337	437.636	24.1731
-38.034	439.921	24.1829
-38.03273	431.2966	24.1926
-38.0316	434.244	24.2024
-38.031	435.167	24.2122
-38.0307	436.732	24.2219
-38.0292	441.542	24.2317
-38.0286	434.204	24.2415
-38.02803	434.311	24.2512
-38.0266	433.335	24.261
-38.02639	434.195	24.2708
-38.0258	434.884	24.2805
-38.0248	435.805	24.2903
-38.0249	440.246	24.3
-38.023	435.787	24.3098
-38.023	433.631	24.31958
-38.0215	432.8147	24.3293
-38.0195	434.628	24.3391
-38.0205	437.115	24.3489
-38.0184	435.638	24.3586
-38.0184	436.44	24.3684
-38.0172	435.6575	24.3782
-38.0174	433.33	24.3879
-38.0152	430.176	24.3977
-38.0136	432.874	24.4075
-38.0156	437.023	24.4172
-38.0136	439.391	24.427
-38.0127	436.48	24.4368
-38.0121	430.794	24.4465
-38.0101	430.459	24.4563
-38.00988	434.942	24.4661
-38.009	434.212	24.47583
-38.0075	438.897	24.4856
-38.0066	436.658	24.4954
-38.0065	433.944	24.5051
-38.0065	431.5036	24.5149
-38.0048	427.984	24.5247
-38.0036	435.214	24.5344
-38.0028	439.192	24.5442
-38.0025	437.577	24.554
-38.0016	433.194	24.5637
-38.0002	428.054	24.5735
-38.0002	432.428	24.5833
-37.9994	432.495	24.593
-37.999	436.391	24.6028
-37.9976	437.986	24.6125
-37.9976	434.589	24.6223
-37.996	432.909	24.63208
-37.9942	426.688	24.6418
-37.99411	432.4122	24.6516
-37.9929	436.217	24.6614
-37.9922	437.413	24.6711
-37.9921	437.16	24.6809
-37.9915	429.048	24.6907
-37.9903	431.155	24.7004
-37.9899	432.545	24.7102
-37.9887	433.652	24.72
-37.9881	437.845	24.7297
-37.98724	437.368	24.7395
-37.9869	435.271	24.7493
-37.985	428.802	24.759
-37.98465	432.748	24.7688
-37.9835	433.11	24.7786
-37.9827	439.376	24.78833
-37.9825	437.811	24.7981
-37.9821	434.021	24.8079
-37.98011	431.741	24.8176
-37.9791	431.739	24.8274
-37.9785	433.277	24.8372
-37.9778	434.873	24.8469
-37.977	434.889	24.8567
-37.9758	438.753	24.8665
-37.975	430.703	24.8762
-37.9744	432.194	24.886
-37.9746	430.3913	24.8958
-37.9722	432.973	24.9055
-37.9713	439.404	24.9153
-37.9727	432.342	24.925
-37.9714	435.677	24.9348
-37.9698	434.299	24.94458
-37.9701	431.406	24.9543
-37.9694	433.204	24.9641
-37.96822	433.283	24.9739
-37.9668	439.0304	24.9836
-37.9669	437.651	24.9934
-37.9653	433.221	25.0032
-37.9646	431.615	25.0129
-37.9625	429.8512	25.0227
-37.9633	436.18	25.0325
-37.9617	436.194	25.0422
-37.9613	437.305	25.052
-37.9595	435.285	25.0618
-37.9589	433.49	25.0715
-37.9578	431.304	25.0813
-37.957	430.3685	25.0911
-37.9582	435.405	25.10083
-37.95607	439.754	25.1106
-37.9551	436.8338	25.1204
-37.9543	430.964	25.1301
-37.9532	429.169	25.1399
-37.954	433.817	25.1497
-37.9515	433.575	25.1594
-37.95055	439.532	25.1692
-37.95	436.0574	25.179
-37.9488	433.75	25.1887
-37.94875	430.771	25.1985
-37.9484	426.799	25.2083
-37.9477	432.789	25.218
-37.94659	438.187	25.2278
-37.9448	439.533	25.2375
-37.9437	434.648	25.2473
-37.94416	427.913	25.25708
-37.9428	432.448	25.2668
-37.9418	432.695	25.2766
-37.9419	436.128	25.2864
-37.9405	440.324	25.2961
-37.9397	434.341	25.3059
-37.9393	436.047	25.3157
-37.9383	427.671	25.3254
[...]
-37.9171	428.549	25.5793
-37.9168	430.756	25.5891
-37.9156	437.08	25.5989
-37.9149	433.972	25.6086
-37.9136	437.469	25.6184
-37.9128	434.078	25.6282
-37.9119	431.78	25.6379
-37.9108	432.162	25.6477
-37.909	430.446	25.6575
-37.9097	437.035	25.6672
-37.9084	439.479	25.677
-37.9077	433.9574	25.6868
-37.9077	430.195	25.6965
-37.9076	429.341	25.7063
-37.9068	434.833	25.7161
-37.9039	434.718	25.72583
-37.9037	435.656	25.7356
-37.9039	436.081	25.7454
-37.9025	432.417	25.7551
-37.9023	429.926	25.7649
-37.9006	427.63	25.7747
-37.9005	434.841	25.7844
-37.8991	438.701	25.7942
-37.8978	436.821	25.804
-37.8969	431.822	25.8137
-37.8956	428.984	25.8235
-37.89653	431.365	25.8333
-37.894	431.345	25.843
-37.8952	438.49	25.8528
-37.8935	436.141	25.8625
-37.892	436.207	25.8723
-37.891	432.377	25.88208
-37.8908	428.009	25.8918
-37.8909	431.591	25.9016
-37.8894	436.033	25.9114
-37.8891	437.872	25.9211
-37.8876	434.584	25.9309
-37.8872	429.111	25.9407
-37.8859	431.462	25.9504
-37.8855	430.249	25.9602
-37.8843	434.082	25.97
-37.8833	434.747	25.9797
-37.8832	432.92	25.9895
-37.8819	435.536	25.9993
-37.8822	427.63	26.009
-37.88076	430.533	26.0188
-37.87981	431.807	26.0286
-37.8784	436.314	26.03833
-37.8764	437.811	26.0481
-37.87711	432.099	26.0579
-37.8763	430.394	26.0676
-37.8754	430.986	26.0774
-37.87492	432.386	26.0872
-37.874	432.591	26.0969
-37.8734	434.207	26.1067
-37.8725	436.607	26.1165
-37.8713	431.69	26.1262
-37.8707	430.73	26.136
-37.8696	428.842	26.1458
-37.8688	433.729	26.1555
-37.8682	436.332	26.1653
-37.8684	433.184	26.175
-37.8656	434.5	26.1848
-37.8655	431.69	26.19458
-37.865	430.388	26.2043
-37.8635	429.668	26.2141
-37.8637	432.572	26.2239
-37.8622	436.545	26.2336
-37.8614	435.9256	26.2434
-37.8593	433.247	26.2532
-37.86	428.268	26.2629
-37.8599	430.217	26.2727
-37.8597	434.735	26.2825
-37.8577	432.508	26.2922
-37.8567	437.25	26.302
-37.8553	433.846	26.3118
-37.8546	431.638	26.3215
-37.8553	429.38	26.3313
-37.854	427.326	26.3411
-37.853	434.497	26.35083
-37.8513	437.023	26.3606
-37.8519	434.939	26.3704
-37.8508	430.548	26.3801
-37.8488	427.224	26.3899
-37.849	431.6199	26.3997
-37.8477	432.046	26.4094
-37.8472	436.497	26.4192
-37.8462	435.59	26.429
-37.8443	434.669	26.4387
-37.8447	429.86	26.4485
-37.843	425.904	26.4583
-37.843	431.503	26.468
-37.8415	436.246	26.4778
-37.8401	436.049	26.4875
-37.8392	433.345	26.4973
-37.8407	429.178	26.50708
-37.8393	426.657	26.5168
-37.8387	432.564	26.5266
-37.8375	434.845	26.5364
-37.8367	435.448	26.5461
-37.8354	435.669	26.5559
-37.834	431.748	26.5657
-37.8328	427.2085	26.5754
-37.8338	431.152	26.5852
-37.8323	431.786	26.595
-37.8316	437.282	26.6047
-37.831	435.167	26.6145
-37.8301	430.816	26.6243
-37.8285	430.253	26.634
-37.8278	430.8103	26.6438
-37.8267	432.846	26.6536
-37.8268	434.588	26.66333
-37.8248	434.237	26.6731
-37.8256	433.8616	26.6829
-37.8242	428.273	26.6926
-37.8238	429.316	26.7024
-37.82235	430.942	26.7122
-37.8219	432.493	26.7219
-37.8209	436.266	26.7317
-37.82077	431.956	26.7415
-37.8176	431.248	26.7512
-37.8179	431.93	26.761
-37.8176	429.6799	26.7708
-37.8168	433.343	26.7805
-37.8154	432.017	26.7903
-37.8152	436.36	26.8
-37.8144	434.3	26.8098
-37.8144	430.833	26.81958
-37.8129	427.402	26.8293
-37.8119	430.785	26.8391
-37.8113	433.201	26.8489
-37.80991	434.171	26.8586
-37.8099	434.109	26.8684
-37.80822	432.607	26.8782
-37.808	431.573	26.8879
-37.8077	429.141	26.8977
-37.8063	430.782	26.9075
-37.806	434.317	26.9172
-37.8046	436.241	26.927
-37.8036	434.732	26.9368
-37.8026	427.024	26.9465
-37.8018	427.424	26.9563
-37.8008	432.295	26.9661
-37.80051	432.194	26.97583
-37.7995	436.2435	26.9856
-37.7991	434.744	26.9954
-37.7977	432.812	27.0051
-37.7963	429.464	27.0149
-37.79821	425.457	27.0247
-37.7951	433.06	27.0344
-37.7966	436.624	27.0442
-37.7944	436.9772	27.054
-37.793	432.253	27.0637
-37.7925	425.468	27.0735
-37.7917	430.814	27.0833
-37.7919	432.4248	27.093
-37.7907	435.867	27.1028
-37.7889	435.474	27.1125
-37.7892	433.59	27.1223
-37.7881	432.021	27.13208
-37.7864	426.114	27.1418
-37.7858	429.317	27.1516
-37.7846	435.691	27.1614
-37.7837	438.125	27.1711
-37.7832	435.033	27.1809
-37.7829	428.982	27.1907
-37.7824	427.416	27.2004
-37.7813	432.744	27.2102
-37.7803	433.08	27.22
-37.77919	434.616	27.2297
-37.7781	435.014	27.2395
-37.7781	431.553	27.2493
-37.7769	426.814	27.259
-37.7755	427.77	27.2688
-37.7749	429.507	27.2786
-37.77317	435.32	27.28833
-37.7742	434.793	27.2981
-37.7747	429.683	27.3079
-37.7721	431.278	27.3176
-37.771	429.664	27.3274
-37.7705	429.938	27.3372
-37.7702	431.897	27.3469
-37.7689	432.681	27.3567
-37.7677	436.796	27.3665
-37.76701	429.62	27.3762
-37.76556	429.882	27.386
-37.7652	427.8	27.3958
-37.7658	431.496	27.4055
-37.7653	436.193	27.4153
-37.7625	431.077	27.425
-37.7623	432.726	27.4348
-37.7619	430.727	27.44458
-37.7602	429.674	27.4543
-37.7607	430.857	27.4641
-37.75819	429.754	27.4739
-37.7578	434.79	27.4836
-37.7575	433.337	27.4934
-37.7579	431.202	27.5032
-37.7563	427.342	27.5129
-37.7557	427.929	27.5227
-37.75272	433.547	27.5325
-37.75259	432.283	27.5422
-37.753	433.589	27.552
-37.7525	434.1702	27.5618
-37.7518	431.377	27.5715
-37.7499	426.523	27.5813
-37.7485	428.779	27.5911
-37.7479	433.107	27.60083
-37.7468	436.981	27.6106
-37.7472	433.95	27.6204
-37.7455	430.014	27.6301
-37.7455	426.472	27.6399
-37.7456	430.333	27.6497
-37.7434	432.107	27.6594
-37.7442	435.184	27.6692
-37.7415	433.319	27.679
-37.7416	432.0336	27.6887
-37.7404	430.346	27.6985
-37.7408	424.139	27.7083
-37.739	431.826	27.718
-37.7372	434.189	27.7278
-37.7377	436.599	27.7375
-37.7371	432.764	27.7473
-37.7358	424.842	27.75708
-37.73436	429.156	27.7668
-37.7345	431.354	27.7766
-37.7332	432.687	27.7864
-37.7324	435.187	27.7961
-37.7318	431.812	27.8059
-37.73	433.313	27.8157
-37.7296	426.395	27.8254
-37.7286	429.79	27.8352
-37.7293	432.648	27.845
-37.7259	436.215	27.8547
-37.726	434.744	27.8645
-37.7264	427.138	27.8743
-37.7259	426.58	27.884
-37.7239	430.784	27.8938
-37.7221	431.271	27.9036
-37.7229	432.487	27.91333
-37.7211	432.78	27.9231
-37.7205	433.922	27.9329
-37.72023	430.168	27.9426
-37.7179	427.195	27.9524
-37.7186	428.228	27.9622
-37.7181	432.879	27.9719
-37.7174	434.364	27.9817
-37.71484	431.079	27.9915
-37.7151	429.424	28.0012
-37.7137	427.939	28.011
-37.7133	429.808	28.0208
-37.7127	429.974	28.0305
-37.7103	430.519	28.0403
-37.7125	436.967	28.05
-37.7101	432.871	28.0598
-37.709	429.574	28.06958
-37.7082	425.48	28.0793
-37.7081	428.213	28.0891
-37.7072	434.063	28.0989
-37.7058	430.577	28.1086
-37.7059	433.226	28.1184
-37.7043	429.1196	28.1282
-37.70282	427.35	28.1379
-37.70219	430.989	28.1477
-37.7032	427.324	28.1575
-37.7023	431.935	28.1672
-37.7014	435.0387	28.177
-37.6997	431.48	28.1868
-37.6989	427.871	28.1965
-37.6982	425.37	28.2063
-37.6974	431.2276	28.2161
-37.6966	432.998	28.22583
-37.6961	433.367	28.2356
-37.6945	432.669	28.2454
-37.6946	430.013	28.2551
-37.6929	427.454	28.2649
-37.6918	424.664	28.2747
-37.6911	431.27	28.2844
-37.6913	436.229	28.2942
-37.6899	436.391	28.304
-37.6892	430.681	28.3137
-37.6896	424.836	28.3235
-37.6874	427.629	28.3333
-37.6866	430.3728	28.343
-37.6867	434.543	28.3528
-37.6854	433.119	28.3625
-37.6849	432.713	28.3723
-37.6841	431.003	28.38208
-37.6834	424.165	28.3918
-37.68214	430.916	28.4016
-37.6808	433.409	28.4114
-37.6803	436.491	28.4211
-37.6792	434.778	28.4309
-37.6787	425.255	28.4407
-37.6774	428.168	28.4504
-37.67627	428.608	28.4602
-37.6755	432.523	28.47
-37.6761	434.593	28.4797
-37.6744	429.585	28.4895
-37.6743	431.8811	28.4993
-37.6738	425.284	28.509
-37.67281	427.004	28.5188
-37.6714	430.402	28.5286
-37.6702	432.815	28.53833
-37.6695	437.051	28.5481
-37.6694	428.187	28.5579
-37.668	427.211	28.5676
-37.6673	430.073	28.5774
-37.6673	428.463	28.5872
-37.6652	430.2337	28.5969
-37.6659	431.692	28.6067
-37.6625	434.991	28.6165
-37.6631	430.144	28.6262
-37.6623	427.669	28.636
-37.66124	426.441	28.6458
-37.6603	431.365	28.6555
-37.6593	434.041	28.6653
-37.658	431.4324	28.675
-37.6588	430.4823	28.6848
-37.6568	428.518	28.69458
-37.6569	428.82	28.7043
-37.6556	427.036	28.7141
-37.6555	429.026	28.7239
-37.6531	435.257	28.7336
-37.6535	433.283	28.7434
-37.65279	430.996	28.7532
-37.6521	425.902	28.7629
-37.6517	425.143	28.7727
-37.6491	432.274	28.7825
-37.6493	430.373	28.7922
-37.6488	435.092	28.802
-37.6474	430.554	28.8118
-37.6462	426.829	28.8215
-37.6456	430.527	28.8313
-37.6447	424.431	28.8411
-37.64476	432.765	28.85083
-37.6432	435.443	28.8606
-37.6422	431.992	28.8704
-37.6417	428.518	28.8801
-37.6405	422.995	28.8899
-37.6403	428.949	28.8997
-37.6388	429.953	28.9094
-37.6376	432.454	28.9192
-37.6378	431.018	28.929
-37.6381	430.087	28.9387
-37.6362	426.158	28.9485
-37.6366	424.15	28.9583
-37.6352	428.959	28.968
-37.6339	434.096	28.9778
-37.6337	435.0665	28.9875
-37.6326	430.82	28.9973
-37.6322	425.2717	29.00708
-37.6298	426.137	29.0168
-37.63	429.076	29.0266
-37.6286	433.906	29.0364
-37.62775	432.132	29.0461
-37.62775	431.866	29.0559
-37.6273	429.9454	29.0657
-37.6253	423.534	29.0754
-37.625	428.761	29.0852
-37.6244	429.541	29.095
-37.6226	434.491	29.1047
-37.6227	432.75	29.1145
-37.6224	427.133	29.1243
-37.6207	427.096	29.134
-37.6204	426.092	29.1438
-37.6185	430.3902	29.1536
-37.6177	431.303	29.16333
-37.6173	430.478	29.1731
-37.6173	433.537	29.1829
-37.6153	427.144	29.1926
-37.614	426.409	29.2024
-37.6141	428.997	29.2122
-37.6134	429.848	29.2219
-37.61208	434.8765	29.2317
-37.6121	429.597	29.2415
-37.6111	429.65	29.2512
-37.6096	428.12	29.261
-37.6101	427.157	29.2708
-37.6077	429.724	29.2805
-37.6083	429.86	29.2903
-37.60725	434.539	29.3
-37.6061	434.204	29.3098
-37.6046	427.412	29.31958
-37.6053	424.93	29.3293
-37.6032	427.839	29.3391
-37.6042	432.841	29.3489
-37.60331	432.434	29.3586
-37.6003	433.602	29.3684
-37.5996	427.891	29.3782
-37.6001	428.653	29.3879
-37.5998	427.168	29.3977
-37.5972	428.16	29.4075
-37.5972	433.761	29.4172
-37.596	434.153	29.427
-37.5952	431.01	29.4368
-37.5954	424.957	29.4465
-37.5929	422.522	29.4563
-37.5939	429.877	29.4661
-37.5928	430.793	29.47583
-37.5925	434.2439	29.4856
-37.5911	431.153	29.4954
-37.5895	428.068	29.5051
-37.5891	427.279	29.5149
-37.5881	424.393	29.5247
-37.587	430.506	29.5344
-37.5862	434.453	29.5442
-37.5845	431.841	29.554
-37.5851	429.264	29.5637
-37.5845	423.688	29.5735
-37.5848	425.516	29.5833
-37.5831	429.904	29.593
-37.581	434.891	29.6028
-37.5823	432.793	29.6125
-37.5804	429.221	29.6223
-37.5785	426.256	29.63208
-37.5784	424.451	29.6418
-37.5766	427.674	29.6516
-37.5777	432.125	29.6614
-37.57674	433.901	29.6711
-37.5753	432.406	29.6809
-37.5746	426.039	29.6907
-37.573	424.889	29.7004
-37.573	428.826	29.7102
-37.5717	431.43	29.72
-37.571	431.214	29.7297
-37.5701	430.28	29.7395
-37.5695	430.8306	29.7493
-37.5701	425.167	29.759
-37.5677	425.547	29.7688
-37.56646	425.483	29.7786
-37.5671	431.157	29.78833
-37.5645	433.431	29.7981
-37.5644	426.637	29.8079
-37.56456	428.382	29.8176
-37.5638	426.979	29.8274
-37.5618	428.245	29.8372
-37.5615	430.348	29.8469
-37.5615	428.863	29.8567
-37.5591	433.535	29.8665
-37.5592	428.181	29.8762
-37.558	426.3699	29.886
-37.5573	425.233	29.8958
-37.5556	426.557	29.9055
-37.556	432.863	29.9153
-37.5538	428.909	29.925
-37.5537	429.826	29.9348
-37.553	427.66	29.94458
-37.5528	427.121	29.9543
-37.5519	426.313	29.9641
-37.5501	427.097	29.9739
-37.5509	431.804	29.9836
-37.5483	434.206	29.9934
-37.5481	429.087	30.0032
-37.5481	425.6998	30.0129
-37.5465	424.956	30.0227
-37.54594	428.855	30.0325
-37.5453	431.306	30.0422
-37.5439	431.33	30.052
-37.544	428.072	30.0618
-37.5426	427.265	30.0715
-37.5406	425.902	30.0813
-37.5411	425.628	30.0911
-37.5402	429.315	30.10083
-37.5387	433.806	30.1106
-37.5377	431.8024	30.1204
-37.53751	425.964	30.1301
-37.536	422.625	30.1399
-37.53635	426.773	30.1497
-37.5356	429.372	30.1594
-37.53376	433.264	30.1692
-37.5338	430.4476	30.179
-37.53233	427.947	30.1887
-37.5318	426.702	30.1985
-37.5322	422.206	30.2083
-37.531	428.414	30.218
-37.5293	432.003	30.2278
-37.528	434.978	30.2375
-37.5282	430.025	30.2473
-37.5281	422.396	30.25708
-37.5264	424.627	30.2668
-37.5256	428.244	30.2766
-37.5244	429.112	30.2864
-37.5228	431.559	30.2961
-37.5227	427.693	30.3059
-37.5225	428.561	30.3157
-37.5215	423.707	30.3254
-37.5208	425.828	30.3352
-37.5205	428.741	30.345
-37.5193	430.8732	30.3547
-37.5178	431.859	30.3645
-37.5175	426.587	30.3743
-37.5164	423.502	30.384
-37.51614	426.408	30.3938
-37.515	427.723	30.4036
-37.5147	428.711	30.41333
-37.51368	428.946	30.4231
-37.51326	430.5137	30.4329
-37.5111	428.0173	30.4426
-37.5112	424.695	30.4524
-37.51	423.95	30.4622
-37.5086	427.69	30.4719
-37.5083	433.0415	30.4817
-37.5074	426.482	30.4915
-37.5056	427.507	30.5012
-37.5061	424.092	30.511
-37.5051	425.812	30.5208
-37.504	426.678	30.5305
-37.50433	424.779	30.5403
-37.5024	431.059	30.55
-37.5026	429.088	30.5598
-37.5005	426.287	30.56958
-37.5007	422.967	30.5793
-37.4997	423.757	30.5891
-37.4983	431.199	30.5989
-37.4978	427.716	30.6086
-37.4968	429.711	30.6184
-37.4956	426.97	30.6282
-37.49543	423.64	30.6379
-37.4942	424.756	30.6477
-37.4938	424.9491	30.6575
-37.493	430.626	30.6672
-37.492	433.305	30.677
-37.49176	427.222	30.6868
-37.4908	424.04	30.6965
-37.4896	420.951	30.7063
-37.4895	425.6322	30.7161
-37.4882	430.636	30.72583
-37.4873	431.062	30.7356
-37.4858	428.31	30.7454
-37.48542	425.132	30.7551
-37.4846	423.618	30.7649
-37.4843	422.832	30.7747
-37.4825	427.796	30.7844
-37.4816	429.431	30.7942
-37.481	430.585	30.804
-37.4807	424.927	30.8137
-37.4794	420.561	30.8235
-37.4797	423.963	30.8333
-37.4782	426.753	30.843
-37.478	430.788	30.8528
-37.477	428.185	30.8625
-37.4767	427.207	30.8723
-37.4756	426.472	30.88208
-37.4734	420.091	30.8918
-37.47271	425.658	30.9016
-37.4724	427.908	30.9114
-37.4728	430.076	30.9211
-37.4721	430.358	30.9309
-37.4698	421.439	30.9407
-37.4697	423.508	30.9504
-37.4685	425.127	30.9602
-37.468	429.4	30.97
-37.4674	430.509	30.9797
-37.4664	426.821	30.9895
-37.4649	426.544	30.9993
-37.4649	423.537	31.009
-37.4634	422.09	31.0188
-37.463	425.106	31.0286
-37.4616	427.605	31.03833
-37.4601	429.039	31.0481
-37.4611	424.674	31.0579
-37.4594	424.218	31.0676
-37.45792	423.558	31.0774
-37.4577	425.612	31.0872
-37.457	426.564	31.0969
-37.4559	426.611	31.1067
-37.4561	429.278	31.1165
-37.4548	426.147	31.1262
-37.4547	422.946	31.136
-37.4543	420.602	31.1458
-37.4529	423.687	31.1555
-37.4507	428.69	31.1653
-37.4498	426.8812	31.175
-37.4511	429.109	31.1848
-37.4493	422.903	31.19458
-37.4482	422.864	31.2043
-37.4467	423.716	31.2141
-37.4469	423.096	31.2239
-37.4463	428.338	31.2336
-37.4449	428.177	31.2434
-37.4442	427.304	31.2532
-37.4425	421.876	31.2629
-37.442	420.031	31.2727
-37.44	427.895	31.2825
-37.441	427.879	31.2922
-37.4408	428.166	31.302
-37.4386	425.973	31.3118
-37.438	422.091	31.3215
-37.4387	421.74	31.3313
-37.4375	420.595	31.3411
-37.4364	427.163	31.35083
-37.4357	431.065	31.3606
-37.4349	426.876	31.3704
-37.4338	423.478	31.3801
-37.4322	418.95	31.3899
-37.4317	422.0368	31.3997
-37.4316	427.208	31.4094
-37.4304	429.8674	31.4192
-37.43	426.4642	31.429
-37.42881	424.737	31.4387
-37.42836	421.464	31.4485
-37.4276	419.6861	31.4583
-37.4258	425.058	31.468
-37.4261	427.976	31.4778
-37.424	430.085	31.4875
-37.4233	424.474	31.4973
-37.4229	418.6246	31.50708
-37.4221	418.146	31.5168
-37.4221	421.78	31.5266
-37.4206	427.973	31.5364
-37.4189	427.153	31.5461
-37.4192	424.159	31.5559
-37.4182	423.84	31.5657
-37.4177	418.641	31.5754
-37.4159	420.933	31.5852
-37.4161	423.14	31.595
-37.4152	427.308	31.6047
-37.4141	427.384	31.6145
-37.4133	420.503	31.6243
-37.4126	421.388	31.634
-37.411	421.63	31.6438
-37.4115	424.218	31.6536
-37.4114	427.319	31.66333
-37.4089	424.421	31.6731
-37.4077	427.7186	31.6829
-37.4081	422.846	31.6926
-37.4075	419.4245	31.7024
-37.4058	420.816	31.7122
-37.4046	421.285	31.7219
-37.40556	427.909	31.7317
-37.40366	424.354	31.7415
-37.4017	423.077	31.7512
-37.4011	420.158	31.761
-37.4011	420.744	31.7708
-37.4003	422.088	31.7805
-37.3985	422.502	31.7903
-37.399	426.099	31.8
-37.3977	424.37	31.8098
-37.3965	421.165	31.81958
-37.3967	418.359	31.8293
-37.3948	419.029	31.8391
-37.3949	424.1059	31.8489
-37.39362	425.491	31.8586
-37.3935	424.42	31.8684
-37.3927	420.921	31.8782
-37.3908	419.4006	31.8879
-37.391	418.954	31.8977
-37.3899	419.638	31.9075
-37.389	425.7645	31.9172
-37.3876	424.271	31.927
-37.3865	425.713	31.9368
-37.3856	418.419	31.9465
-37.3864	413.76	31.9563
-37.3836	420.63	31.9661
-37.38435	422.7515	31.97583
-37.38353	426.646	31.9856
-37.3818	423.998	31.9954
-37.3811	417.551	32.0051
-37.3798	418.007	32.0149
-37.3802	413.763	32.0247
-37.3786	420.974	32.0344
-37.378	425.227	32.0442
-37.3775	422.235	32.054
-37.3765	419.928	32.0637
-37.3758	411.7341	32.0735
-37.3744	413.997	32.0833
-37.3744	420.635	32.093
-37.3731	421.165	32.1028
-37.3723	423.658	32.1125
-37.3725	416.657	32.1223
-37.3703	415.168	32.13208
-37.37	413.212	32.1418
-37.3693	415.656	32.1516
-37.369	417.624	32.1614
-37.36726	421.033	32.1711
-37.3666	415.899	32.1809
-37.3653	411.549	32.1907
-37.3655	409.803	32.2004
-37.3647	410.9147	32.2102
-37.3638	412.539	32.22
-37.363	411.036	32.2297
-37.36137	408.44	32.2395
-37.36	404.716	32.2493
-37.3607	396.692	32.259
-37.359	392.209	32.2688
-37.3581	365.9	32.2786
-37.3552	-15.81807	32.28833
-37.3554	-24.6146	32.2981
-37.3548	-52.0955	32.3079
-37.353	-43.7771	32.3176
-37.3528	-44.916	32.3274
-37.3517	-38.6694	32.3372
-37.3519	-40.0844	32.3469
-37.3507	-40.8993	32.3567
-37.3512	-39.7812	32.3665
-37.3506	-40.1958	32.3762
-37.3485	-44.592	32.386
-37.3477	-45.4026	32.3958
-37.3474	-45.2014	32.4055
-37.3472	-38.44	32.4153
-37.3459	-40.5234	32.425
-37.3453	-41.4569	32.4348
-37.3443	-44.2931	32.44458
-37.343	-44.6476	32.4543
-37.3427	-43.0791	32.4641
-37.3435	-43.1817	32.4739
-37.3404	-39.7597	32.4836
-37.3403	-38.1194	32.4934
-37.3388	-42.6182	32.5032
-37.33849	-46.6157	32.5129
-37.3391	-46.6934	32.5227
-37.3363	-42.0475	32.5325
-37.3368	-37.5937	32.5422
-37.3358	-38.0782	32.552
-37.3342	-43.1889	32.5618
-37.3338	-45.7051	32.5715
-37.3338	-44.3483	32.5813
-37.3317	-46.1059	32.5911
-37.3322	-39.2278	32.60083
-37.3311	-38.5019	32.6106
-37.33	-39.01667	32.6204
-37.3285	-43.4083	32.6301
-37.3287	-49.257	32.6399
-37.3281	-45.2072	32.6497
-37.3271	-39.3177	32.6594
-37.3274	-37.6297	32.6692
-37.3249	-40.0743	32.679
-37.3234	-44.8744	32.6887
-37.3231	-43.0695	32.6985
-37.32259	-47.7378	32.7083
-37.3208	-41.166	32.718
-37.3214	-40.19305	32.7278
-37.3204	-38.1777	32.7375
-37.3192	-40.0521	32.7473
-37.3184	-47.9632	32.75708
-37.317	-46.0783	32.7668
-37.3165	-41.3469	32.7766
-37.3162	-40.6367	32.7864
-37.3152	-38.8019	32.7961
-37.3156	-43.241	32.8059
-37.31295	-44.2672	32.8157
-37.314	-45.1699	32.8254
-37.31163	-45.2275	32.8352
-37.3115	-41.5394	32.845
-37.3098	-39.7307	32.8547
-37.30957	-37.4588	32.8645
-37.3091	-44.4561	32.8743
-37.3088	-45.1878	32.884
-37.3077	-44.3881	32.8938
-37.3066	-40.62833	32.9036
-37.3055	-40.931	32.91333
-37.3067	-40.6743	32.9231
-37.3033	-41.2278	32.9329
-37.3029	-43.5127	32.9426
-37.3019	-44.6747	32.9524
-37.302	-45.51	32.9622
-37.3008	-42.9982	32.9719
-37.3002	-37.675	32.9817
-37.29863	-42.4041	32.9915
-37.2979	-40.222	33.0012
-37.2966	-45.2656	33.011
-37.29607	-44.4341	33.0208
-37.2962	-42.577	33.0305
-37.2947	-42.8605	33.0403
-37.2951	-40.7739	33.05
-37.2927	-40.3812	33.0598
-37.2924	-42.9357	33.06958
-37.292	-45.1106	33.0793
-37.2907	-47.975	33.0891
-37.2909	-38.5245	33.0989
-37.2888	-38.966	33.1086
-37.2883	-41.6515	33.1184
-37.2879	-42.2229	33.1282
-37.2868	-45.9655	33.1379
-37.2858	-43.7879	33.1477
-37.2849	-45.0333	33.1575
-37.2844	-40.0169	33.1672
-37.2834	-37.4154	33.177
-37.2822	-40.9649	33.1868
-37.2817	-44.7632	33.1965
-37.2796	-48.357	33.2063
-37.2807	-45.2731	33.2161
-37.2801	-38.4551	33.22583
-37.2787	-37.8985	33.2356
-37.2787	-41.8774	33.2454
-37.2774	-45.02457	33.2551
-37.27647	-46.018	33.2649
-37.2764	-45.761	33.2747
-37.274	-40.7973	33.2844
-37.2738	-39.5764	33.2942
-37.2737	-38.2606	33.304
-37.27293	-41.282	33.3137
-37.2719	-48.9365	33.3235
-37.2707	-46.3171	33.3333
-37.2699	-41.9421	33.343
-37.2686	-37.6518	33.3528
-37.2681	-39.8666	33.3625
-37.26683	-43.8789	33.3723