File: data/processed_data_files/tensile/0.254_solid_dimension_typeiv_090_r(4).dat
MTS793|BTW|ENU|1|2|.|/|:|1|0|0|A

Data Header:			0.254_solid_dimension_typeiv_090_r0			Time:	20.0176	s	4/14/2019 1:43:05 AM
Data Acquisition:	Timed
Station Name:	ft40.cfg
Test File Name:	monotonic_0.2540_typeiv_solid_090_dimension.tst
Displacement	Force	Running Time
mm	N	s
-40.0424	-308.504	0.0227051
-40.0423	-313.143	0.0422363
-40.0407	-311.6846	0.0617676
-40.0404	-311.863	0.0812988
-40.0406	-307.36	0.10083
-40.0381	-309.015	0.120361
-40.0365	-308.948	0.139893
-40.033	-308.609	0.159424
-40.0317	-307.049	0.178955
-40.0313	-309.647	0.198486
-40.0301	-303.913	0.218018
-40.0279	-304.591	0.237549
-40.0267	-306.2988	0.25708
-40.0244	-302.3877	0.276611
-40.0218	-299.517	0.296143
-40.0209	-305.691	0.315674
-40.0205	-300.3688	0.335205
-40.01791	-294.087	0.354736
-40.017	-300.8327	0.374268
-40.0141	-297.589	0.393799
-40.0133	-296.211	0.41333
-40.0113	-296.959	0.432861
-40.0112	-295.047	0.452393
-40.00861	-288.19	0.471924
-40.00531	-297.6734	0.491455
-40.0042	-293.616	0.510986
-40.004	-289.428	0.530518
-40.0026	-287.642	0.550049
-40.0004	-292.954	0.56958
-39.9985	-285.083	0.589111
-39.9979	-288.143	0.608643
-39.99511	-289.1026	0.628174
-39.994	-284.867	0.647705
-39.9931	-283.212	0.667236
-39.9899	-286.857	0.686768
-39.9886	-281.855	0.706299
-39.9872	-281.985	0.72583
-39.9859	-283.127	0.745361
-39.9842	-282.07	0.764893
-39.9827	-276.784	0.784424
-39.9814	-278.9313	0.803955
-39.9793	-279.849	0.823486
-39.9777	-276.847	0.843018
-39.97567	-274.281	0.862549
-39.9751	-277.853	0.88208
-39.9729	-273.489	0.901611
-39.9714	-271.659	0.921143
-39.96978	-275.772	0.940674
-39.9672	-270.584	0.960205
-39.9657	-268.106	0.979736
-39.9649	-272.464	0.999268
-39.963	-269.827	1.0188
-39.9603	-264.289	1.03833
-39.9596	-270.064	1.05786
-39.958	-267.545	1.07739
-39.956	-263.215	1.09692
-39.9548	-265.552	1.11646
-39.9531	-265.504	1.13599
-39.952	-258.002	1.15552
-39.9506	-263.63	1.17505
-39.9477	-262.481	1.19458
-39.9462	-257.678	1.21411
-39.9454	-255.982	1.23364
-39.9436	-260.282	1.25317
-39.9414	-254.588	1.27271
-39.9397	-256.021	1.29224
-39.9382	-255.059	1.31177
-39.9362	-255.9281	1.3313
-39.9357	-251.722	1.35083
-39.934	-254.62	1.37036
-39.9312	-250.652	1.38989
-39.931	-249.25	1.40942
-39.9279	-249.956	1.42896
-39.9271	-251.991	1.44849
-39.9246	-246.36	1.46802
-39.9234	-243.758	1.48755
-39.9222	-249.158	1.50708
-39.9207	-244.105	1.52661
-39.9184	-241.743	1.54614
-39.9174	-245.826	1.56567
-39.9154	-241.031	1.58521
-39.915	-238.2515	1.60474
-39.9123	-245.12	1.62427
-39.91	-237.641	1.6438
-39.909	-235.495	1.66333
-39.9075	-238.48	1.68286
-39.90604	-238.99	1.70239
-39.9051	-229.011	1.72192
-39.902	-236.873	1.74146
-39.9012	-234.414	1.76099
-39.9005	-232.1601	1.78052
-39.8966	-231.217	1.80005
-39.89608	-230.992	1.81958
-39.8939	-225.019	1.83911
-39.8931	-229.292	1.85864
-39.8918	-229.768	1.87817
-39.8893	-227.095	1.89771
-39.8884	-222.019	1.91724
-39.88644	-227.919	1.93677
-39.8838	-224.4568	1.9563
-39.8821	-221.54	1.97583
-39.882	-221.142	1.99536
-39.8803	-223.793	2.01489
-39.8792	-217.445	2.03442
-39.87632	-217.729	2.05396
-39.875	-221.95	2.07349
-39.8735	-214.74	2.09302
-39.8715	-215.466	2.11255
-39.8706	-220.224	2.13208
-39.8684	-213.405	2.15161
-39.8671	-208.951	2.17114
-39.8654	-216.771	2.19067
-39.8633	-209.471	2.21021
-39.8614	-208.237	2.22974
-39.8607	-208.975	2.24927
-39.8587	-208.311	2.2688
-39.8572	-203.466	2.28833
-39.8563	-211.878	2.30786
-39.8536	-204.057	2.32739
-39.8519	-202.469	2.34692
-39.8499	-205.041	2.36646
-39.849	-204.981	2.38599
-39.8476	-196.909	2.40552
-39.8463	-201.642	2.42505
-39.8439	-198.77	2.44458
-39.8427	-198.901	2.46411
-39.84053	-194.619	2.48364
-39.83783	-196.804	2.50317
-39.8379	-193.008	2.52271
-39.8356	-194.988	2.54224
-39.8344	-193.972	2.56177
-39.8322	-192.194	2.5813
-39.8318	-187.656	2.60083
-39.8298	-191.486	2.62036
-39.82896	-190.268	2.63989
-39.8273	-187.067	2.65942
-39.8251	-187.191	2.67896
-39.8232	-189.418	2.69849
-39.8213	-184.165	2.71802
-39.819	-184.168	2.73755
-39.8177	-186.634	2.75708
-39.8164	-180.165	2.77661
-39.81638	-180.91	2.79614
-39.8138	-185.101	2.81567
-39.8117	-179.363	2.83521
-39.8096	-174.319	2.85474
-39.8083	-182.489	2.87427
-39.8064	-176.274	2.8938
-39.80547	-173.384	2.91333
-39.8037	-175.844	2.93286
-39.8023	-173.774	2.95239
-39.8006	-168.688	2.97192
-39.7979	-176.334	2.99146
-39.7965	-171.72	3.01099
-39.7956	-168.345	3.03052
-39.7955	-169.136	3.05005
-39.7921	-172.111	3.06958
-39.7907	-163.183	3.08911
-39.7885	-165.427	3.10864
-39.7879	-167.596	3.12817
-39.78561	-164.991	3.14771
-39.7838	-160.76	3.16724
-39.7825	-163.414	3.18677
-39.7808	-159.311	3.2063
-39.77985	-159.8	3.22583
-39.7777	-161.619	3.24536
-39.7761	-160.73	3.26489
-39.7738	-153.474	3.28442
-39.7735	-155.834	3.30396
-39.7715	-159.741	3.32349
-39.77	-152.665	3.34302
-39.7685	-152.172	3.36255
-39.7659	-155.491	3.38208
-39.7641	-151.631	3.40161
-39.7634	-147.73	3.42114
-39.7627	-153.843	3.44067
-39.7609	-147.549	3.46021
-39.758	-146.783	3.47974
-39.7575	-149.744	3.49927
-39.7546	-145.768	3.5188
-39.7531	-138.746	3.53833
-39.7524	-147.031	3.55786
-39.7503	-143.286	3.57739
-39.7471	-137.1322	3.59692
-39.7457	-139.42	3.61646
-39.7456	-139.763	3.63599
-39.7433	-133.679	3.65552
-39.7415	-138.864	3.67505
-39.73893	-136.826	3.69458
-39.7399	-134.031	3.71411
-39.7358	-133.254	3.73364
-39.7357	-135.796	3.75317
-39.7336	-131.242	3.77271
-39.7318	-129.3598	3.79224
-39.7305	-130.437	3.81177
-39.7296	-130.45	3.8313
-39.7281	-125.254	3.85083
-39.725	-127.122	3.87036
-39.7244	-127.823	3.88989
-39.7216	-122.466	3.90942
-39.7211	-124.684	3.92896
-39.7189	-123.706	3.94849
-39.7181	-120.0274	3.96802
-39.7161	-118.335	3.98755
-39.7143	-124.31	4.00708
-39.7129	-117.005	4.02661
-39.7099	-115.572	4.04614
-39.7093	-119.94	4.06567
-39.7079	-116.114	4.08521
-39.7071	-111.299	4.10474
-39.7047	-118.0362	4.12427
-39.7024	-110.135	4.1438
-39.7016	-109.336	4.16333
-39.6996	-112.272	4.18286
-39.6969	-111.314	4.20239
-39.6968	-101.857	4.22192
-39.6938	-111.067	4.24146
-39.692	-108.825	4.26099
-39.6909	-102.44	4.28052
-39.6902	-104.5	4.30005
-39.6882	-105.277	4.31958
-39.6868	-99.2461	4.33911
-39.6839	-103.137	4.35864
-39.684	-103.216	4.37817
-39.6818	-98.6226	4.39771
-39.6804	-95.1842	4.41724
-39.6778	-99.7005	4.43677
-39.6767	-96.6064	4.4563
-39.67577	-93.6827	4.47583
-39.673	-95.2454	4.49536
-39.672	-95.093	4.51489
-39.6698	-89.8047	4.53442
-39.6688	-89.7569	4.55396
-39.6673	-93.513	4.57349
-39.6651	-85.8645	4.59302
-39.6643	-90.0569	4.61255
-39.6623	-90.5866	4.63208
-39.6593	-84.739	4.65161
-39.659	-81.3791	4.67114
-39.6573	-90.6639	4.69067
-39.6557	-82.2713	4.71021
-39.6556	-80.513	4.72974
-39.6516	-82.7058	4.74927
-39.6506	-80.2569	4.7688
-39.6486	-74.83889	4.78833
-39.6478	-81.4116	4.80786
-39.6466	-75.6855	4.82739
-39.6443	-75.1017	4.84692
-39.6413	-76.6566	4.86646
-39.64106	-76.1204	4.88599
-39.6388	-69.2599	4.90552
-39.638	-74.5533	4.92505
-39.6357	-73.5359	4.94458
-39.6345	-70.0672	4.96411
-39.6336	-67.4015	4.98364
-39.6302	-68.7193	5.00317
-39.6291	-66.7925	5.02271
-39.62756	-67.0196	5.04224
-39.6266	-66.8958	5.06177
-39.6252	-64.6363	5.0813
-39.6238	-60.5116	5.10083
-39.6213	-63.5544	5.12036
-39.62	-64.3172	5.13989
-39.6186	-57.5189	5.15942
-39.6161	-59.2635	5.17896
-39.6151	-61.2851	5.19849
-39.6138	-54.7019	5.21802
-39.6119	-54.1264	5.23755
-39.61	-59.8261	5.25708
-39.60881	-50.182	5.27661
-39.6061	-53.1532	5.29614
-39.6068	-53.6843	5.31567
-39.6048	-48.5873	5.33521
-39.6024	-45.4484	5.35474
-39.6002	-55.5651	5.37427
-39.5982	-47.4048	5.3938
-39.5967	-44.9937	5.41333
-39.5956	-46.3328	5.43286
-39.5938	-45.91584	5.45239
-39.5921	-39.9435	5.47192
-39.5919	-46.1077	5.49146
-39.5895	-41.8341	5.51099
-39.5876	-39.95509	5.53052
-39.5859	-40.0432	5.55005
-39.5835	-41.2352	5.56958
-39.58173	-34.3797	5.58911
-39.581	-35.1393	5.60864
-39.5797	-37.6982	5.62817
-39.57695	-34.0495	5.64771
-39.57502	-30.4901	5.66724
-39.57439	-32.01	5.68677
-39.5736	-32.732	5.7063
-39.572	-27.8827	5.72583
-39.5691	-29.8931	5.74536
-39.5672	-26.9866	5.76489
-39.5652	-24.1847	5.78442
-39.5648	-25.6437	5.80396
-39.5629	-29.6762	5.82349
-39.5623	-19.8556	5.84302
-39.5598	-22.8892	5.86255
-39.5585	-25.135	5.88208
-39.55452	-19.2524	5.90161
-39.55439	-16.2831	5.92114
-39.5533	-22.77247	5.94067
-39.55175	-15.3994	5.96021
-39.548	-16.0253	5.97974
-39.5473	-18.3961	5.99927
-39.5461	-14.21237	6.0188
-39.5453	-8.39299	6.03833
-39.5444	-16.0945	6.05786
-39.5416	-12.1921	6.07739
-39.5404	-9.17119	6.09692
-39.5393	-10.1888	6.11646
-39.5371	-11.5918	6.13599
-39.53619	-5.41796	6.15552
-39.5331	-8.88631	6.17505
-39.532	-8.56591	6.19458
-39.5306	-3.17387	6.21411
-39.5297	-4.30618	6.23364
-39.52676	-5.08559	6.25317
-39.5246	-0.837061	6.27271
-39.5238	1.3013	6.29224
-39.5226	-2.59265	6.31177
-39.5199	-0.418915	6.3313
-39.52	4.1377	6.35083
-39.5169	4.57806	6.37036
-39.5161	0.532287	6.38989
-39.51429	9.09596	6.40942
-39.5124	3.076751	6.42896
-39.5101	5.58089	6.44849
-39.5091	11.6904	6.46802
-39.5083	10.3316	6.48755
-39.5061	5.25803	6.50708
-39.5045	15.3038	6.52661
-39.5027	13.1022	6.54614
-39.5008	11.0475	6.56567
-39.4987	15.6926	6.58521
-39.49818	20.26874	6.60474
-39.4956	12.018	6.62427
-39.4946	18.1437	6.6438
-39.49305	20.1445	6.66333
-39.4902	17.4555	6.68286
-39.4895	21.4711	6.70239
-39.4879	26.1902	6.72192
-39.4857	19.3683	6.74146
-39.4855	21.8361	6.76099
-39.4836	26.8917	6.78052
-39.4808	25.4049	6.80005
-39.4801	24.0073	6.81958
-39.4786	27.9939	6.83911
-39.476	30.327	6.85864
-39.4747	28.6105	6.87817
-39.4731	31.3738	6.89771
-39.4718	33.62	6.91724
-39.4704	31.1051	6.93677
-39.4671	32.6516	6.9563
-39.4673	39.3714	6.97583
-39.4654	33.4646	6.99536
-39.4647	35.46019	7.01489
-39.4624	40.949	7.03442
-39.46	41.3655	7.05396
-39.4583	36.1582	7.07349
-39.4576	45.0514	7.09302
-39.45631	41.1304	7.11255
-39.4537	41.8805	7.13208
-39.4522	48.0505	7.15161
-39.45097	47.6767	7.17114
-39.44833	41.8143	7.19067
-39.4476	50.5746	7.21021
-39.4451	51.6873	7.22974
-39.4438	46.7714	7.24927
-39.4425	50.0668	7.2688
-39.4409	55.9399	7.28833
-39.4387	50.0351	7.30786
-39.4376	53.2067	7.32739
-39.4361	56.17067	7.34692
-39.4349	53.2623	7.36646
-39.4315	56.3638	7.38599
-39.4314	60.9745	7.40552
-39.4291	57.2974	7.42505
-39.4281	56.5398	7.44458
-39.4259	62.6336	7.46411
-39.4235	61.10984	7.48364
-39.4233	60.6159	7.50317
-39.4227	62.7222	7.52271
-39.42	68.0274	7.54224
-39.4186	62.3304	7.56177
-39.4167	67.6151	7.5813
-39.4148	68.8602	7.60083
-39.4126	67.0689	7.62036
-39.4124	66.24308	7.63989
-39.4099	76.2099	7.65942
-39.4086	70.9687	7.67896
-39.4065	71.1075	7.69849
-39.4048	76.5481	7.71802
-39.4037	77.1262	7.73755
-39.402	70.9642	7.75708
-39.4001	79.4913	7.77661
-39.3995	79.4075	7.79614
-39.3969	76.08316	7.81567
-39.3959	83.1617	7.83521
-39.3931	84.4361	7.85474
-39.3914	76.7709	7.87427
-39.3898	84.3669	7.8938
-39.3886	86.8617	7.91333
-39.3872	82.169	7.93286
-39.386	84.0315	7.95239
-39.3837	90.1306	7.97192
-39.3823	86.7066	7.99146
-39.3814	86.8803	8.01099
-39.3799	92.6714	8.03052
-39.3779	90.0337	8.05005
-39.3761	90.972	8.06958
-39.3742	94.2709	8.08911
-39.3729	95.7777	8.10864
-39.3701	90.4359	8.12817
-39.3704	97.0293	8.14771
-39.3675	100.514	8.16724
-39.366	96.2937	8.18677
-39.3638	96.1848	8.2063
-39.3636	104.511	8.22583
-39.3599	98.0224	8.24536
-39.3597	102.618	8.26489
-39.3578	106.266	8.28442
-39.3556	105.801	8.30396
-39.3546	101.988	8.32349
-39.354	111.671	8.34302
-39.3505	107.144	8.36255
-39.3491	103.325	8.38208
-39.3483	111.6509	8.40161
-39.3457	114.129	8.42114
-39.346	105.802	8.44067
-39.34309	114.414	8.46021
-39.3411	115.094	8.47974
-39.3405	113.394	8.49927
-39.339	115.846	8.5188
-39.3371	119.587	8.53833
-39.3347	113.001	8.55786
-39.33445	117.776	8.57739
-39.3334	123.043	8.59692
-39.3304	117.68	8.61646
-39.3291	117.708	8.63599
-39.3272	124.691	8.65552
-39.32645	123.747	8.67505
-39.3247	120.422	8.69458
-39.3215	126.749	8.71411
-39.32127	126.923	8.73364
-39.3186	126.644	8.75317
-39.3167	127.21	8.77271
-39.3162	133.274	8.79224
-39.3143	128.079	8.81177
-39.3124	132.217	8.8313
-39.3104	135.981	8.85083
-39.3087	133.493	8.87036
-39.3071	129.606	8.88989
-39.3055	140.694	8.90942
-39.3046	134.89	8.92896
-39.30267	134.749	8.94849
-39.3011	142.457	8.96802
-39.3003	138.87	8.98755
-39.2971	135.317	9.00708
-39.2966	145.586	9.02661
-39.2947	143.215	9.04614
-39.2936	138.801	9.06567
-39.2912	145.829	9.08521
-39.2895	148.489	9.10474
-39.2879	141.9628	9.12427
-39.287	147.051	9.1438
-39.2843	150.939	9.16333
-39.2829	145.812	9.18286
-39.2823	150.674	9.20239
-39.2791	153.253	9.22192
-39.2786	151.175	9.24146
-39.277	150.659	9.26099
-39.276	158.409	9.28052
-39.2741	153.681	9.30005
-39.2717	154.4567	9.31958
-39.2695	158.3121	9.33911
-39.2688	160.298	9.35864
-39.267	156.384	9.37817
-39.2647	161.32	9.39771
-39.2645	163.609	9.41724
-39.2618	162.467	9.43677
-39.2605	161.103	9.4563
-39.2583	168.448	9.47583
-39.2562	162.593	9.49536
-39.2555	166.04	9.51489
-39.2537	172.386	9.53442
-39.2523	168.679	9.55396
-39.2504	163.106	9.57349
-39.2484	173.515	9.59302
-39.2473	170.947	9.61255
-39.2454	169.509	9.63208
-39.2433	175.223	9.65161
-39.24324	175.459	9.67114
-39.2414	170.727	9.69067
-39.2393	178.418	9.71021
-39.2372	178.257	9.72974
-39.2349	174.247	9.74927
-39.2351	179.556	9.7688
-39.2329	183.697	9.78833
-39.2304	177.597	9.80786
-39.2282	179.079	9.82739
-39.2287	186.045	9.84692
-39.22562	182.419	9.86646
-39.2246	184.431	9.88599
-39.22266	186.0043	9.90552
-39.221	186.055	9.92505
-39.2204	183.017	9.94458
-39.2191	190.455	9.96411
-39.2165	190.668	9.98364
-39.2144	188.482	10.0032
-39.2131	189.98	10.0227
-39.2122	196.284	10.0422
-39.2095	189.87	10.0618
-39.2082	194.895	10.0813
-39.2058	199.3082	10.10083
-39.2052	196.809	10.1204
-39.2039	193.233	10.1399
-39.2017	203.729	10.1594
-39.2003	195.49	10.179
-39.1987	197.379	10.1985
-39.19725	205.561	10.218
-39.1947	204.034	10.2375
-39.1926	197.821	10.25708
-39.192	207.374	10.2766
-39.19	205.992	10.2961
-39.1888	203.057	10.3157
-39.1876	210.161	10.3352
-39.1846	210.259	10.3547
-39.1837	205.21	10.3743
-39.1828	210.851	10.3938
-39.1801	213.719	10.41333
-39.1778	207.551	10.4329
-39.1776	213.699	10.4524
-39.1747	216.65	10.4719
-39.1741	215.551	10.4915
-39.173	212.159	10.511
-39.1703	219.703	10.5305
-39.1695	218.7511	10.55
-39.1663	218.543	10.56958
-39.1659	219.492	10.5891
-39.1639	222.784	10.6086
-39.1631	216.602	10.6282
-39.1615	224.05	10.6477
-39.1603	227.101	10.6672
-39.1577	222.27	10.6868
-39.15683	223.257	10.7063
-39.1549	232.9187	10.72583
-39.1534	224.185	10.7454
-39.1519	226.998	10.7649
-39.1495	234.354	10.7844
-39.1492	230.364	10.804
-39.1466	226.446	10.8235
-39.145	236.635	10.843
-39.1441	232.029	10.8625
-39.1426	230.83	10.88208
-39.1401	238.019	10.9016
-39.1396	237.274	10.9211
-39.1369	232.44	10.9407
-39.1357	239.973	10.9602
-39.1333	241.808	10.9797
-39.13113	236.387	10.9993
-39.1307	242.546	11.0188
-39.1272	241.992	11.03833
-39.1263	240.825	11.0579
-39.1245	243.045	11.0774
-39.1238	248.795	11.0969
-39.12096	243.257	11.1165
-39.1206	244.919	11.136
-39.1202	248.189	11.1555
-39.1173	250.842	11.175
-39.1146	244.352	11.19458
-39.1141	252.085	11.2141
-39.1109	253.466	11.2336
-39.1102	251.075	11.2532
-39.1089	250.907	11.2727
-39.1066	256.52	11.2922
-39.1062	251.134	11.3118
-39.104	256.022	11.3313
-39.1017	260.1748	11.35083
-39.1009	255.458	11.3704
-39.0996	255.391	11.3899
-39.09766	262.975	11.4094
-39.0957	260.422	11.429
-39.0942	258.13	11.4485
-39.0931	265.985	11.468
-39.0902	264.949	11.4875
-39.0891	259.771	11.50708
-39.0873	268.644	11.5266
-39.0856	266.401	11.5461
-39.0843	262.682	11.5657
-39.0828	271.209	11.5852
-39.0813	270.03	11.6047
-39.0796	265.421	11.6243
-39.0784	268.962	11.6438
-39.0757	275.982	11.66333
-39.0737	271.416	11.6829
-39.0739	273.074	11.7024
-39.0713	276.235	11.7219
-39.0688	276.44	11.7415
-39.0679	272.242	11.761
-39.0673	282.724	11.7805
-39.0648	279.478	11.8
-39.0642	279.5564	11.81958
-39.0626	280.444	11.8391
-39.0598	284.738	11.8586
-39.0578	277.919	11.8782
-39.0578	284.183	11.8977
-39.05481	288.009	11.9172
-39.053	284.34	11.9368
-39.0521	282.548	11.9563
-39.0498	290.514	11.97583
-39.0491	284.387	11.9954
-39.0463	288.885	12.0149
-39.0454	294.688	12.0344
-39.0432	287.935	12.054
-39.0422	287.002	12.0735
-39.0409	298.048	12.093
-39.0392	294.517	12.1125
-39.0371	289.479	12.13208
-39.0353	298.5	12.1516
-39.0345	294.747	12.1711
-39.033	293.719	12.1907
-39.031	299.294	12.2102
-39.0295	301.5	12.2297
-39.02734	296.3941	12.2493
-39.0258	300.957	12.2688
-39.0243	303.106	12.28833
-39.0225	299.354	12.3079
-39.0215	300.419	12.3274
-39.0188	307.557	12.3469
-39.0177	303.973	12.3665
-39.0162	305.8674	12.386
-39.0145	307.095	12.4055
-39.0117	309.684	12.425
-39.0124	303.3627	12.44458
-39.0094	311.845	12.4641
-39.0089	313.083	12.4836
-39.0054	309.252	12.5032
-39.0046	311.7749	12.5227
-39.0037	318.413	12.5422
-39.0018	308.441	12.5618
-39.0006	315.175	12.5813
-38.9979	319.02	12.60083
-38.9965	316.06	12.6204
-38.99535	312.4805	12.6399
-38.993	321.352	12.6594
-38.991	316.854	12.679
-38.9902	317.274	12.6985
-38.988	326.455	12.718
-38.9872	322.21	12.7375
-38.9851	318.005	12.75708
-38.9839	326.881	12.7766
-38.9817	326.188	12.7961
-38.98035	320.475	12.8157
-38.97842	329.182	12.8352
-38.9782	326.611	12.8547
-38.9751	326.3949	12.8743
-38.9747	328.088	12.8938
-38.9727	332.7616	12.91333
-38.9705	327.964	12.9329
-38.9685	331.1507	12.9524
-38.968	332.644	12.9719
-38.9657	332.979	12.9915
-38.9636	328.265	13.011
-38.9626	339.684	13.0305
-38.961	336.624	13.05
-38.9602	334.4986	13.06958
-38.9585	335.434	13.0891
-38.9567	342.385	13.1086
-38.9543	334.17	13.1282
-38.95245	341.99	13.1477
-38.9516	345.289	13.1672
-38.9492	338.445	13.1868
-38.9475	341.936	13.2063
-38.94709	347.972	13.22583
-38.94516	340.274	13.2454
-38.942	342.83	13.2649
-38.9411	349.874	13.2844
-38.9397	347.999	13.304
-38.9382	344.6813	13.3235
-38.9367	350.76	13.343
-38.9355	349.742	13.3625
-38.9341	346.098	13.38208
-38.9315	355.115	13.4016
-38.9302	352.401	13.4211
-38.9284	348.914	13.4407
-38.9265	352.961	13.4602
-38.9247	359.087	13.4797
-38.9232	352.757	13.4993
-38.9219	358.406	13.5188
-38.9198	357.6373	13.53833
-38.9192	357.744	13.5579
-38.9172	355.923	13.5774
-38.9157	361.969	13.5969
-38.9148	359.363	13.6165
-38.91164	359.809	13.636
-38.9099	364.524	13.6555
-38.9087	366.713	13.675
-38.907	356.994	13.69458
-38.9063	366.437	13.7141
-38.9038	368.0979	13.7336
-38.9025	364.37	13.7532
-38.9008	363.615	13.7727
-38.8997	371.307	13.7922
-38.8979	365.681	13.8118
-38.8962	369.283	13.8313
-38.8947	374.061	13.85083
-38.8928	369.288	13.8704
-38.8923	369.773	13.8899
-38.8899	376.764	13.9094
-38.8865	373.51	13.929
-38.8854	371.239	13.9485
-38.884	381.001	13.968
-38.8824	376.026	13.9875
-38.8814	374.703	14.00708
-38.8794	378.206	14.0266
-38.8777	380.744	14.0461
-38.8754	377.055	14.0657
-38.8746	383.104	14.0852
-38.8747	380.402	14.1047
-38.872	379.093	14.1243
-38.8697	381.438	14.1438
-38.8686	388.666	14.16333
-38.8666	382.747	14.1829
-38.865	385.778	14.2024
-38.86356	386.611	14.2219
-38.8608	387.981	14.2415
-38.85989	383.175	14.261
-38.8584	392.63	14.2805
-38.8578	389.55	14.3
-38.8546	389.636	14.31958
-38.8537	391.915	14.3391
-38.852	393.763	14.3586
-38.8503	388.4025	14.3782
-38.8481	394.232	14.3977
-38.8477	399.02	14.4172
-38.8453	391.346	14.4368
-38.8454	393.323	14.4563
-38.8423	399.812	14.47583
-38.8406	395.661	14.4954
-38.8394	396.1434	14.5149
-38.8376	402.817	14.5344
-38.8349	398.017	14.554
-38.8338	399.373	14.5735
-38.8316	404.638	14.593
-38.8318	403.617	14.6125
-38.8286	399.236	14.63208
-38.828	406.705	14.6516
-38.8256	404.176	14.6711
-38.8245	402.334	14.6907
-38.8231	404.139	14.7102
-38.8225	410.35	14.7297
-38.8206	404.057	14.7493
-38.8172	410.246	14.7688
-38.8155	408.826	14.78833
-38.8148	409.849	14.8079
-38.8132	408.237	14.8274
-38.8118	415.402	14.8469
-38.8098	411.51	14.8665
-38.808	410.651	14.886
-38.8061	413.764	14.9055
-38.8046	416.355	14.925
-38.803	411.467	14.94458
-38.8016	416.211	14.9641
-38.799	417.846	14.9836
-38.7986	413.0643	15.0032
-38.7974	416.434	15.0227
-38.7948	420.466	15.0422
-38.7933	413.738	15.0618
-38.7917	417.875	15.0813
-38.7907	425.276	15.10083
-38.7882	418.2663	15.1204
-38.7872	419.051	15.1399
-38.78508	425.786	15.1594
-38.7834	420.968	15.179
-38.7818	420.612	15.1985
-38.7797	428.259	15.218
-38.7786	422.85	15.2375
-38.7755	422.478	15.25708
-38.7742	428.069	15.2766
-38.7748	429.679	15.2961
-38.772	423.598	15.3157
-38.7704	430.093	15.3352
-38.7683	429.099	15.3547
-38.7671	427.906	15.3743
-38.766	426.932	15.3938
-38.76458	433.467	15.41333
-38.7634	430.455	15.4329
-38.7606	434.011	15.4524
-38.7582	433.629	15.4719
-38.7574	433.05	15.4915
-38.7556	429.173	15.511
-38.7537	438.664	15.5305
-38.7542	437.858	15.55
-38.7516	433.336	15.56958
-38.75	436.642	15.5891
-38.7464	440.178	15.6086
-38.7462	433.955	15.6282
-38.7441	439.2243	15.6477
-38.7426	442.212	15.6672
-38.7419	434.418	15.6868
-38.7387	438.839	15.7063
-38.7378	444.2179	15.72583
-38.7366	438.109	15.7454
-38.7346	437.196	15.7649
-38.7337	447.828	15.7844
-38.73251	440.625	15.804
-38.7303	440.375	15.8235
-38.7281	446.67	15.843
-38.7258	447.401	15.8625
-38.72543	442.834	15.88208
-38.723	450.5249	15.9016
-38.7203	445.2276	15.9211
-38.72094	444.014	15.9407
-38.7195	447.353	15.9602
-38.7174	451.947	15.9797
-38.7163	445.1207	15.9993
-38.7121	450.478	16.0188
-38.7122	452.636	16.03833
-38.71051	450.201	16.0579
-38.7094	447.904	16.0774
-38.70842	455.696	16.0969
-38.70612	452.818	16.1165
-38.7039	452.0675	16.136
-38.702	453.974	16.1555
-38.70116	454.683	16.175
-38.6994	450.983	16.19458
-38.69767	456.659	16.2141
-38.6949	459.666	16.2336
-38.694	450.639	16.2532
-38.693	456.546	16.2727
-38.6904	460.597	16.2922
-38.6883	455.514	16.3118
-38.6869	456.228	16.3313
-38.6861	463.1087	16.35083
-38.6846	455.199	16.3704
-38.683	458.38	16.3899
-38.681	462.287	16.4094
-38.6796	458.586	16.429
-38.67762	459.014	16.4485
-38.6764	465.9054	16.468
-38.6743	459.054	16.4875
-38.6721	460.154	16.50708
-38.6711	462.1084	16.5266
-38.6704	464.788	16.5461
-38.6677	460.5065	16.5657
-38.6663	466.3996	16.5852
-38.6639	463.125	16.6047
-38.6628	463.844	16.6243
-38.6613	464.061	16.6438
-38.6597	469.28	16.66333
-38.6575	463.373	16.6829
-38.6568	465.286	16.7024
-38.655	466.879	16.7219
-38.6527	468.35	16.7415
-38.6522	462.97	16.761
-38.649	469.738	16.7805
-38.6475	469.264	16.8
-38.6469	465.591	16.81958
-38.6449	469.516	16.8391
-38.64397	470.513	16.8586
-38.6421	465.632	16.8782
-38.6409	470.539	16.8977
-38.639	475.047	16.9172
-38.63694	466.295	16.9368
-38.6358	471.323	16.9563
-38.6333	474.336	16.97583
-38.63139	471.497	16.9954
-38.6303	468.081	17.0149
-38.6298	476.203	17.0344
-38.6271	468.219	17.054
-38.6252	472.037	17.0735
-38.6237	474.7529	17.093
-38.6229	473.533	17.1125
-38.6211	469.217	17.13208
-38.6195	476.79	17.1516
-38.6171	475.471	17.1711
-38.6157	472.382	17.1907
-38.6147	474.061	17.2102
-38.61132	477.841	17.2297
-38.6127	473.407	17.2493
-38.6109	475.151	17.2688
-38.6083	474.994	17.28833
-38.60664	474.603	17.3079
-38.6049	473.9548	17.3274
-38.603	479.846	17.3469
-38.6008	475.499	17.3665
-38.59927	472.327	17.386
-38.5986	478.3	17.4055
-38.5961	479.075	17.425
-38.5946	474.2486	17.44458
-38.5933	477.8338	17.4641
-38.5934	479.142	17.4836
-38.59008	473.896	17.5032
-38.589	478.5239	17.5227
-38.5869	480.584	17.5422
-38.5845	475.105	17.5618
-38.5833	478.015	17.5813
-38.5814	484.233	17.60083
-38.5803	475.178	17.6204
-38.5784	478.315	17.6399
-38.5763	481.4437	17.6594
-38.5747	478.614	17.679
-38.5747	476.144	17.6985
-38.5728	483.355	17.718
-38.5713	476.322	17.7375
-38.5681	478.09	17.75708
-38.5673	480.8475	17.7766
-38.5653	480.323	17.7961
-38.5634	476.381	17.8157
-38.563	482.229	17.8352
-38.5613	481.347	17.8547
-38.5583	477.95	17.8743
-38.55703	477.104	17.8938
-38.5558	481.7652	17.91333
-38.5541	478.722	17.9329
-38.5526	478.288	17.9524
-38.5506	479.082	17.9719
-38.5509	480.289	17.9915
-38.5488	476.263	18.011
-38.5454	483.07	18.0305
-38.54314	479.887	18.05
-38.5422	474.523	18.06958
-38.5418	481.056	18.0891
-38.5391	481.421	18.1086
-38.538	476.071	18.1282
-38.5361	478.207	18.1477
-38.5352	483.637	18.1672
-38.5324	474.721	18.1868
-38.5313	480.567	18.2063
-38.5296	482.122	18.22583
-38.5287	477.774	18.2454
-38.5262	478.342	18.2649
-38.5251	484.616	18.2844
-38.5225	475.468	18.304
-38.5223	477.601	18.3235
-38.5187	481.682	18.343
-38.5193	479.498	18.3625
-38.5154	476.408	18.38208
-38.51487	482.959	18.4016
-38.5142	478.1315	18.4211
-38.5106	478.452	18.4407
-38.5104	479.618	18.4602
-38.5089	480.109	18.4797
-38.5069	476.653	18.4993
-38.5049	479.757	18.5188
-38.5047	479.708	18.53833
-38.5019	478.793	18.5579
-38.5012	475.388	18.5774
-38.4994	482.2666	18.5969
-38.4971	478.498	18.6165
-38.4956	475.46	18.636
-38.49337	479.065	18.6555
-38.4922	478.318	18.675
-38.4899	474.6774	18.69458
-38.4892	478.796	18.7141
-38.4877	480.926	18.7336
-38.4855	472.958	18.7532
-38.4844	480.19	18.7727
-38.482	480.5145	18.7922
-38.4809	475.269	18.8118
-38.4795	474.917	18.8313
-38.4781	483.313	18.85083
-38.4753	473.424	18.8704
-38.47435	476.353	18.8899
-38.473	479.1004	18.9094
-38.4716	475.955	18.929
-38.4694	474.097	18.9485
-38.4682	481.619	18.968
-38.46669	474.417	18.9875
-38.4658	474.521	19.00708
-38.4637	477.612	19.0266
-38.4603	480.507	19.0461
-38.4599	473.427	19.0657
-38.4577	476.971	19.0852
-38.457	475.845	19.1047
-38.4556	474.658	19.1243
-38.452	474.601	19.1438
-38.4514	477.882	19.16333
-38.4504	474.326	19.1829
-38.4488	473.933	19.2024
-38.4471	477.166	19.2219
-38.44516	474.479	19.2415
-38.4436	470.657	19.261
-38.4416	477.681	19.2805
-38.4395	476.9234	19.3
-38.4393	470.98	19.31958
-38.4368	475.527	19.3391
-38.4352	474.728	19.3586
-38.43269	471.602	19.3782
-38.4316	475.353	19.3977
-38.4307	477.698	19.4172
-38.4297	468.088	19.4368
-38.427	474.031	19.4563
-38.4252	474.657	19.47583
-38.4246	470.478	19.4954
-38.4229	470.396	19.5149
-38.4213	478.454	19.5344
-38.4189	469.039	19.554
-38.4169	471.621	19.5735
-38.4167	473.662	19.593
-38.4139	472.0314	19.6125
-38.4126	468.771	19.63208
-38.4109	475.556	19.6516
-38.4086	471.5788	19.6711
-38.4083	469.441	19.6907
-38.406	470.291	19.7102
-38.4044	474.373	19.7297
-38.4031	469.409	19.7493
-38.4013	471.366	19.7688
-38.3994	471.351	19.78833
-38.3983	470.183	19.8079
-38.3963	468.7431	19.8274
-38.39444	474.192	19.8469
-38.3936	469.9512	19.8665
-38.3919	467.216	19.886
-38.3897	475.668	19.9055
-38.3882	470.176	19.925
-38.3866	466.315	19.94458
-38.3841	471.569	19.9641
-38.383	473.678	19.9836
-38.3816	465.225	20.0032
-38.3808	467.02	20.0129

Data Header:			0.254_solid_dimension_typeiv_090_r0			Time:	29.5952	s	4/14/2019 1:43:15 AM
Data Acquisition:	Timed
Station Name:	ft40.cfg
Test File Name:	monotonic_0.2540_typeiv_solid_090_dimension.tst
Displacement	Force	Running Time
mm	N	s
-38.3793	470.174	20.0227
-38.3792	475.643	20.0325
-38.37822	470.268	20.0422
-38.3766	471.103	20.052
-38.3761	467.341	20.0618
-38.3754	464.028	20.0715
-38.3758	469.855	20.0813
-38.3741	472.729	20.0911
-38.3744	474.88	20.10083
-38.3728	471.846	20.1106
-38.3716	463.713	20.1204
-38.3711	465.681	20.1301
-38.3696	469.7103	20.1399
-38.3691	471.072	20.1497
-38.3698	471.987	20.1594
-38.3681	469.274	20.1692
-38.3668	469.095	20.179
-38.3656	464.797	20.1887
-38.365	466.055	20.1985
-38.3651	469.265	20.2083
-38.3636	471.086	20.218
-38.3636	471.409	20.2278
-38.3616	465.292	20.2375
-38.3625	463.69	20.2473
-38.36039	466.269	20.25708
-38.3602	468.437	20.2668
-38.3595	467.975	20.2766
-38.3574	469.6	20.2864
-38.3569	468.439	20.2961
-38.3566	467.939	20.3059
-38.3558	464.848	20.3157
-38.3544	464.281	20.3254
-38.3539	470.366	20.3352
-38.3533	470.425	20.345
-38.35236	468.185	20.3547
-38.3522	468.171	20.3645
-38.3507	464.84	20.3743
-38.34996	466.6485	20.384
-38.3487	466.814	20.3938
-38.34882	467.125	20.4036
-38.3468	471.851	20.41333
-38.3471	468.549	20.4231
-38.3456	467.366	20.4329
-38.3446	463.68	20.4426
-38.3441	465.7543	20.4524
-38.34304	470.089	20.4622
-38.3424	468.226	20.4719
-38.3416	471.49	20.4817
-38.3408	465.65	20.4915
-38.3407	465.1167	20.5012
-38.3396	464.578	20.511
-38.3394	464.8201	20.5208
-38.3381	468.606	20.5305
-38.3376	472.302	20.5403
-38.3363	467.793	20.55
-38.3346	463.042	20.5598
-38.33387	462.301	20.56958
-38.3324	464.769	20.5793
-38.3329	470.44	20.5891
-38.3321	471.2832	20.5989
-38.3309	467.837	20.6086
-38.3316	465.754	20.6184
-38.3305	462.637	20.6282
-38.3303	462.909	20.6379
-38.3275	466.592	20.6477
-38.3285	471.887	20.6575
-38.327	471.534	20.6672
-38.3255	465.343	20.677
-38.3255	462.058	20.6868
-38.3238	462.605	20.6965
-38.3227	467.553	20.7063
-38.3227	470.858	20.7161
-38.3211	466.706	20.72583
-38.3205	467.387	20.7356
-38.3196	464.779	20.7454
-38.3194	461.587	20.7551
-38.3184	466.226	20.7649
-38.3178	466.972	20.7747
-38.317	471.567	20.7844
-38.3157	466.536	20.7942
-38.3143	462.14	20.804
-38.3148	460.948	20.8137
-38.31332	464.303	20.8235
-38.3119	467.439	20.8333
-38.3117	467.596	20.843
-38.3105	466.137	20.8528
-38.3102	466.998	20.8625
-38.3086	464.937	20.8723
-38.3096	462.457	20.88208
-38.308	463.699	20.8918
-38.3062	468.768	20.9016
-38.3061	469.738	20.9114
-38.3051	465.276	20.9211
-38.3049	463.078	20.9309
-38.3028	463.141	20.9407
-38.3028	464.734	20.9504
-38.3012	464.776	20.9602
-38.30101	466.477	20.97
-38.3004	466.958	20.9797
-38.2983	466.9234	20.9895
-38.2987	462.53	20.9993
-38.2978	459.246	21.009
-38.2965	465.185	21.0188
-38.2977	466.23	21.0286
-38.2957	466.96	21.03833
-38.2961	465.438	21.0481
-38.2928	462.005	21.0579
-38.2923	463.273	21.0676
-38.2919	462.0719	21.0774
-38.29113	462.7175	21.0872
-38.2901	467.154	21.0969
-38.2894	468.307	21.1067
-38.2885	465.871	21.1165
-38.2877	459.844	21.1262
-38.2866	460.978	21.136
-38.2859	465.765	21.1458
-38.286	465.164	21.1555
-38.2854	469.185	21.1653
-38.2835	464.729	21.175
-38.2827	461.111	21.1848
-38.2825	460.852	21.19458
-38.2816	461.185	21.2043
-38.2807	466.499	21.2141
-38.2799	470.462	21.2239
-38.2784	466.763	21.2336
-38.2788	462.9397	21.2434
-38.2768	458.825	21.2532
-38.2764	460.721	21.2629
-38.27562	467.395	21.2727
-38.2747	467.903	21.2825
-38.2743	466.214	21.2922
-38.2741	464.075	21.302
-38.2727	459.859	21.3118
-38.2724	459.716	21.3215
-38.271	462.227	21.3313
-38.2693	466.6149	21.3411
-38.2685	468.886	21.35083
-38.2687	462.663	21.3606
-38.2675	460.3801	21.3704
-38.26635	457.847	21.3801
-38.2673	464.75	21.3899
-38.2656	466.824	21.3997
-38.2641	466.645	21.4094
-38.2629	465.423	21.4192
-38.2622	463.136	21.429
-38.2621	460.32	21.4387
-38.2611	460.93	21.4485
-38.2599	461.142	21.4583
-38.2595	467.958	21.468
-38.2591	466.179	21.4778
-38.2568	459.684	21.4875
-38.2566	460.573	21.4973
-38.257	459.791	21.50708
-38.2551	464.388	21.5168
-38.25489	464.446	21.5266
-38.25423	463.796	21.5364
-38.25251	465.307	21.5461
-38.2521	462.8	21.5559
-38.2506	460.197	21.5657
-38.2504	460.616	21.5754
-38.2493	462.017	21.5852
-38.2486	467.135	21.595
-38.24786	463.445	21.6047
-38.2471	462.664	21.6145
-38.24585	461.041	21.6243
-38.2457	461.254	21.634
-38.245	461.732	21.6438
-38.2438	464.781	21.6536
-38.2434	464.399	21.66333
-38.2423	465.858	21.6731
-38.241	461.732	21.6829
-38.24028	456.497	21.6926
-38.2399	461.436	21.7024
-38.2391	462.135	21.7122
-38.2384	465.079	21.7219
-38.2387	464.908	21.7317
-38.2364	461.885	21.7415
-38.23513	459.418	21.7512
-38.2356	459.775	21.761
-38.23473	459.964	21.7708
-38.2334	463.665	21.7805
-38.2332	465.029	21.7903
-38.2322	463.942	21.8
-38.2299	458.236	21.8098
-38.231	457.032	21.81958
-38.229	460.5379	21.8293
-38.2288	464.818	21.8391
-38.2283	466.136	21.8489
-38.2268	463.885	21.8586
-38.22525	459.894	21.8684
-38.2261	458.293	21.8782
-38.2251	457.385	21.8879
-38.2231	462.305	21.8977
-38.2225	467.1	21.9075
-38.22213	466.635	21.9172
-38.2206	461.489	21.927
-38.2218	456.057	21.9368
-38.2198	457.128	21.9465
-38.2185	464.116	21.9563
-38.2178	464.8623	21.9661
-38.21727	465.847	21.97583
-38.2162	460.952	21.9856
-38.2154	459.471	21.9954
-38.2151	458.071	22.0051
-38.2138	459.425	22.0149
-38.2142	463.622	22.0247
-38.2117	465.994	22.0344
-38.2115	463.006	22.0442
-38.2109	458.234	22.054
-38.2099	456.519	22.0637
-38.2078	461.0072	22.0735
-38.2089	463.406	22.0833
-38.2069	462.16	22.093
-38.2068	464.432	22.1028
-38.2055	461.091	22.1125
-38.2053	459.162	22.1223
-38.2033	459.083	22.13208
-38.2037	458.176	22.1418
-38.2032	465.351	22.1516
-38.2012	466.202	22.1614
-38.2009	460.446	22.1711
-38.2009	460.077	22.1809
-38.1992	458.8447	22.1907
-38.1982	459.279	22.2004
-38.198	461.948	22.2102
-38.19812	461.377	22.22
-38.1961	464.621	22.2297
-38.1959	463.097	22.2395
-38.1945	459.272	22.2493
-38.1929	455.648	22.259
-38.1935	461.679	22.2688
-38.1937	464.329	22.2786
-38.1907	463.593	22.28833
-38.1892	462.717	22.2981
-38.1897	460.05	22.3079
-38.1896	460.075	22.3176
-38.1873	459.532	22.3274
-38.1886	461.214	22.3372
-38.18626	463.177	22.3469
-38.1853	465.974	22.3567
-38.1838	461.375	22.3665
-38.1849	456.82	22.3762
-38.1821	456.446	22.386
-38.1804	461.366	22.3958
-38.1811	466.121	22.4055
-38.1805	465.962	22.4153
-38.1798	461.442	22.425
-38.1793	460.038	22.4348
-38.1774	457.625	22.44458
-38.1772	458.919	22.4543
-38.1768	462.644	22.4641
-38.1755	466.244	22.4739
-38.1748	464.327	22.4836
-38.17437	457.538	22.4934
-38.1728	455.693	22.5032
-38.1719	457.918	22.5129
-38.1719	462.4975	22.5227
-38.1713	464.974	22.5325
-38.1704	463.5412	22.5422
-38.1699	462.1235	22.552
-38.16893	459.051	22.5618
-38.168	455.795	22.5715
-38.1665	460.776	22.5813
-38.1666	464.481	22.5911
-38.1654	466.1	22.60083
-38.16394	461.588	22.6106
-38.1625	456.802	22.6204
-38.1623	456.465	22.6301
-38.1632	459.521	22.6399
-38.1614	462.573	22.6497
-38.1603	463.639	22.6594
-38.16024	460.578	22.6692
-38.1584	459.0885	22.679
-38.1596	457.57	22.6887
-38.1581	457.758	22.6985
-38.15609	461.463	22.7083
-38.1554	464.643	22.718
-38.1558	463.157	22.7278
-38.154	459.664	22.7375
-38.153	457.128	22.7473
-38.15274	458.221	22.75708
-38.1522	461.226	22.7668
-38.1506	460.521	22.7766
-38.1488	463.729	22.7864
-38.1489	460.343	22.7961
-38.1478	459.862	22.8059
-38.1466	459.199	22.8157
-38.1476	456.257	22.8254
-38.1453	460.705	22.8352
-38.1446	464.01	22.845
-38.144	460.221	22.8547
-38.1428	461.652	22.8645
-38.1421	457.189	22.8743
-38.1428	460.513	22.884
-38.1408	457.8421	22.8938
-38.1404	458.814	22.9036
-38.13953	463.332	22.91333
-38.1388	461.97	22.9231
-38.1378	459.002	22.9329
-38.1371	456.444	22.9426
-38.1354	456.896	22.9524
-38.1339	462.78	22.9622
-38.135	463.875	22.9719
-38.1328	462.057	22.9817
-38.1321	459.211	22.9915
-38.1316	457.019	23.0012
-38.13007	457.966	23.011
-38.1302	459.328	23.0208
-38.1291	462.065	23.0305
-38.1283	464.441	23.0403
-38.1273	460.2236	23.05
-38.127	456.246	23.0598
-38.12653	453.558	23.06958
-38.1258	458.204	23.0793
-38.1237	464.347	23.0891
-38.12405	463.76	23.0989
-38.1229	460.062	23.1086
-38.1227	458.209	23.1184
-38.1203	455.204	23.1282
-38.1207	456.524	23.1379
-38.1198	462.134	23.1477
-38.1185	463.162	23.1575
-38.1177	465.595	23.1672
-38.11668	458.159	23.177
-38.11515	453.607	23.1868
-38.1161	456.636	23.1965
-38.11528	458.9	23.2063
-38.11367	462.989	23.2161
-38.1134	461.2	23.22583
-38.1123	459.237	23.2356
-38.1119	457.989	23.2454
-38.1112	453.605	23.2551
-38.11	457.343	23.2649
-38.1086	459.696	23.2747
-38.109	463.071	23.2844
-38.107	462.289	23.2942
-38.1059	454.592	23.304
-38.1059	453.984	23.3137
-38.1057	458.321	23.3235
-38.1043	460.578	23.3333
-38.1024	462.079	23.343
-38.1042	459.093	23.3528
-38.1014	460.544	23.3625
-38.1006	457.008	23.3723
-38.0999	455.424	23.38208
-38.0994	457.159	23.3918
-38.0984	461.962	23.4016
-38.0975	462.156	23.4114
-38.0958	461.149	23.4211
-38.096	457.1	23.4309
-38.0954	455.645	23.4407
-38.0939	458.3	23.4504
-38.0932	459.725	23.4602
-38.0932	459.5	23.47
-38.0919	460.642	23.4797
-38.0907	458.7142	23.4895
-38.091	458.271	23.4993
-38.08992	453.913	23.509
-38.0887	459.681	23.5188
-38.0874	463.28	23.5286
-38.0858	461.152	23.53833
-38.0854	460.776	23.5481
-38.0844	456.205	23.5579
-38.0849	456.791	23.5676
-38.0832	457.237	23.5774
-38.0833	457.6619	23.5872
-38.0825	461.782	23.5969
-38.0808	463.345	23.6067
-38.0808	458.598	23.6165
-38.0799	453.888	23.6262
-38.0784	454.171	23.636
-38.0786	459.754	23.6458
-38.0767	462.642	23.6555
-38.0759	463.9711	23.6653
-38.0751	458.274	23.675
-38.0749	455.631	23.6848
-38.0746	456.643	23.69458
-38.0726	456.255	23.7043
-38.07225	460.979	23.7141
-38.0723	463.992	23.7239
-38.0718	462.863	23.7336
-38.07	457.681	23.7434
-38.0707	453.433	23.7532
-38.0682	455.073	23.7629
-38.0672	462.213	23.7727
-38.0662	463.3688	23.7825
-38.0657	461.383	23.7922
-38.0649	458.338	23.802
-38.0645	455.48	23.8118
-38.0623	455.123	23.8215
-38.0619	460.112	23.8313
-38.0613	461.144	23.8411
-38.0618	463.908	23.85083
-38.0614	458.261	23.8606
-38.0581	454.657	23.8704
-38.0589	454.784	23.8801
-38.0587	457.242	23.8899
-38.057	462.1232	23.8997
-38.0565	459.986	23.9094
-38.05526	459.311	23.9192
-38.055	456.882	23.929
-38.0529	456.185	23.9387
-38.052	456.718	23.9485
-38.0516	458.03	23.9583
-38.0511	460.644	23.968
-38.05	462.861	23.9778
-38.0501	456.2442	23.9875
-38.04932	455.124	23.9973
-38.0483	455.68	24.00708
-38.0479	458.241	24.0168
-38.0449	459.794	24.0266
-38.0454	458.633	24.0364
-38.044	459.66	24.0461
-38.04409	459.736	24.0559
-38.0429	454.259	24.0657
-38.0418	455.56	24.0754
-38.04092	458.158	24.0852
-38.0409	461.15	24.095
-38.0399	461.464	24.1047
-38.0403	457.316	24.1145
-38.0378	455.681	24.1243
-38.0373	456.623	24.134
-38.0362	456.62	24.1438
-38.03561	459.243	24.1536
-38.0351	461.3905	24.16333
-38.03413	459.633	24.1731
-38.03344	456.882	24.1829
-38.0335	450.84	24.1926
-38.0322	453.432	24.2024
-38.0309	459.772	24.2122
-38.0295	461.196	24.2219
-38.0293	461.512	24.2317
-38.0285	455.655	24.2415
-38.0278	456.683	24.2512
-38.0272	456.419	24.261
-38.0266	456.191	24.2708
-38.0248	462.47	24.2805
-38.0239	460.9866	24.2903
-38.023	460.681	24.3
-38.0227	455.188	24.3098
-38.0211	451.089	24.31958
-38.02142	456.624	24.3293
-38.0195	461.948	24.3391
-38.0186	463.266	24.3489
-38.0188	458.76	24.3586
-38.0184	456.123	24.3684
-38.0182	456.9003	24.3782
-38.0165	453.77	24.3879
-38.0154	459.138	24.3977
-38.0139	462.669	24.4075
-38.01503	462.244	24.4172
-38.0133	457.265	24.427
-38.0115	451.774	24.4368
-38.0109	453.871	24.4465
-38.009	459.196	24.4563
-38.01038	461.553	24.4661
-38.009	461.025	24.47583
-38.0085	457.1348	24.4856
-38.008	454.553	24.4954
-38.006	454.586	24.5051
-38.00602	458.082	24.5149
-38.0039	458.551	24.5247
-38.0046	463.032	24.5344
-38.0029	459.965	24.5442
-38.0028	455.397	24.554
-38.00087	454.424	24.5637
-38.0013	454.718	24.5735
-38	459.405	24.5833
-37.9992	460.487	24.593
-37.9981	458.766	24.6028
-37.9976	458.037	24.6125
-37.9969	455.297	24.6223
-37.9962	455.588	24.63208
-37.9953	453.958	24.6418
-37.9939	459.635	24.6516
-37.9943	462.799	24.6614
-37.99194	457.0188	24.6711
-37.99226	455.446	24.6809
-37.9899	453.146	24.6907
-37.9895	455.319	24.7004
-37.9899	459.742	24.7102
-37.9876	458.539	24.72
-37.9881	458.41	24.7297
-37.98661	459.67	24.7395
-37.9867	456.85	24.7493
-37.985	454.601	24.759
-37.98526	455.296	24.7688
-37.9818	460.386	24.7786
-37.9821	461.438	24.78833
-37.9818	458.676	24.7981
-37.9806	454.476	24.8079
-37.9799	454.354	24.8176
-37.9793	456.318	24.8274
-37.9782	457.1644	24.8372
-37.97802	459.435	24.8469
-37.9769	460.249	24.8567
-37.9769	457.3699	24.8665
-37.9748	452.313	24.8762
-37.9749	452.978	24.886
-37.9751	456.3204	24.8958
-37.9731	462.45	24.9055
-37.9727	460.167	24.9153
-37.9712	454.9498	24.925
-37.9704	453.489	24.9348
-37.9688	452.951	24.94458
-37.9684	454.041	24.9543
-37.968	460.209	24.9641
-37.9671	459.293	24.9739
-37.9669	460.902	24.9836
-37.9663	453.723	24.9934
-37.9651	449.098	25.0032
-37.9639	454.811	25.0129
-37.9634	458.789	25.0227
-37.9624	462.717	25.0325
-37.9614	459.071	25.0422
-37.9606	454.207	25.052
-37.9592	455.158	25.0618
-37.9592	452.824	25.0715
-37.9583	457.288	25.0813
-37.9572	459.174	25.0911
-37.957	460.145	25.10083
-37.9555	457.552	25.1106
-37.9541	453.625	25.1204
-37.9546	454.029	25.1301
-37.9527	455.313	25.1399
-37.9538	458.312	25.1497
-37.9524	460.455	25.1594
-37.951	456.459	25.1692
-37.9514	455.896	25.179
-37.94936	455.771	25.1887
-37.9483	453.807	25.1985
-37.9475	456.143	25.2083
-37.9464	459.792	25.218
-37.9467	457.125	25.2278
-37.9454	455.823	25.2375
-37.9453	453.583	25.2473
-37.9438	452.009	25.25708
-37.9431	456.816	25.2668
-37.9415	458.362	25.2766
-37.941	457.605	25.2864
-37.9406	457.0903	25.2961
-37.9407	454.147	25.3059
-37.9388	455.624	25.3157
-37.9385	453.0509	25.3254
-37.9364	455.234	25.3352
-37.9368	458.899	25.345
-37.9357	458.114	25.3547
-37.9339	457.092	25.3645
-37.9352	452.803	25.3743
-37.9327	452.362	25.384
-37.9327	456.091	25.3938
-37.9306	455.126	25.4036
-37.9314	459.679	25.41333
-37.9299	458.479	25.4231
-37.9288	455.608	25.4329
-37.9272	451.667	25.4426
-37.928	453.149	25.4524
-37.9271	456.681	25.4622
-37.92606	462.603	25.4719
-37.9243	459.128	25.4817
-37.9251	454.156	25.4915
-37.9232	453.317	25.5012
-37.9227	454.234	25.511
-37.921	456.652	25.5208
-37.922	458.783	25.5305
-37.9202	461.074	25.5403
-37.92	457.492	25.55
-37.9182	453.219	25.5598
-37.917	452.769	25.56958
-37.9175	455.638	25.5793
-37.9153	460.484	25.5891
-37.9154	462.282	25.5989
-37.9153	456.502	25.6086
-37.914	454.302	25.6184
-37.9135	452.255	25.6282
-37.9114	453.792	25.6379
-37.9119	458.394	25.6477
-37.9112	457.629	25.6575
-37.9105	460.838	25.6672
-37.9076	456.88	25.677
-37.9079	449.758	25.6868
-37.9074	452.136	25.6965
-37.9066	457.575	25.7063
-37.9059	462.641	25.7161
-37.9046	459.088	25.72583
-37.90379	454.419	25.7356
-37.9026	453.8923	25.7454
-37.9033	452.855	25.7551
-37.9015	454.523	25.7649
-37.9006	456.814	25.7747
-37.8998	459.244	25.7844
-37.8983	459.619	25.7942
-37.8987	453.068	25.804
-37.8972	453.5199	25.8137
-37.8967	455.61	25.8235
-37.8948	456.787	25.8333
-37.8948	458.193	25.843
-37.8939	456.368	25.8528
-37.8925	454.905	25.8625
-37.892	455.669	25.8723
-37.8916	453.071	25.88208
-37.891	452.239	25.8918
-37.8899	457.535	25.9016
-37.8894	459.87	25.9114
-37.8893	457.718	25.9211
-37.8875	454.6571	25.9309
-37.8861	451.735	25.9407
-37.8855	454.531	25.9504
-37.8851	455.68	25.9602
-37.8857	456.771	25.97
-37.8843	457.959	25.9797
-37.8822	456.956	25.9895
-37.8806	455.293	25.9993
-37.8819	450.127	26.009
-37.8795	452.0361	26.0188
-37.87999	458.902	26.0286
-37.8782	460.621	26.03833
-37.8769	458.458	26.0481
-37.8767	451.586	26.0579
-37.87656	452.115	26.0676
-37.876	454.539	26.0774
-37.8753	455.118	26.0872
-37.8732	460.191	26.0969
-37.8727	457.476	26.1067
-37.8721	456.103	26.1165
-37.8717	451.2533	26.1262
-37.8711	451.358	26.136
-37.8701	455.746	26.1458
-37.8687	461.454	26.1555
-37.8673	459.171	26.1653
-37.8674	456.453	26.175
-37.8665	452.032	26.1848
-37.8671	452.875	26.19458
-37.8644	456.253	26.2043
-37.8646	457.965	26.2141
-37.8632	459.934	26.2239
-37.8614	458.594	26.2336
-37.8608	453.407	26.2434
-37.85994	449.465	26.2532
-37.8596	452.023	26.2629
-37.8592	459.87	26.2727
-37.8593	459.757	26.2825
-37.8578	457.508	26.2922
-37.85659	452.434	26.302
-37.8568	453.237	26.3118
-37.8548	451.653	26.3215
-37.8539	456.541	26.3313
-37.8538	455.63	26.3411
-37.8517	460.46	26.35083
-37.8519	455.64	26.3606
-37.8514	452.004	26.3704
-37.8497	452.319	26.3801
-37.8491	454.0108	26.3899
-37.8486	459.232	26.3997
-37.8486	458.41	26.4094
-37.8455	455.161	26.4192
-37.8467	454.936	26.429
-37.844	451.983	26.4387
-37.8444	454.031	26.4485
-37.8429	453.991	26.4583
-37.8427	458.907	26.468
-37.8412	459.657	26.4778
-37.8418	454.98	26.4875
-37.8393	452.463	26.4973
-37.8393	451.644	26.50708
-37.8385	454.203	26.5168
-37.8376	458.68	26.5266
-37.8372	455.911	26.5364
-37.8364	455.228	26.5461
-37.836	454.815	26.5559
-37.8345	453.174	26.5657
-37.8328	452.7515	26.5754
-37.8329	455.091	26.5852
-37.83189	457.337	26.595
-37.8313	460.525	26.6047
-37.8308	455.31	26.6145
-37.8301	451.198	26.6243
-37.8285	452.3259	26.634
-37.8283	454.192	26.6438
-37.8268	456.86	26.6536
-37.82687	458.049	26.66333
-37.826	455.947	26.6731
-37.8254	454.776	26.6829
-37.8242	450.71	26.6926
-37.82267	451.616	26.7024
-37.8227	457.067	26.7122
-37.823	459.948	26.7219
-37.8204	460.572	26.7317
-37.8201	450.681	26.7415
-37.8198	450.82	26.7512
-37.8174	452.99	26.761
-37.8167	452.868	26.7708
-37.8167	459.463	26.7805
-37.8154	458.761	26.7903
-37.8156	456.289	26.8
-37.8148	453.172	26.8098
-37.81377	448.199	26.81958
-37.8125	452.954	26.8293
-37.8116	459.338	26.8391
-37.81081	460.045	26.8489
-37.8096	457.078	26.8586
-37.8095	450.377	26.8684
-37.8087	451.64	26.8782
-37.8075	453.454	26.8879
-37.807	455.65	26.8977
-37.80537	458.683	26.9075
-37.8056	458.791	26.9172
-37.8045	454.815	26.927
-37.8039	450.699	26.9368
-37.8026	449.9747	26.9465
-37.8015	456.325	26.9563
-37.8008	459.059	26.9661
-37.8005	455.85	26.97583
-37.7995	456.001	26.9856
-37.79847	451.272	26.9954
-37.7987	454.132	27.0051
-37.7968	454.364	27.0149
-37.7972	453.79	27.0247
-37.79599	458.9874	27.0344
-37.7963	456.978	27.0442
-37.7945	452.339	27.054
-37.79303	451.661	27.0637
-37.793	450.8475	27.0735
-37.7914	457.61	27.0833
-37.79	456.983	27.093
-37.7903	455.273	27.1028
-37.7897	454.889	27.1125
-37.7892	453.429	27.1223
-37.7878	452.2627	27.13208
-37.7879	451.502	27.1418
-37.7858	455.393	27.1516
-37.7858	459.918	27.1614
-37.7845	456.6	27.1711
-37.7839	453.492	27.1809
-37.7829	450.936	27.1907
-37.7821	453.841	27.2004
-37.7813	455.186	27.2102
-37.7798	456.1062	27.22
-37.7796	456.707	27.2297
-37.7784	456.625	27.2395
-37.779	452.414	27.2493
-37.7766	451.253	27.259
-37.7767	453.316	27.2688
-37.77618	456.313	27.2786
-37.774	460.274	27.28833
-37.7731	455.967	27.2981
-37.773	450.429	27.3079
-37.7719	450.909	27.3176
-37.7711	452.749	27.3274
-37.7714	453.904	27.3372
-37.7692	458.118	27.3469
-37.7689	456.437	27.3567
-37.7668	456.131	27.3665
-37.7661	450.271	27.3762
-37.7664	450.664	27.386
-37.766	453.56	27.3958
-37.7643	458.778	27.4055
-37.7631	460.716	27.4153
-37.7639	452.268	27.425
-37.7623	450.666	27.4348
-37.7617	450.4296	27.44458
-37.7606	452.108	27.4543
-37.76017	457.402	27.4641
-37.7593	455.7	27.4739
-37.7571	456.699	27.4836
-37.7567	453.877	27.4934
-37.7574	447.851	27.5032
-37.7561	452.1337	27.5129
-37.754	456.62	27.5227
-37.7537	459.925	27.5325
-37.7539	455.691	27.5422
-37.7531	451.0076	27.552
-37.751	451.52	27.5618
-37.7503	452.5791	27.5715
-37.7509	456.18	27.5813
-37.7491	455.879	27.5911
-37.7494	457.676	27.60083
-37.748	454.859	27.6106
-37.7465	451.961	27.6204
-37.7468	450.387	27.6301
-37.74477	453.409	27.6399
-37.7446	456.4653	27.6497
-37.7436	455.327	27.6594
-37.7429	453.611	27.6692
-37.7414	451.341	27.679
-37.7409	453.663	27.6887
-37.7401	452.435	27.6985
-37.7396	451.572	27.7083
-37.7388	457.233	27.718
-37.7377	455.886	27.7278
-37.7369	453.8782	27.7375
-37.7349	452.472	27.7473
-37.736	448.83	27.75708
-37.7347	455.118	27.7668
-37.7333	457.777	27.7766
-37.7328	454.528	27.7864
-37.7323	454.596	27.7961
-37.7319	452.726	27.8059
-37.731	452.842	27.8157
-37.7299	451.3157	27.8254
-37.73035	452.103	27.8352
-37.728	457.138	27.845
-37.726	456.558	27.8547
-37.7268	455.08	27.8645
-37.7256	449.064	27.8743
-37.72504	449.6503	27.884
-37.7239	452.674	27.8938
-37.7235	454.628	27.9036
-37.7225	456.307	27.91333
-37.7218	456.101	27.9231
-37.7205	452.489	27.9329
-37.7198	449.989	27.9426
-37.7194	447.9549	27.9524
-37.718	453.796	27.9622
-37.7178	459.377	27.9719
-37.7177	456.556	27.9817
-37.7154	451.163	27.9915
-37.7154	449.187	28.0012
-37.7148	449.6037	28.011
-37.714	452.721	28.0208
-37.7119	457.579	28.0305
-37.7107	456.259	28.0403
-37.7102	454.879	28.05
-37.7103	450.442	28.0598
-37.7096	447.411	28.06958
-37.7089	449.578	28.0793
-37.7068	456.319	28.0891
-37.7072	459.44	28.0989
-37.7054	453.662	28.1086
-37.705	450.482	28.1184
-37.7052	448.399	28.1282
-37.70472	451.575	28.1379
-37.7033	455.058	28.1477
-37.7021	454.05	28.1575
-37.7012	456.456	28.1672
-37.7012	451.997	28.177
-37.6986	447.352	28.1868
-37.699	449.9241	28.1965
-37.69725	453.32	28.2063
-37.69804	456.938	28.2161
-37.6959	455.843	28.22583
-37.6941	450.11	28.2356
-37.6942	449.422	28.2454
-37.6936	451.238	28.2551
-37.6942	451.232	28.2649
-37.69268	453.741	28.2747
-37.691	456.172	28.2844
-37.6909	455.305	28.2942
-37.6903	451.1033	28.304
-37.6892	449.941	28.3137
-37.68716	449.436	28.3235
-37.6881	455.478	28.3333
-37.687	455.313	28.343
-37.685	453.377	28.3528
-37.6851	451.903	28.3625
-37.6849	451.497	28.3723
-37.6839	450.283	28.38208
-37.68351	448.7074	28.3918
-37.6821	454.2312	28.4016
-37.681	454.669	28.4114
-37.6795	454.738	28.4211
-37.6793	450.854	28.4309
-37.6784	447.321	28.4407
-37.677	449.326	28.4504
-37.6759	451.181	28.4602
-37.6761	452.477	28.47
-37.675	454.3685	28.4797
-37.6749	451.843	28.4895
-37.6728	450.135	28.4993
-37.673	447.678	28.509
-37.6721	447.438	28.5188
-37.6702	454.86	28.5286
-37.6706	455.4903	28.53833
-37.6695	453.914	28.5481
-37.6683	447.745	28.5579
-37.6669	447.673	28.5676
-37.6672	451.725	28.5774
-37.667	452.293	28.5872
-37.6656	455.14	28.5969
-37.6654	454.235	28.6067
-37.6645	451.59	28.6165
-37.6649	447.623	28.6262
-37.6619	443.367	28.636
-37.66	450.535	28.6458
-37.6608	456.457	28.6555
-37.6603	455.697	28.6653
-37.658	450.633	28.675
-37.6585	446.903	28.6848
-37.6563	447.856	28.69458
-37.6562	450.419	28.7043
-37.6558	453.215	28.7141
-37.6567	452.7778	28.7239
-37.6541	454.866	28.7336
-37.6529	449.548	28.7434
-37.6511	446.376	28.7532
-37.6518	448.247	28.7629
-37.6516	451.8519	28.7727
-37.6497	455.627	28.7825
-37.6489	451.4538	28.7922
-37.6475	447.299	28.802
-37.647	445.484	28.8118
-37.6466	448.011	28.8215
-37.6458	451.897	28.8313
-37.6448	450.827	28.8411
-37.6442	452.329	28.85083
-37.6437	450.712	28.8606
-37.6421	446.576	28.8704
-37.6413	446.829	28.8801
-37.6401	447.02	28.8899
-37.6399	451.408	28.8997
-37.6399	451.643	28.9094
-37.6379	447.192	28.9192
-37.6378	446.793	28.929
-37.6351	444.804	28.9387
-37.63623	446.3313	28.9485
-37.6345	446.473	28.9583
-37.6358	447.644	28.968
-37.634	450.49	28.9778
-37.6326	445.75	28.9875
-37.6322	440.463	28.9973
-37.631	438.351	29.00708
-37.6304	440.777	29.0168
-37.6301	440.849	29.0266
-37.6281	405.382	29.0364
-37.6241	-25.2796	29.0461
-37.6232	-27.5563	29.0559
-37.6227	-53.35136	29.0657
-37.6238	-48.5362	29.0754
-37.6231	-39.9722	29.0852
-37.6224	-35.2034	29.095
-37.6214	-39.0475	29.1047
-37.6212	-40.4023	29.1145
-37.6205	-47.7775	29.1243
-37.621	-42.8571	29.134
-37.6199	-42.6117	29.1438
-37.6183	-41.8956	29.1536
-37.6173	-36.5121	29.16333
-37.6174	-41.2275	29.1731
-37.6166	-41.49794	29.1829
-37.61573	-46.41338	29.1926
-37.6133	-47.1372	29.2024
-37.6135	-40.3797	29.2122
-37.6119	-38.1791	29.2219
-37.6113	-38.7613	29.2317
-37.61058	-45.2934	29.2415
-37.6102	-47.3136	29.2512
-37.6097	-44.06757	29.261
-37.6085	-41.73484	29.2708
-37.6065	-37.7219	29.2805
-37.6073	-38.3498	29.2903
-37.6068	-41.2354	29.3
-37.6065	-43.5058	29.3098
-37.6051	-47.764	29.31958
-37.603	-43.946	29.3293
-37.6033	-37.461	29.3391
-37.60191	-37.8271	29.3489
-37.6015	-40.3159	29.3586
-37.601	-45.3585	29.3684
-37.6006	-45.702	29.3782
-37.5986	-40.9705	29.3879
-37.5983	-41.1492	29.3977
-37.5966	-39.125	29.4075
-37.5961	-38.1719	29.4172
-37.5958	-42.7716	29.427
-37.5956	-44.9052	29.4368
-37.59462	-44.9427	29.4465
-37.5932	-42.979	29.4563
-37.5926	-36.705	29.4661
-37.5909	-40.9691	29.47583
-37.59193	-42.3426	29.4856
-37.5905	-46.0024	29.4954
-37.5891	-44.7314	29.5051
-37.5894	-41.5427	29.5149
-37.5888	-41.4197	29.5247
-37.587	-38.4388	29.5344
-37.58746	-38.3973	29.5442
-37.5857	-43.6494	29.554
-37.585	-43.0385	29.5637
-37.5829	-44.8493	29.5735
-37.5827	-40.3533	29.5833