File: data/processed_data_files/tensile/0.254_solid_dimension_typei_090_r(1).dat
MTS793|BTW|ENU|1|2|.|/|:|1|0|0|A

Data Header:			0.254_solid_dimension_typei_090_r0			Time:	20.0374	s	4/15/2019 2:12:03 PM
Data Acquisition:	Timed
Station Name:	ft40.cfg
Test File Name:	monotonic_0.2540_typei_solid_090_dimension.tst
Displacement	Force	Running Time
mm	N	s
9.97034	-108.047	0.041748
9.96991	-93.3606	0.0612793
9.97045	-118.338	0.0808105
9.97096	-110.586	0.1003418
9.971714	-98.46241	0.119873
9.97288	-110.642	0.1394043
9.97549	-110.3943	0.158936
9.977397	-92.6452	0.1784668
9.97793	-104.164	0.197998
9.98112	-108.74	0.2175293
9.98144	-95.4244	0.237061
9.98345	-95.3774	0.2565918
9.98505	-110.408	0.276123
9.986599	-90.816	0.2956543
9.98865	-88.5875	0.315186
9.99	-102.39	0.3347168
9.99173	-97.6865	0.354248
9.99403	-81.85334	0.3737793
9.99392	-100.399	0.393311
9.996438	-92.6709	0.4128418
9.9985	-78.3655	0.432373
10.0004	-92.8703	0.4519043
10.0021	-96.4638	0.471436
10.0022	-74.75061	0.4909668
10.0053	-86.2254	0.510498
10.00559	-95.2701	0.5300293
10.0076	-73.963	0.549561
10.0094	-76.8133	0.5690918
10.0108	-91.6739	0.588623
10.0123	-75.6509	0.6081543
10.0139	-69.9502	0.627686
10.0155	-87.4817	0.6472168
10.0179	-73.915	0.666748
10.0189	-68.2233	0.6862793
10.0214	-83.2437	0.705811
10.0214	-78.0801	0.7253418
10.0246	-60.1032	0.744873
10.0246	-75.4629	0.7644043
10.0259	-76.4511	0.783936
10.0284	-61.145	0.8034668
10.03	-65.5019	0.822998
10.0325	-76.0971	0.8425293
10.0329	-55.0906	0.862061
10.0353	-59.7631	0.8815918
10.0372	-70.3705	0.901123
10.0381	-60.1735	0.9206543
10.0402	-51.2945	0.940186
10.04235	-70.3578	0.9597168
10.0432	-56.4729	0.979248
10.0452	-46.8725	0.9987793
10.04613	-61.9233	1.01831
10.0473	-62.4063	1.03784
10.0503	-40.7757	1.057373
10.0527	-56.0178	1.0769
10.0542	-57.5159	1.09644
10.0548	-39.194	1.11597
10.057	-49.8519	1.135498
10.0587	-60.3549	1.15503
10.0592	-38.4252	1.17456
10.0618	-40.1769	1.19409
10.0634	-57.0332	1.213623
10.0647	-38.4108	1.23315
10.0663	-35.427	1.25269
10.0675	-51.8622	1.27222
10.06943	-42.4613	1.291748
10.071	-28.3185	1.31128
10.0735	-45.8028	1.33081
10.0734	-39.397	1.35034
10.0758	-26.2016	1.369873
10.0772	-37.8398	1.3894
10.0786	-42.7101	1.40894
10.0812	-21.3792	1.42847
10.0816	-29.42095	1.447998
10.0839	-40.89608	1.46753
10.0861	-25.9809	1.48706
10.0866	-20.7935	1.50659
10.0884	-37.932	1.526123
10.0899	-21.3184	1.54565
10.09158	-14.8121	1.56519
10.0936	-31.573	1.58472
10.0959	-26.01548	1.604248
10.0969	-8.357626	1.62378
10.0981	-27.5614	1.64331
10.0991	-23.38834	1.66284
10.1023	-4.74087	1.682373
10.1034	-17.9012	1.7019
10.1056	-26.9829	1.72144
10.1073	-2.34975	1.74097
10.108	-10.8762	1.760498
10.1102	-20.9376	1.78003
10.1117	-2.976491	1.79956
10.1125	-4.5096	1.81909
10.1145	-21.688	1.838623
10.1158	-3.26672	1.85815
10.1174	4.52177	1.87769
10.1194	-14.5701	1.89722
10.1211	-3.77151	1.916748
10.1235	5.57777	1.93628
10.1239	-8.08387	1.95581
10.1255	-4.82991	1.97534
10.1276	13.0074	1.994873
10.1298	-0.0574203	2.0144
10.1313	-3.73008	2.03394
10.1326	11.1546	2.05347
10.1345	7.51923	2.072998
10.1356	-5.77282	2.09253
10.1374	18.1075	2.11206
10.1399	17.2304	2.13159
10.1405	0.32282	2.151123
10.1433	11.7208	2.17065
10.1437	23.9263	2.19019
10.146	6.02671	2.20972
10.1475	14.8364	2.229248
10.1494	27.0912	2.24878
10.1501	12.75022	2.26831
10.1522	11.9399	2.28784
10.1542	33.5862	2.307373
10.1562	19.3098	2.3269
10.1567	14.675	2.34644
10.1584	35.0116	2.36597
10.1598	27.3144	2.385498
10.16193	12.9149	2.40503
10.16346	35.4683	2.42456
10.1657	35.1106	2.44409
10.16672	19.791	2.463623
10.1687	35.6517	2.48315
10.1701	39.1429	2.50269
10.1719	23.1387	2.52222
10.1733	32.2273	2.541748
10.1745	47.9634	2.56128
10.177	29.3125	2.58081
10.1788	32.7416	2.60034
10.1801	47.6654	2.619873
10.182	37.9695	2.6394
10.1826	30.8194	2.65894
10.1849	52.9603	2.67847
10.1862	45.729	2.697998
10.1882	34.1357	2.71753
10.1886	49.7878	2.73706
10.19164	55.344	2.75659
10.1933	36.1773	2.776123
10.1945	54.1682	2.79565
10.1963	61.5635	2.81519
10.1976	43.3058	2.83472
10.1996	46.54583	2.854248
10.2014	67.1135	2.87378
10.2023	49.6855	2.89331
10.2052	52.3482	2.91284
10.2053	69.4978	2.932373
10.207	56.4192	2.9519
10.2089	49.0277	2.97144
10.2104	74.1021	2.99097
10.2121	65.0181	3.010498
10.2147	51.8954	3.03003
10.2153	72.8235	3.04956
10.2168	71.7911	3.06909
10.2191	53.8117	3.088623
10.22144	71.4543	3.10815
10.2223	80.0162	3.12769
10.223	62.2461	3.14722
10.2255	73.324	3.166748
10.2265	80.2207	3.18628
10.2294	66.9927	3.20581
10.2298	70.4047	3.22534
10.2324	90.65358	3.244873
10.2332	75.8779	3.2644
10.2358	71.4498	3.28394
10.2353	88.1844	3.30347
10.239	85.4417	3.322998
10.2397	71.3061	3.34253
10.2425	91.1217	3.36206
10.2435	90.8261	3.38159
10.2458	77.5696	3.401123
10.2457	88.0306	3.42065
10.248	99.8677	3.44019
10.2501	79.0736	3.45972
10.2518	89.922	3.479248
10.253	105.127	3.49878
10.2548	86.1701	3.51831
10.2558	85.2446	3.53784
10.2578	109.976	3.557373
10.2593	94.094	3.5769
10.2614	90.4191	3.59644
10.2627	108.529	3.61597
10.2646	100.407	3.635498
10.2658	88.532	3.65503
10.2679	112.343	3.67456
10.269	111.1335	3.69409
10.2711	94.14299	3.713623
10.2736	111.822	3.73315
10.2748	116.108	3.75269
10.2766	100.101	3.77222
10.2781	108.437	3.791748
10.2782	123.556	3.81128
10.2811	107.728	3.83081
10.2825	110.367	3.85034
10.2841	125.038	3.869873
10.2869	115.481	3.8894
10.2878	106.8369	3.90894
10.2904	131.681	3.92847
10.29029	123.247	3.947998
10.2932	109.858	3.96753
10.29342	125.261	3.98706
10.2965	131.8432	4.00659
10.2975	113.916	4.026123
10.2989	130.294	4.04565
10.3006	137.514	4.06519
10.3022	118.432	4.08472
10.3051	125.66	4.104248
10.3059	142.308	4.12378
10.307	123.597	4.14331
10.308	128.149	4.16284
10.31	148.277	4.182373
10.3116	133.335	4.2019
10.3141	124.153	4.22144
10.3149	148.909	4.24097
10.3171	142.7482	4.260498
10.3179	129.363	4.28003
10.3202	149.936	4.29956
10.3213	148.001	4.31909
10.3242	130.375	4.338623
10.3255	148.213	4.35815
10.3278	158.21	4.37769
10.3281	138.259	4.39722
10.3299	148.513	4.416748
10.3316	159.439	4.43628
10.3328	145.987	4.45581
10.3357	146.242	4.47534
10.3363	165.519	4.494873
10.3384	153.22	4.5144
10.3401	148.427	4.53394
10.3414	163.766	4.55347
10.3435	162.101	4.572998
10.34463	145.408	4.59253
10.34727	169.791	4.61206
10.3485	168.968	4.63159
10.3502	152.068	4.651123
10.3515	163.779	4.67065
10.3521	177.003	4.69019
10.3552	157.255	4.70972
10.3563	166.242	4.729248
10.3576	180.189	4.74878
10.3595	164.255	4.76831
10.3612	162.6497	4.78784
10.3625	186.502	4.807373
10.3639	171.445	4.8269
10.3653	165.815	4.84644
10.3681	186.252	4.86597
10.3693	179.426	4.885498
10.3703	164.76	4.90503
10.3725	186.569	4.92456
10.3733	188.825	4.94409
10.3754	170.87	4.963623
10.3787	186.269	4.98315
10.3783	192.946	5.00269
10.3802	175.912	5.02222
10.3818	184.1	5.041748
10.3846	202.611	5.06128
10.3859	183.355	5.08081
10.3873	184.2576	5.10034
10.3876	200.064	5.119873
10.3908	192.698	5.1394
10.3908	182.954	5.15894
10.394	205.594	5.17847
10.3955	198.071	5.197998
10.396	188.589	5.21753
10.3979	201.012	5.23706
10.3997	207.158	5.25659
10.4022	186.765	5.276123
10.4031	203.9	5.29565
10.4038	215.89	5.31519
10.4068	194.939	5.33472
10.409	198.8931	5.354248
10.41	221.347	5.37378
10.4115	203.88	5.39331
10.4126	203.222	5.41284
10.4147	221.658	5.432373
10.4165	208.765	5.4519
10.4182	200.615	5.47144
10.4208	225.259	5.49097
10.4215	218.963	5.510498
10.4237	203.807	5.53003
10.4244	224.3768	5.54956
10.42653	224.67	5.56909
10.4279	207.872	5.588623
10.4289	222.514	5.60815
10.4317	233.981	5.62769
10.43259	215.242	5.64722
10.4345	222.82	5.666748
10.436	235.4809	5.68628
10.4365	221.171	5.70581
10.4394	221.246	5.72534
10.4418	242.354	5.744873
10.4425	230.131	5.7644
10.44354	222.713	5.78394
10.44516	239.6151	5.80347
10.4476	240.464	5.822998
10.4488	223.665	5.84253
10.4507	243.64	5.86206
10.4518	245.459	5.88159
10.454	228.008	5.901123
10.4557	239.0676	5.92065
10.4568	253.633	5.94019
10.4583	232.896	5.95972
10.4602	239.799	5.979248
10.4613	259.011	5.99878
10.4634	240.164	6.01831
10.4651	237.147	6.03784
10.46679	261.071	6.057373
10.4685	249.57	6.0769
10.4702	241.092	6.09644
10.47109	262.036	6.11597
10.474	254.607	6.135498
10.4755	242.363	6.15503
10.4762	262.205	6.17456
10.4784	264.796	6.19409
10.4797	245.189	6.213623
10.4819	262.615	6.23315
10.4832	269.359	6.25269
10.48539	251.622	6.27222
10.4861	258.87	6.291748
10.4891	276.164	6.31128
10.4901	260.727	6.33081
10.4916	259.717	6.35034
10.4927	276.188	6.369873
10.4942	269.367	6.3894
10.4964	258.106	6.40894
10.4989	282.434	6.42847
10.5	277.5	6.447998
10.5005	261.329	6.46753
10.5028	276.382	6.48706
10.5042	284.727	6.50659
10.5065	266.511	6.526123
10.5074	278.95	6.54565
10.5092	289.845	6.56519
10.51099	272.701	6.58472
10.5117	275.857	6.604248
10.51489	297.222	6.62378
10.5161	278.608	6.64331
10.5172	279.94	6.66284
10.5186	300.229	6.682373
10.5201	287.484	6.7019
10.5223	275.145	6.72144
10.5245	299.877	6.74097
10.5258	296.677	6.760498
10.52774	280.584	6.78003
10.5292	298.703	6.79956
10.531	299.452	6.81909
10.5315	284.987	6.838623
10.5344	296.8349	6.85815
10.5359	310.266	6.87769
10.5358	291.801	6.89722
10.5389	297.797	6.916748
10.5396	312.539	6.93628
10.5415	299.815	6.95581
10.54377	295.2132	6.97534
10.545	318.205	6.994873
10.5472	307.757	7.0144
10.5487	298.559	7.03394
10.5497	315.3992	7.05347
10.5513	316.316	7.072998
10.5525	298.387	7.09253
10.5556	318.5087	7.11206
10.5579	323.473	7.13159
10.5579	305.361	7.151123
10.5601	312.706	7.17065
10.5619	331.603	7.19019
10.56271	311.263	7.20972
10.5641	316.302	7.229248
10.567	332.6763	7.24878
10.5676	317.091	7.26831
10.5698	312.224	7.28784
10.57115	337.103	7.307373
10.5726	324.524	7.3269
10.57445	314.575	7.34644
10.5754	337.954	7.36597
10.5777	333.249	7.385498
10.57852	315.985	7.40503
10.5805	333.5022	7.42456
10.5833	342.5621	7.44409
10.5845	322.4	7.463623
10.5856	335.017	7.48315
10.5868	343.58	7.50269
10.5891	329.423	7.52222
10.5907	332.819	7.541748
10.5916	352.679	7.56128
10.5939	336.464	7.58081
10.59533	332.684	7.60034
10.5978	351.583	7.619873
10.5987	347.798	7.6394
10.6006	332.691	7.65894
10.6031	354.824	7.67847
10.604	351.83	7.697998
10.6052	337.9288	7.71753
10.607	350.129	7.73706
10.6089	361.22	7.75659
10.61056	341.424	7.776123
10.6125	354.181	7.79565
10.6135	367.242	7.81519
10.6149	346.044	7.83472
10.6161	347.579	7.854248
10.619	370.543	7.87378
10.6207	356.261	7.89331
10.6207	351.238	7.91284
10.6233	371.307	7.932373
10.6245	362.473	7.9519
10.62621	351.469	7.97144
10.6284	373.56	7.99097
10.6289	371.338	8.010498
10.63141	354.108	8.03003
10.63337	373.908	8.04956
10.6348	377.75	8.06909
10.6359	360.927	8.088623
10.6382	368.832	8.10815
10.6406	386.186	8.12769
10.6415	367.648	8.14722
10.6423	371.172	8.166748
10.6447	384.262	8.18628
10.6453	375.599	8.20581
10.6481	368.459	8.22534
10.6489	391.146	8.244873
10.6505	382.587	8.2644
10.65309	372.012	8.28394
10.6551	386.308	8.30347
10.6554	393.091	8.322998
10.6568	372.235	8.34253
10.6594	388.628	8.36206
10.6609	397.779	8.38159
10.6627	379.8205	8.401123
10.6642	387.476	8.42065
10.66612	403.752	8.44019
10.6669	384.354	8.45972
10.6688	388.753	8.479248
10.67005	408.702	8.49878
10.67265	393.007	8.51831
10.6739	384.469	8.53784
10.6744	408.987	8.557373
10.6774	402.507	8.5769
10.6789	390.716	8.59644
10.6801	410.189	8.61597
10.682	407.13	8.635498
10.6831	392.041	8.65503
10.6852	408.188	8.67456
10.6869	415.048	8.69409
10.6884	396.119	8.713623
10.6908	408.963	8.73315
10.6914	419.194	8.75269
10.6928	404.964	8.77222
10.69513	405.185	8.791748
10.6953	424.788	8.81128
10.6997	414.849	8.83081
10.7003	407.495	8.85034
10.7009	422.636	8.869873
10.7024	419.401	8.8894
10.7045	405.756	8.90894
10.7054	427.6337	8.92847
10.7075	428.601	8.947998
10.7092	410.51	8.96753
10.7125	422.097	8.98706
10.71317	436.621	9.00659
10.713	415.684	9.026123
10.7162	422.981	9.04565
10.7182	440.318	9.06519
10.7194	423.698	9.08472
10.7201	422.848	9.104248
10.7223	443.765	9.12378
10.7245	430.6	9.14331
10.72489	423.453	9.16284
10.7275	446.141	9.182373
10.7296	439.942	9.2019
10.73051	424.609	9.22144
10.7314	443.359	9.24097
10.7337	447.298	9.260498
10.7349	431.115	9.28003
10.7377	445.531	9.29956
10.73861	452.327	9.31909
10.7409	435.02	9.338623
10.7425	442.392	9.35815
10.744	458.835	9.37769
10.7453	442.034	9.39722
10.7476	443.5722	9.416748
10.7488	458.792	9.43628
10.7497	452.974	9.45581
10.7518	440.751	9.47534
10.7518	462.697	9.494873
10.755	458.65	9.5144
10.7562	446.087	9.53394
10.7571	458.064	9.55347
10.7588	467.4209	9.572998
10.76168	448.8761	9.59253
10.765	462.56	9.61206
10.7646	471.976	9.63159
10.7666	454.487	9.651123
10.768	456.014	9.67065
10.76882	476.619	9.69019
10.77098	462.061	9.70972
10.7732	459.677	9.729248
10.7737	477.543	9.74878
10.7758	469.792	9.76831
10.7772	458.488	9.78784
10.7795	479.544	9.807373
10.7815	477.076	9.8269
10.7817	462.43	9.84644
10.7844	478.67	9.86597
10.7863	481.992	9.885498
10.7867	467.332	9.90503
10.7897	476.5899	9.92456
10.7902	490.664	9.94409
10.7932	474.902	9.963623
10.7939	477.746	9.98315
10.7952	490.447	10.0027
10.7976	483.145	10.0222
10.7987	478.32	10.0417
10.8014	496.442	10.0613
10.8024	488.775	10.0808
10.8038	480.565	10.1003
10.8058	491.9017	10.1199
10.8081	499.047	10.1394
10.8087	480.759	10.1589
10.8099	494.855	10.1785
10.8118	504.738	10.198
10.8137	486.893	10.2175
10.8145	491.635	10.2371
10.817	507.55	10.2566
10.81812	492.328	10.2761
10.8196	494.26	10.2957
10.8216	511.7359	10.3152
10.8224	500.119	10.3347
10.825	491.128	10.3542
10.8273	513.87	10.3738
10.8287	508.075	10.3933
10.8298	497.154	10.4128
10.8317	513.723	10.4324
10.8333	513.548	10.4519
10.8347	499.076	10.4714
10.83577	514.097	10.491
10.8377	521.4491	10.5105
10.8406	503.623	10.53
10.8415	513.609	10.5496
10.8434	523.246	10.5691
10.8451	512.479	10.5886
10.8456	509.589	10.6082
10.84869	529.542	10.6277
10.8489	518.382	10.6472
10.8511	514.896	10.6667
10.8529	526.431	10.6863
10.8543	526.142	10.7058
10.8561	514.032	10.7253
10.8578	531.794	10.7449
10.8597	532.768	10.7644
10.8615	519.68	10.7839
10.863	527.0824	10.8035
10.8639	540.938	10.823
10.8658	523.5235	10.8425
10.8675	530.604	10.8621
10.86906	543.784	10.8816
10.8703	530.534	10.9011
10.8717	526.397	10.9207
10.8732	546.001	10.9402
10.8753	535.508	10.9597
10.8783	529.537	10.9792
10.8798	548.366	10.9988
10.8803	543.023	11.0183
10.88218	527.739	11.0378
10.8833	548.505	11.0574
10.8852	550.3717	11.0769
10.88665	536.944	11.0964
10.8885	548.426	11.116
10.8902	552.529	11.1355
10.892	538.775	11.155
10.8937	547.307	11.1746
10.8946	562.202	11.1941
10.8962	546.751	11.2136
10.8978	549.319	11.2332
10.8997	560.995	11.2527
10.9009	554.883	11.2722
10.9041	546.153	11.2917
10.9053	566.648	11.3113
10.9066	562.516	11.3308
10.9078	551.21	11.3503
10.9096	562.239	11.3699
10.9117	567.657	11.3894
10.9127	553.353	11.4089
10.9159	566.718	11.4285
10.9163	574.22	11.448
10.9176	558.165	11.4675
10.9192	562.109	11.4871
10.9205	579.4	11.5066
10.9234	565.536	11.5261
10.9239	565.163	11.5457
10.92591	581.273	11.5652
10.9277	570.911	11.5847
10.9295	563.191	11.6042
10.9307	584.166	11.6238
10.9331	577.362	11.6433
10.9337	567.911	11.6628
10.93548	585.469	11.6824
10.9369	584.607	11.7019
10.9387	568.854	11.7214
10.9404	582.357	11.741
10.9416	592.796	11.7605
10.9444	576.613	11.78
10.9449	583.7981	11.7996
10.9474	593.518	11.8191
10.94828	582.685	11.8386
10.9503	582.511	11.8582
10.9514	599.803	11.8777
10.9524	589.072	11.8972
10.9552	584.577	11.9167
10.957	597.456	11.9363
10.9585	597.067	11.9558
10.9602	582.579	11.9753
10.9629	600.763	11.9949
10.9632	603.151	12.0144
10.965	588.567	12.0339
10.9674	597.963	12.0535
10.968	609.111	12.073
10.9701	591.9	12.0925
10.9718	601.114	12.1121
10.972	614.88	12.1316
10.9746	598.578	12.1511
10.9763	596.566	12.1707
10.9776	618.887	12.1902
10.9794	605.959	12.2097
10.9818	599.535	12.2292
10.9838	617.077	12.2488
10.9846	613.511	12.2683
10.9852	599.137	12.2878
10.98817	619.189	12.3074
10.9891	619.459	12.3269
10.9913	605.08	12.3464
10.993	619.735	12.366
10.9941	624.122	12.3855
10.9963	609.172	12.405
10.9975	614.214	12.4246
10.9985	630.364	12.4441
11.0011	617.059	12.4636
11.0023	617.795	12.4832
11.0038	629.977	12.5027
11.0064	624.758	12.5222
11.0066	615.365	12.5417
11.0099	635.764	12.5613
11.0113	630.434	12.5808
11.012	618.364	12.6003
11.0138	631.917	12.6199
11.0165	638.202	12.6394
11.0165	621.22	12.6589
11.0197	635.03	12.6785
11.0209	643.988	12.698
11.0212	628.387	12.7175
11.0228	630.522	12.7371
11.0262	648.638	12.7566
11.0266	632.189	12.7761
11.0295	634.489	12.7957
11.0294	651.877	12.8152
11.0318	640.015	12.8347
11.0332	629.851	12.8542
11.0359	651.789	12.8738
11.037	648.243	12.8933
11.0393	635.599	12.9128
11.0409	651.083	12.9324
11.0415	653.172	12.9519
11.0429	638.125	12.9714
11.0448	653.31	12.991
11.047	660.219	13.0105
11.0482	643.268	13.03
11.0494	651.64	13.0496
11.0513	663.326	13.0691
11.0543	651.285	13.0886
11.0539	648.879	13.1082
11.0559	668.8551	13.1277
11.0577	657.078	13.1472
11.0597	652.691	13.1667
11.06049	665.442	13.1863
11.0625	665.242	13.2058
11.0642	652.056	13.2253
11.0666	670.415	13.2449
11.0676	673.19	13.2644
11.07	656.755	13.2839
11.0706	664.569	13.3035
11.073	679.193	13.323
11.0749	661.089	13.3425
11.0755	668.064	13.3621
11.07788	680.833	13.3816
11.0781	668.126	13.4011
11.08	666.117	13.4207
11.08226	686.4801	13.4402
11.0845	672.75	13.4597
11.0857	668.569	13.4792
11.087	686.94	13.4988
11.08906	680.524	13.5183
11.09	667.2179	13.5378
11.0911	686.021	13.5574
11.0944	688.736	13.5769
11.0949	673.55	13.5964
11.0969	687.059	13.616
11.0976	692.201	13.6355
11.0989	677.955	13.655
11.1015	684.261	13.6746
11.1025	699.571	13.6941
11.1056	682.944	13.7136
11.107	684.933	13.7332
11.1068	698.898	13.7527
11.1096	691.862	13.7722
11.111	683.318	13.7917
11.1139	702.7785	13.8113
11.1145	698.94	13.8308
11.1167	689.079	13.8503
11.1178	700.231	13.8699
11.1201	705.287	13.8894
11.1216	689.46	13.9089
11.123	703.197	13.9285
11.125	711.262	13.948
11.1264	695.62	13.9675
11.12813	697.265	13.9871
11.1292	715.9787	14.0066
11.1315	702.525	14.0261
11.1319	700.506	14.0457
11.1341	716.874	14.0652
11.1357	708.783	14.0847
11.1374	699.8822	14.1042
11.1392	720.461	14.1238
11.1412	715.0882	14.1433
11.1422	702.163	14.1628
11.1439	721.681	14.1824
11.1464	719.938	14.2019
11.1465	704.878	14.2214
11.1489	717.1	14.241
11.1507	728.313	14.2605
11.1512	710.76	14.28
11.1542	718.113	14.2996
11.1553	728.237	14.3191
11.1572	716.5647	14.3386
11.1593	716.386	14.3582
11.1599	735.354	14.3777
11.16208	722.541	14.3972
11.1634	717.992	14.4167
11.1647	732.657	14.4363
11.1662	731.97	14.4558
11.1695	718.016	14.4753
11.1699	735.663	14.4949
11.1725	737.521	14.5144
11.1737	722.238	14.5339
11.1743	731.197	14.5535
11.1769	744.37	14.573
11.1779	725.716	14.5925
11.1793	734.15	14.6121
11.18129	749.499	14.6316
11.1828	733.823	14.6511
11.184	730.508	14.6707
11.188	752.0307	14.6902
11.1893	739.931	14.7097
11.1892	734.174	14.7292
11.1907	752.012	14.7488
11.19276	746.231	14.7683
11.1938	732.69	14.7878
11.1963	752.3797	14.8074
11.1979	752.8728	14.8269
11.1992	737.519	14.8464
11.2004	752.802	14.866
11.2028	757.811	14.8855
11.2041	743.002	14.905
11.2058	749.792	14.9246
11.208	764.074	14.9441
11.2092	749.922	14.9636
11.21084	750.909	14.9832
11.2123	762.612	15.0027
11.2145	755.338	15.0222
11.2152	748.67	15.0417
11.2166	769.371	15.0613
11.2186	762.618	15.0808
11.2208	750.947	15.1003
11.2225	765.566	15.1199
11.2234	770.715	15.1394
11.2252	753.844	15.1589
11.2274	766.834	15.1785
11.2286	774.8017	15.198
11.2304	760.276	15.2175
11.23228	763.223	15.2371
11.2338	779.548	15.2566
11.2354	762.223	15.2761
11.23719	765.6604	15.2957
11.2386	782.696	15.3152
11.2402	771.68	15.3347
11.2408	761.097	15.3542
11.2429	784.786	15.3738
11.2447	779.643	15.3933
11.2463	765.921	15.4128
11.2475	784.659	15.4324
11.2502	784.126	15.4519
11.2511	769.096	15.4714
11.2536	783.864	15.491
11.2551	791.607	15.5105
11.2563	772.464	15.53
11.2587	783.089	15.5496
11.2607	793.4314	15.5691
11.2621	780.461	15.5886
11.26293	779.54	15.6082
11.2643	798.924	15.6277
11.267	788.362	15.6472
11.2676	783.631	15.6667
11.2688	794.857	15.6863
11.2705	794.511	15.7058
11.2728	782.803	15.7253
11.27432	799.909	15.7449
11.2759	801.25	15.7644
11.2782	786.241	15.7839
11.2802	795.464	15.8035
11.2802	808.257	15.823
11.282	789.697	15.8425
11.2838	796.325	15.8621
11.28612	812.7749	15.8816
11.2875	797.244	15.9011
11.2882	794.363	15.9207
11.2904	814.421	15.9402
11.2921	801.471	15.9597
11.2939	795.479	15.9792
11.2955	815.99	15.9988
11.2976	809.828	16.0183
11.2987	795.899	16.0378
11.3006	814.2326	16.0574
11.3038	816.898	16.0769
11.303	801.948	16.0964
11.3057	815.403	16.116
11.3062	819.068	16.1355
11.3085	803.79	16.155
11.31058	812.43	16.1746
11.311	827.777	16.1941
11.3139	809.049	16.2136
11.3146	813.0675	16.2332
11.3171	824.989	16.2527
11.3194	818.003	16.2722
11.3201	810.067	16.2917
11.3207	830.177	16.3113
11.3239	824.405	16.3308
11.3249	815.004	16.3503
11.3267	826.428	16.3699
11.3274	831.937	16.3894
11.3298	814.185	16.4089
11.3313	829.892	16.4285
11.3329	836.712	16.448
11.3351	820.049	16.4675
11.33604	824.746	16.4871
11.3384	842.795	16.5066
11.3398	826.321	16.5261
11.3413	827.078	16.5457
11.3433	843.314	16.5652
11.3449	832.13	16.5847
11.3467	824.5	16.6042
11.3477	846.222	16.6238
11.3486	840.12	16.6433
11.3501	827.311	16.6628
11.3527	846.684	16.6824
11.3536	845.696	16.7019
11.3555	828.451	16.7214
11.3566	843.081	16.741
11.359	852.468	16.7605
11.3621	834.837	16.78
11.3616	842.925	16.7996
11.3644	852.214	16.8191
11.3657	840.477	16.8386
11.367	840.329	16.8582
11.3686	859.001	16.8777
11.3702	846.047	16.8972
11.3716	840.482	16.9167
11.3743	857.269	16.9363
11.3751	855.171	16.9558
11.3768	839.759	16.9753
11.3792	858.548	16.9949
11.3798	859.174	17.0144
11.3818	845.636	17.0339
11.383	852.3869	17.0535
11.3841	865.175	17.073
11.387	846.6228	17.0925
11.3892	856.168	17.1121
11.3896	869.747	17.1316
11.3909	852.988	17.1511
11.3941	850.697	17.1707
11.395	872.228	17.1902
11.396	861.485	17.2097
11.39827	855.153	17.2292
11.3996	872.912	17.2488
11.4013	865.66	17.2683
11.4021	852.907	17.2878
11.4051	872.552	17.3074
11.4056	872.193	17.3269
11.4072	856.592	17.3464
11.4098	873.384	17.366
11.41144	876.979	17.3855
11.4131	862.614	17.405
11.4149	867.373	17.4246
11.41669	882.669	17.4441
11.4189	868.47	17.4636
11.41943	870.256	17.4832
11.4209	881.713	17.5027
11.4219	874.696	17.5222
11.424	867.431	17.5417
11.4257	888.461	17.5613
11.4275	880.713	17.5808
11.42896	869.515	17.6003
11.4309	881.127	17.6199
11.4338	888.269	17.6394
11.4346	871.3031	17.6589
11.4359	884.591	17.6785
11.4363	892.255	17.698
11.4389	876.718	17.7175
11.4402	880.505	17.7371
11.4416	897.542	17.7566
11.44417	878.934	17.7761
11.44524	881.383	17.7957
11.4473	899.6889	17.8152
11.4484	887.5957	17.8347
11.44963	876.658	17.8542
11.4512	900.571	17.8738
11.4542	894.811	17.8933
11.4561	882.222	17.9128
11.4563	900.644	17.9324
11.4588	897.005	17.9519
11.4605	883.244	17.9714
11.4606	898.2832	17.991
11.4631	903.947	18.0105
11.4646	886.097	18.03
11.4663	896.314	18.0496
11.4686	906.756	18.0691
11.4702	893.1991	18.0886
11.471	893.299	18.1082
11.4729	911.973	18.1277
11.47497	898.879	18.1472
11.4762	897.113	18.1667
11.4761	909.359	18.1863
11.4796	905.53	18.2058
11.4812	894.963	18.2253
11.4819	912.939	18.2449
11.4846	911.569	18.2644
11.4864	897.605	18.2839
11.4873	906.987	18.3035
11.4884	918.785	18.323
11.4904	900.567	18.3425
11.49231	909.587	18.3621
11.4944	920.711	18.3816
11.4963	905.504	18.4011
11.4979	904.257	18.4207
11.4989	925.39	18.4402
11.5001	909.976	18.4597
11.5028	905.205	18.4792
11.5035	924.972	18.4988
11.5049	916.267	18.5183
11.5073	904.997	18.5378
11.5084	922.559	18.5574
11.5108	923.128	18.5769
11.5119	908.227	18.5964
11.5131	922.489	18.616
11.5146	925.405	18.6355
11.5167	909.939	18.655
11.51854	920.69	18.6746
11.5195	934	18.6941
11.5226	916.334	18.7136
11.5234	918.496	18.7332
11.5251	931.729	18.7527
11.5264	924.682	18.7722
11.5286	916.88	18.7917
11.5308	936.229	18.8113
11.5325	929.163	18.8308
11.5338	920.625	18.8503
11.53399	932.017	18.8699
11.5364	935.947	18.8894
11.538	919.135	18.9089
11.5401	934.22	18.9285
11.5407	940.6156	18.948
11.5426	922.814	18.9675
11.545	926.474	18.9871
11.5455	943.916	19.0066
11.5479	927.331	19.0261
11.5498	929.483	19.0457
11.5514	945.644	19.0652
11.5532	931.283	19.0847
11.5542	925.505	19.1042
11.5561	948.167	19.1238
11.5583	939.326	19.1433
11.55918	927.915	19.1628
11.5608	946.534	19.1824
11.5636	943.507	19.2019
11.5638	928.208	19.2214
11.5652	943.794	19.241
11.5674	950.455	19.2605
11.5697	932.7561	19.28
11.57055	943.322	19.2996
11.5726	950.705	19.3191
11.57386	936.076	19.3386
11.5757	939.7	19.3582
11.5768	957.497	19.3777
11.5789	944.479	19.3972
11.5804	938.056	19.4167
11.5832	954.134	19.4363
11.58395	950.3299	19.4558
11.5855	939.174	19.4753
11.5873	956.674	19.4949
11.589	953.502	19.5144
11.5898	940.919	19.5339
11.5911	950.249	19.5535
11.5939	960.899	19.573
11.5952	940.913	19.5925
11.5961	951.836	19.6121
11.5976	964.525	19.6316
11.5996	946.286	19.6511
11.6016	946.745	19.6707
11.6035	965.35	19.6902
11.6047	951.842	19.7097
11.607	946.518	19.7292
11.6072	965.581	19.7488
11.6095	957.7	19.7683
11.61127	944.895	19.7878
11.61349	965.353	19.8074
11.6145	963.229	19.8269
11.6167	947.761	19.8464
11.6189	963.908	19.866
11.619	966.916	19.8855
11.622	949.994	19.905
11.6228	960.475	19.9246
11.6242	971.469	19.9441
11.6264	954.633	19.9636
11.6289	959.807	19.9832
11.6305	970.62	20.0027
11.6308	959.809	20.0222
11.6323	953.802	20.032

Data Header:			0.254_solid_dimension_typei_090_r0			Time:	40.0378	s	4/15/2019 2:12:23 PM
Data Acquisition:	Timed
Station Name:	ft40.cfg
Test File Name:	monotonic_0.2540_typei_solid_090_dimension.tst
Displacement	Force	Running Time
mm	N	s
11.6327	954.152	20.0417
11.6332	975.857	20.0613
11.6363	966.823	20.0808
11.6374	956.299	20.1003
11.6391	967.9165	20.1199
11.6405	972.617	20.1394
11.6425	955.692	20.1589
11.645	971.589	20.1785
11.6454	974.922	20.198
11.64739	958.288	20.2175
11.6492	965.388	20.2371
11.64957	979.981	20.2566
11.6525	961.503	20.2761
11.6532	965.242	20.2957
11.6549	981.446	20.3152
11.6569	969.333	20.3347
11.6581	960.585	20.3542
11.6604	981.395	20.3738
11.6617	971.635	20.3933
11.6637	962.74	20.4128
11.6651	981.901	20.4324
11.666	976.879	20.4519
11.6693	960.175	20.4714
11.6698	978.016	20.491
11.672	982.802	20.5105
11.675	965.137	20.53
11.6752	975.522	20.5496
11.6765	983.577	20.5691
11.6779	969.186	20.5886
11.6789	972.65	20.6082
11.6818	987.5907	20.6277
11.6841	973.407	20.6472
11.6849	971.947	20.6667
11.6853	986.542	20.6863
11.68786	978.497	20.7058
11.6898	966.857	20.7253
11.6918	989.186	20.7449
11.6924	985.827	20.7644
11.6943	970.984	20.7839
11.6962	979.649	20.8035
11.6969	989.748	20.823
11.6997	971.966	20.8425
11.7003	982.555	20.8621
11.7024	992.7	20.8816
11.7051	975.162	20.9011
11.7052	976.3222	20.9207
11.7072	997.076	20.9402
11.7084	979.96	20.9597
11.7104	975.506	20.9792
11.7116	994.0517	20.9988
11.71293	985.288	21.0183
11.7149	973.686	21.0378
11.7178	991.336	21.0574
11.7196	990.822	21.0769
11.7201	975.124	21.0964
11.7217	991.907	21.116
11.7238	993.316	21.1355
11.7257	975.1424	21.155
11.7279	987.331	21.1746
11.7296	995.8941	21.1941
11.7312	979.833	21.2136
11.7314	984.567	21.2332
11.7335	995.476	21.2527
11.735	985.878	21.2722
11.7367	981.78	21.2917
11.7376	999.104	21.3113
11.74	988.7196	21.3308
11.7414	981.768	21.3503
11.7442	994.061	21.3699
11.7446	996.583	21.3894
11.7466	977.0625	21.4089
11.7482	995.435	21.4285
11.7495	1000.44	21.448
11.7518	982.794	21.4675
11.7519	986.708	21.4871
11.7541	1002.44	21.5066
11.7568	983.175	21.5261
11.7579	989.707	21.5457
11.7598	1002.88	21.5652
11.7612	988.084	21.5847
11.7627	982.302	21.6042
11.7645	1003.99	21.6238
11.7653	993.562	21.6433
11.7686	982.349	21.6628
11.7699	1001.1	21.6824
11.7711	998.521	21.7019
11.7727	982.105	21.7214
11.7738	999.007	21.741
11.7761	1000.97	21.7605
11.77761	985.154	21.78
11.7777	996.376	21.7996
11.7804	1002.52	21.8191
11.7823	985.26	21.8386
11.7848	991.198	21.8582
11.7854	1007.41	21.8777
11.7867	992.367	21.8972
11.7892	991.002	21.9167
11.7907	1001.8	21.9363
11.79213	995.826	21.9558
11.7942	984.938	21.9753
11.7953	1005.24	21.9949
11.7975	1000.65	22.0144
11.7986	987.649	22.0339
11.8005	996.95	22.0535
11.8015	1007.99	22.073
11.80475	986.929	22.0925
11.80499	998.267	22.1121
11.8074	1008.38	22.1316
11.8087	992.402	22.1511
11.8093	990.394	22.1707
11.8116	1010.66	22.1902
11.8138	993.122	22.2097
11.8158	990.222	22.2292
11.8167	1009.02	22.2488
11.8184	997.933	22.2683
11.8199	985.184	22.2878
11.8217	1006.36	22.3074
11.823	1003.98	22.3269
11.82508	987.468	22.3464
11.8258	1003.17	22.366
11.8285	1006.23	22.3855
11.8299	988.715	22.405
11.8314	999.828	22.4246
11.8341	1009.509	22.4441
11.8346	991.039	22.4636
11.8358	997.619	22.4832
11.8376	1008.79	22.5027
11.8396	994.241	22.5222
11.8413	989.961	22.5417
11.8425	1010.31	22.5613
11.84412	1000.05	22.5808
11.8454	991.579	22.6003
11.847	1004.38	22.6199
11.8497	1006.2	22.6394
11.8503	989.554	22.6589
11.8513	1006.48	22.6785
11.8533	1008.79	22.698
11.8568	991.963	22.7175
11.8573	997.845	22.7371
11.8585	1012.99	22.7566
11.8608	992.637	22.7761
11.8625	997.61	22.7957
11.8637	1012.31	22.8152
11.8651	997.686	22.8347
11.8676	990.811	22.8542
11.868	1011.67	22.8738
11.8699	1000.12	22.8933
11.8711	993.372	22.9128
11.8744	1010.12	22.9324
11.8747	1004.63	22.9519
11.8773	986.864	22.9714
11.8783	1006.29	22.991
11.8794	1010.75	23.0105
11.8817	991.7345	23.03
11.8832	1002.52	23.0496
11.8852	1010.1	23.0691
11.8872	994.759	23.0886
11.888	997.811	23.1082
11.8903	1013.51	23.1277
11.8911	997.778	23.1472
11.8939	996.722	23.1667
11.8947	1009.34	23.1863
11.8963	1001.98	23.2058
11.8987	991.052	23.2253
11.8992	1010.829	23.2449
11.9024	1007.18	23.2644
11.9028	992.072	23.2839
11.9053	1002.95	23.3035
11.90594	1010.43	23.323
11.9067	992.3396	23.3425
11.9099	1003.43	23.3621
11.9109	1012.27	23.3816
11.91297	994.285	23.4011
11.9153	994.515	23.4207
11.9165	1015.76	23.4402
11.91739	997.657	23.4597
11.9195	995.117	23.4792
11.9217	1011.59	23.4988
11.9228	1002.02	23.5183
11.9233	989.988	23.5378
11.9261	1010.83	23.5574
11.9277	1005.56	23.5769
11.9282	991.394	23.5964
11.9302	1006.76	23.616
11.9322	1009.58	23.6355
11.93421	989.281	23.655
11.9355	1001.73	23.6746
11.9368	1013.49	23.6941
11.9386	993.423	23.7136
11.94	998.348	23.7332
11.9412	1009.18	23.7527
11.9442	996.521	23.7722
11.9438	994.26	23.7917
11.9463	1012.333	23.8113
11.9478	998.667	23.8308
11.9501	992.504	23.8503
11.9524	1006.07	23.8699
11.9534	1005.75	23.8894
11.9549	988.75	23.9089
11.9561	1004.68	23.9285
11.9583	1008.99	23.948
11.9604	992.534	23.9675
11.9614	997.153	23.9871
11.9628	1011.13	24.0066
11.9639	992.734	24.0261
11.9655	997.143	24.0457
11.9678	1012.83	24.0652
11.9702	996.623	24.0847
11.9715	989.9801	24.1042
11.9724	1013.56	24.1238
11.97416	1000.82	24.1433
11.9764	991.089	24.1628
11.9771	1008.19	24.1824
11.9798	1004.403	24.2019
11.9813	986.57	24.2214
11.9823	1006.65	24.241
11.98419	1005.603	24.2605
11.986	990.113	24.28
11.9871	1001.36	24.2996
11.9888	1009.68	24.3191
11.9901	989.1568	24.3386
11.9922	993.411	24.3582
11.9951	1010.498	24.3777
11.9958	995.328	24.3972
11.9972	992.671	24.4167
11.9988	1005.98	24.4363
12.0008	997.337	24.4558
12.002	989.493	24.4753
12.0034	1009.01	24.4949
12.005	1002.96	24.5144
12.0078	989.032	24.5339
12.0098	1000.541	24.5535
12.01	1008.59	24.573
12.0126	988.323	24.5925
12.0136	998.43	24.6121
12.0154	1008.99	24.6316
12.01724	994.435	24.6511
12.0194	992.0213	24.6707
12.0194	1009.67	24.6902
12.0217	993.211	24.7097
12.0233	993.4599	24.7292
12.02514	1008.87	24.7488
12.0262	997.687	24.7683
12.0282	983.56	24.7878
12.0301	1005.941	24.8074
12.0313	1001.86	24.8269
12.033	988.332	24.8464
12.0341	1001.871	24.866
12.0365	1003.848	24.8855
12.0372	985.432	24.905
12.04	998.139	24.9246
12.042	1006.34	24.9441
12.0424	987.9	24.9636
12.0446	993.6864	24.9832
12.0467	1007.03	25.0027
12.048	991.228	25.0222
12.0492	987.277	25.0417
12.0509	1006.36	25.0613
12.0537	996.06	25.0808
12.0541	988.48	25.1003
12.0556	1000.92	25.1199
12.0571	998.181	25.1394
12.0583	982.375	25.1589
12.0619	1001.4	25.1785
12.0626	1003.31	25.198
12.0642	984.723	25.2175
12.0663	992.652	25.2371
12.0674	1008.915	25.2566
12.0694	987.613	25.2761
12.0698	991.299	25.2957
12.0724	1007.015	25.3152
12.0736	993.382	25.3347
12.0752	985.265	25.3542
12.077	1007.37	25.3738
12.079	992.397	25.3933
12.0812	985.285	25.4128
12.0834	1003.34	25.4324
12.0836	998.8	25.4519
12.0854	979.491	25.4714
12.0878	999.319	25.491
12.0889	1001.47	25.5105
12.0895	984.4671	25.53
12.0918	994.731	25.5496
12.09284	1001.564	25.5691
12.0952	982.7796	25.5886
12.09695	989.855	25.6082
12.0987	1005.4	25.6277
12.0995	987.974	25.6472
12.1014	986.695	25.6667
12.1029	1001.1	25.6863
12.1052	991.715	25.7058
12.1059	980.638	25.7253
12.1082	1001.11	25.7449
12.1101	996.101	25.7644
12.111	983.372	25.7839
12.1126	993.922	25.8035
12.1147	999.911	25.823
12.1167	981.746	25.8425
12.1189	993.072	25.8621
12.1196	1003.63	25.8816
12.121	985.227	25.9011
12.1231	984.326	25.9207
12.1245	1004.62	25.9402
12.1257	986.898	25.9597
12.12779	984.575	25.9792
12.1283	1001.59	25.9988
12.1314	992.4718	26.0183
12.1318	979.3642	26.0378
12.1341	1001.55	26.0574
12.1365	993.63	26.0769
12.1381	980.369	26.0964
12.1385	996.089	26.116
12.1406	998.548	26.1355
12.1423	977.7063	26.155
12.1442	991.7981	26.1746
12.1457	999.948	26.1941
12.1461	982.157	26.2136
12.1484	987.698	26.2332
12.1505	1000.24	26.2527
12.1512	982.723	26.2722
12.1548	982.854	26.2917
12.1541	1000.522	26.3113
12.1569	989.134	26.3308
12.1585	981.234	26.3503
12.1595	996.073	26.3699
12.1624	993.023	26.3894
12.1635	978.221	26.4089
12.1638	995.398	26.4285
12.1664	996.574	26.448
12.1676	980.975	26.4675
12.1691	986.7962	26.4871
12.1724	1000.6	26.5066
12.1725	978.356	26.5261
12.175	986.776	26.5457
12.1761	1000.75	26.5652
12.1775	985.866	26.5847
12.1801	976.617	26.6042
12.1806	999.328	26.6238
12.1843	987.428	26.6433
12.1837	980.557	26.6628
12.18581	997.1087	26.6824
12.1872	991.2	26.7019
12.1899	974.985	26.7214
12.1912	994.658	26.741
12.1935	994.718	26.7605
12.1943	977.4043	26.78
12.1956	990.122	26.7996
12.1973	998.281	26.8191
12.1989	977.914	26.8386
12.201	983.596	26.8582
12.2009	998.802	26.8777
12.2034	983.057	26.8972
12.205	982.116	26.9167
12.2083	995.612	26.9363
12.2086	984.813	26.9558
12.2106	977.014	26.9753
12.2107	996.177	26.9949
12.21372	990.252	27.0144
12.215	975.77	27.0339
12.217	988.6095	27.0535
12.2199	993.881	27.073
12.2205	975.68	27.0925
12.2219	986.6795	27.1121
12.223	996.104	27.1316
12.2259	980.018	27.1511
12.2268	979.178	27.1707
12.2275	998.137	27.1902
12.2302	980.019	27.2097
12.2316	978.55	27.2292
12.2336	997.517	27.2488
12.2353	987.498	27.2683
12.2366	971.199	27.2878
12.2392	992.704	27.3074
12.2401	988.331	27.3269
12.2409	974.161	27.3464
12.243	991.011	27.366
12.245	992.6925	27.3855
12.2467	971.24	27.405
12.2481	986.356	27.4246
12.2495	993.664	27.4441
12.2511	977.2536	27.4636
12.2528	979.973	27.4832
12.2538	995.854	27.5027
12.2559	978.345	27.5222
12.2575	979.693	27.5417
12.2592	994.214	27.5613
12.2613	983.257	27.5808
12.26294	974.707	27.6003
12.2633	990.065	27.6199
12.2668	987.37	27.6394
12.2683	972.51	27.6589
12.2692	990.166	27.6785
12.2704	992.324	27.698
12.2718	974.481	27.7175
12.2743	981.0144	27.7371
12.276	994.972	27.7566
12.2782	976.357	27.7761
12.2796	982.191	27.7957
12.2808	994.01	27.8152
12.282	982.2373	27.8347
12.2835	973.115	27.8542
12.2859	995.915	27.8738
12.2868	982.832	27.8933
12.2887	974.064	27.9128
12.2898	991.692	27.9324
12.2914	989.069	27.9519
12.2932	969.14	27.9714
12.2951	988.693	27.991
12.2972	990.559	28.0105
12.2993	973.6748	28.03
12.3009	985.249	28.0496
12.3024	992.911	28.0691
12.3031	970.604	28.0886
12.3055	980.001	28.1082
12.3065	993.678	28.1277
12.3089	977.776	28.1472
12.3096	975.894	28.1667
12.3113	992.015	28.1863
12.3127	979.866	28.2058
12.3139	972.7901	28.2253
12.3166	990.627	28.2449
12.3183	985.745	28.2644
12.3195	973.213	28.2839
12.322	985.35	28.3035
12.3228	989.57	28.323
12.3242	972.013	28.3425
12.3265	983.106	28.3621
12.3282	992.594	28.3816
12.3294	976.971	28.4011
12.3308	974.049	28.4207
12.33276	993.478	28.4402
12.3347	976.4632	28.4597
12.3357	975.15	28.4792
12.33764	992.336	28.4988
12.3395	981.1684	28.5183
12.34077	968.447	28.5378
12.3422	991.773	28.5574
12.34411	983.8158	28.5769
12.3454	970.347	28.5964
12.3475	987.1814	28.616
12.3494	989.467	28.6355
12.3509	969.3988	28.655
12.3522	982.665	28.6746
12.3539	989.972	28.6941
12.3551	973.883	28.7136
12.3569	978.35	28.7332
12.3589	992.867	28.7527
12.3609	973.237	28.7722
12.3622	973.085	28.7917
12.364	991.35	28.8113
12.3654	979.858	28.8308
12.36639	971.789	28.8503
12.36834	987.502	28.8699
12.3701	983.913	28.8894
12.372	969.997	28.9089
12.3732	986.378	28.9285
12.3754	986.912	28.948
12.3767	970.28	28.9675
12.3774	978.1322	28.9871
12.3799	990.5152	29.0066
12.3817	971.683	29.0261
12.3837	976.916	29.0457
12.3847	991.935	29.0652
12.387	977.8913	29.0847
12.3882	969.578	29.1042
12.3898	990.782	29.1238
12.3906	980.416	29.1433
12.3943	971.953	29.1628
12.3945	989.648	29.1824
12.3968	985	29.2019
12.399	965.385	29.2214
12.3986	984.707	29.241
12.4014	986.339	29.2605
12.403	969.473	29.28
12.4032	979.787	29.2996
12.40526	990.797	29.3191
12.4077	968.666	29.3386
12.4095	977.291	29.3582
12.41024	990.03	29.3777
12.41303	974.189	29.3972
12.415	973.032	29.4167
12.4156	989.864	29.4363
12.418	975.554	29.4558
12.4191	970.074	29.4753
12.4215	988.408	29.4949
12.4229	983.347	29.5144
12.4234	971.025	29.5339
12.4252	981.33	29.5535
12.4275	985.378	29.573
12.4302	968.331	29.5925
12.431	980.028	29.6121
12.4311	988.671	29.6316
12.4341	971.067	29.6511
12.4354	973.593	29.6707
12.4364	990.1825	29.6902
12.4381	973.673	29.7097
12.4397	971.593	29.7292
12.4413	987.543	29.7488
12.4435	980.507	29.7683
12.44494	966.198	29.7878
12.4469	986.618	29.8074
12.44811	980.927	29.8269
12.4489	970.559	29.8464
12.4525	984.119	29.866
12.4521	986.929	29.8855
12.455	964.102	29.905
12.4569	980.115	29.9246
12.45787	987.084	29.9441
12.4594	970.512	29.9636
12.4615	973.48	29.9832
12.46353	988.129	30.0027
12.4641	969.8797	30.0222
12.4667	971.9007	30.0417
12.4676	987.02	30.0613
12.4687	977.116	30.0808
12.471	969.629	30.1003
12.4727	986.923	30.1199
12.4754	979.983	30.1394
12.4751	966.752	30.1589
12.4779	981.656	30.1785
12.4803	984.579	30.198
12.4809	970.572	30.2175
12.483	977.8183	30.2371
12.4835	985.178	30.2566
12.4858	969.66	30.2761
12.4879	974.553	30.2957
12.4906	988.544	30.3152
12.491	974.777	30.3347
12.49249	966.677	30.3542
12.4949	989.069	30.3738
12.49509	976.596	30.3933
12.4967	966.779	30.4128
12.49816	985.964	30.4324
12.5	982.635	30.4519
12.502	964.91	30.4714
12.5045	983.991	30.491
12.5048	981.969	30.5105
12.5067	967.666	30.53
12.5087	978.933	30.5496
12.5098	989.377	30.5691
12.5126	966.895	30.5886
12.5129	973.3233	30.6082
12.515	987.324	30.6277
12.5171	974.599	30.6472
12.5183	972.174	30.6667
12.52	987.422	30.6863
12.52023	973.858	30.7058
12.5226	968.204	30.7253
12.5248	986.149	30.7449
12.5262	979.9151	30.7644
12.5285	966.677	30.7839
12.5305	981.325	30.8035
12.5321	983.6955	30.823
12.5331	967.984	30.8425
12.5346	977.876	30.8621
12.5359	986.9245	30.8816
12.5372	969.695	30.9011
12.5394	972.994	30.9207
12.5405	987.3833	30.9402
12.54178	971.559	30.9597
12.5436	971.648	30.9792
12.5462	987.7265	30.9988
12.5484	977.747	31.0183
12.549	964.187	31.0378
12.5513	986.055	31.0574
12.5534	980.359	31.0769
12.5552	967.552	31.0964
12.5558	979.985	31.116
12.5573	983.665	31.1355
12.5595	964.1109	31.155
12.5601	978.318	31.1746
12.5613	985.806	31.1941
12.5644	969.367	31.2136
12.5662	973.989	31.2332
12.5674	988.231	31.2527
12.5688	968.559	31.2722
12.5697	970.307	31.2917
12.5721	984.403	31.3113
12.574	978.256	31.3308
12.57529	966.703	31.3503
12.5771	984.574	31.3699
12.5785	975.584	31.3894
12.5805	965.628	31.4089
12.5816	981.409	31.4285
12.5831	984.234	31.448
12.5847	966.321	31.4675
12.5867	975.439	31.4871
12.5883	983.76	31.5066
12.5901	968.588	31.5261
12.5907	974.136	31.5457
12.5927	985.8385	31.5652
12.5947	972.009	31.5847
12.597	968.168	31.6042
12.5988	986.09	31.6238
12.59977	974.586	31.6433
12.6013	966.507	31.6628
12.6034	984.785	31.6824
12.60472	981.445	31.7019
12.6055	961.948	31.7214
12.6085	981.629	31.741
12.6094	981.987	31.7605
12.6113	967.387	31.78
12.6125	977.177	31.7996
12.6149	985.843	31.8191
12.6152	964.385	31.8386
12.6167	974.527	31.8582
12.61896	987.0451	31.8777
12.6204	971.238	31.8972
12.6225	968.1972	31.9167
12.6242	987.6087	31.9363
12.6251	973.0907	31.9558
12.6273	967.569	31.9753
12.6281	983.028	31.9949
12.6305	979.877	32.0144
12.6324	965.277	32.0339
12.6338	982.219	32.0535
12.6364	980.123	32.073
12.6373	965.402	32.0925
12.6394	977.517	32.1121
12.6407	985.9455	32.1316
12.6423	968.548	32.1511
12.64367	970.3717	32.1707
12.6441	984.315	32.1902
12.6477	971.61	32.2097
12.6486	969.922	32.2292
12.6503	985.1076	32.2488
12.652	974.322	32.2683
12.6538	962.969	32.2878
12.656	984.31	32.3074
12.657	978.581	32.3269
12.6594	964.805	32.3464
12.6601	981.343	32.366
12.6614	985.57	32.3855
12.6633	962.885	32.405
12.6648	977.682	32.4246
12.6664	984.5661	32.4441
12.6687	968.344	32.4636
12.67103	973.219	32.4832
12.6711	986.967	32.5027
12.6722	967.525	32.5222
12.6746	969.476	32.5417
12.6764	985.673	32.5613
12.6775	974.954	32.5808
12.6796	965.667	32.6003
12.6814	984.173	32.6199
12.6832	975.298	32.6394
12.6846	966.618	32.6589
12.6853	978.61	32.6785
12.6875	981.615	32.698
12.6888	964.494	32.7175
12.691	976.696	32.7371
12.6937	983.638	32.7566
12.6938	967.412	32.7761
12.6961	971.148	32.7957
12.6978	986.783	32.8152
12.6992	970.905	32.8347
12.70057	965.577	32.8542
12.7027	983.26	32.8738
12.704	974.564	32.8933
12.7058	966.721	32.9128
12.7075	982.814	32.9324
12.7086	979.982	32.9519
12.7111	961.081	32.9714
12.7115	980.724	32.991
12.7132	984.398	33.0105
12.7157	965.266	33.03
12.7165	975.753	33.0496
12.7181	987.311	33.0691
12.7194	964.976	33.0886
12.72168	973.248	33.1082
12.72377	984.166	33.1277
12.725	971.083	33.1472
12.7274	969.102	33.1667
12.7282	986.981	33.1863
12.7297	970.774	33.2058
12.7319	966.321	33.2253
12.7338	982.944	33.2449
12.73412	978.988	33.2644
12.7371	965.064	33.2839
12.7376	979.32	33.3035
12.73948	978.866	33.323
12.7411	966.703	33.3425
12.7436	975.054	33.3621
12.7446	983.8092	33.3816
12.7466	966.872	33.4011
12.7484	971.47	33.4207
12.7481	983.486	33.4402
12.7519	969.3736	33.4597
12.7531	966.258	33.4792
12.7545	985.312	33.4988
12.7559	974.951	33.5183
12.758	965.646	33.5378
12.7604	980.503	33.5574
12.76123	977.489	33.5769
12.7616	963.797	33.5964
12.7642	980.286	33.616
12.7656	982.011	33.6355
12.76721	960.343	33.655
12.7699	974.688	33.6746
12.7714	984.571	33.6941
12.7706	966.815	33.7136
12.7738	968.357	33.7332
12.7756	986.682	33.7527
12.7772	967.442	33.7722
12.7786	968.361	33.7917
12.7805	983.841	33.8113
12.7837	974.809	33.8308
12.7835	964.996	33.8503
12.7842	985.038	33.8699
12.7866	974.3078	33.8894
12.7886	963.68	33.9089
12.7911	977.477	33.9285
12.7908	984.162	33.948
12.7933	964.862	33.9675
12.7943	974.942	33.9871
12.7976	980.974	34.0066
12.7982	967.633	34.0261
12.8	970.521	34.0457
12.8017	985.105	34.0652
12.80407	969.2124	34.0847
12.8047	966.116	34.1042
12.8063	983.438	34.1238
12.8073	974.259	34.1433
12.8094	964.511	34.1628
12.8118	982.4024	34.1824
12.8134	977.885	34.2019
12.814	963.216	34.2214
12.817	977.88	34.241
12.8176	980.515	34.2605
12.819	964.69	34.28
12.8205	975.92	34.2996
12.8225	985.13	34.3191
12.8239	962.7702	34.3386
12.8255	971.258	34.3582
12.8281	984.975	34.3777
12.8291	971.405	34.3972
12.8316	967.196	34.4167
12.8317	986.12	34.4363
12.8338	969.55	34.4558
12.8354	965.364	34.4753
12.8374	982.835	34.4949
12.8395	977.243	34.5144
12.8406	962.334	34.5339
12.8423	980.411	34.5535
12.8445	977.948	34.573
12.8457	966.101	34.5925
12.8473	973.1474	34.6121
12.8489	985.646	34.6316
12.8499	967.3092	34.6511
12.852	971.18	34.6707
12.8526	979.214	34.6902
12.8559	969.12	34.7097
12.8574	966.008	34.7292
12.8573	985.409	34.7488
12.8597	973.459	34.7683
12.8624	962.536	34.7878
12.8624	979.897	34.8074
12.86517	978.706	34.8269
12.8668	963.006	34.8464
12.8685	976.3	34.866
12.8707	981.314	34.8855
12.8716	961.307	34.905
12.8727	973.361	34.9246
12.875	983.646	34.9441
12.8776	965.363	34.9636
12.8787	968.931	34.9832
12.87958	986.897	35.0027
12.8814	965.7157	35.0222
12.8831	966.417	35.0417
12.8857	983.118	35.0613
12.8867	973.048	35.0808
12.8881	962.418	35.1003
12.889	982.369	35.1199
12.8901	973.295	35.1394
12.8935	964.026	35.1589
12.8947	979.491	35.1785
12.8958	981.007	35.198
12.8985	962.19	35.2175
12.89964	975.356	35.2371
12.9009	980.408	35.2566
12.9029	967.734	35.2761
12.9043	969.649	35.2957
12.906	984.4942	35.3152
12.9091	969.551	35.3347
12.9093	967.9248	35.3542
12.9097	981.849	35.3738
12.9114	972.243	35.3933
12.91342	963.305	35.4128
12.9157	983.169	35.4324
12.917	977.823	35.4519
12.9199	960.629	35.4714
12.9215	975.974	35.491
12.9219	981.961	35.5105
12.9241	963.278	35.53
12.9244	973.73	35.5496
12.9276	982.148	35.5691
12.9287	962.492	35.5886
12.9307	969.21	35.6082
12.9324	983.459	35.6277
12.9341	966.894	35.6472
12.9346	965.405	35.6667
12.937	985.935	35.6863
12.9389	969.992	35.7058
12.9404	964.181	35.7253
12.9419	980.376	35.7449
12.945	976.042	35.7644
12.9445	962.781	35.7839
12.9465	979.625	35.8035
12.9495	974.79	35.823
12.9501	962.7085	35.8425
12.9521	973.808	35.8621
12.9525	985.264	35.8816
12.956	963.529	35.9011
12.9561	969.729	35.9207
12.9587	980.397	35.9402
12.9586	969.514	35.9597
12.9616	966.034	35.9792
12.96289	983.712	35.9988
12.9637	971.728	36.0183
12.96586	964.246	36.0378
12.9674	978.163	36.0574
12.96943	975.806	36.0769
12.97082	960.178	36.0964
12.9723	979.356	36.116
12.97454	980.654	36.1355
12.976	961.388	36.155
12.9773	970.646	36.1746
12.9792	984.274	36.1941
12.9808	965.193	36.2136
12.9822	969.941	36.2332
12.984	983.634	36.2527
12.9863	965.914	36.2722
12.9877	965.171	36.2917
12.9886	982.867	36.3113
12.9894	970.361	36.3308
12.9922	960.692	36.3503
12.9934	982.5459	36.3699
12.9954	973.069	36.3894
12.9973	962.483	36.4089
12.9988	976.1665	36.4285
13.0002	980.477	36.448
13.0023	962.618	36.4675
13.0038	975.172	36.4871
13.0049	979.271	36.5066
13.00729	963.853	36.5261
13.0085	967.989	36.5457
13.0097	984.82	36.5652
13.0123	967.195	36.5847
13.0131	964.472	36.6042
13.0159	979.771	36.6238
13.01664	972.987	36.6433
13.0178	962.052	36.6628
13.02057	980.056	36.6824
13.0219	974.691	36.7019
13.0237	962.457	36.7214
13.0243	976.504	36.741
13.0264	980.405	36.7605
13.0278	960.725	36.78
13.0292	972.556	36.7996
13.0314	983.519	36.8191
13.0325	963.643	36.8386
13.0345	966.85	36.8582
13.0367	982.793	36.8777
13.0389	967.404	36.8972
13.0394	964.862	36.9167
13.0418	983.722	36.9363
13.0429	967.6366	36.9558
13.0437	960.958	36.9753
13.04595	980.9447	36.9949
13.0477	975.386	37.0144
13.04956	959.754	37.0339
13.0508	977.374	37.0535
13.0536	976.749	37.073
13.0541	963.632	37.0925
13.0549	972.827	37.1121
13.0578	980.982	37.1316
13.0591	964.431	37.1511
13.0612	971.745	37.1707
13.0626	979.69	37.1902
13.0639	967.294	37.2097
13.0668	963.702	37.2292
13.0668	982.605	37.2488
13.0686	972.628	37.2683
13.0703	963.083	37.2878
13.0713	977.337	37.3074
13.0733	975.912	37.3269
13.07606	960.411	37.3464
13.0771	978.39	37.366
13.0782	978.058	37.3855
13.0801	961.3974	37.405
13.0814	970.747	37.4246
13.0834	983.084	37.4441
13.0851	962.045	37.4636
13.0866	967.6283	37.4832
13.0872	984.207	37.5027
13.0901	965.391	37.5222
13.0917	963.143	37.5417
13.0942	980.536	37.5613
13.0941	970.558	37.5808
13.0962	962.159	37.6003
13.0986	981.944	37.6199
13.0994	973.3219	37.6394
13.1031	959.834	37.6589
13.1031	977.904	37.6785
13.1036	979.689	37.698
13.1068	960.099	37.7175
13.109	973.625	37.7371
13.1094	978.208	37.7566
13.1109	964.156	37.7761
13.1128	966.883	37.7957
13.1144	982.243	37.8152
13.1154	965.307	37.8347
13.1186	965.9425	37.8542
13.1186	979.325	37.8738
13.1204	970.56	37.8933
13.1224	959.733	37.9128
13.1234	979.5683	37.9324
13.1263	975.791	37.9519
13.1279	961.555	37.9714
13.1297	973.225	37.991
13.1312	977.109	38.0105
13.1325	958.774	38.03
13.1327	973.232	38.0496
13.1358	980.959	38.0691
13.1376	961.013	38.0886
13.1392	964.534	38.1082
13.1397	983.991	38.1277
13.1412	966.02	38.1472
13.1438	963.872	38.1667
13.1458	981.514	38.1863
13.1467	968.656	38.2058
13.1486	960.413	38.2253
13.1499	978.694	38.2449
13.15194	972.756	38.2644
13.153	959.126	38.2839
13.1554	978.359	38.3035
13.1567	975.958	38.323
13.15767	957.972	38.3425
13.15962	972.732	38.3621
13.1605	981.003	38.3816
13.1627	961.13	38.4011
13.1648	969.777	38.4207
13.1659	976.32	38.4402
13.1685	966.248	38.4597
13.17	962.345	38.4792
13.171	982.165	38.4988
13.174	968.265	38.5183
13.1734	960.988	38.5378
13.1763	975.606	38.5574
13.1778	974.807	38.5769
13.17988	958.102	38.5964
13.1818	974.642	38.616
13.1833	977.489	38.6355
13.1844	959.665	38.655
13.186	968.934	38.6746
13.1883	980.405	38.6941
13.1888	959.491	38.7136
13.1909	968.551	38.7332
13.1927	982.084	38.7527
13.19437	962.586	38.7722
13.19671	959.88	38.7917
13.1976	982.556	38.8113
13.1982	968.588	38.8308
13.2002	960.407	38.8503
13.2029	978.589	38.8699
13.20446	971.211	38.8894
13.20629	957.471	38.9089
13.2071	975.647	38.9285
13.2087	975.7666	38.948
13.2116	957.4541	38.9675
13.2123	971.941	38.9871
13.213	975.457	39.0066
13.2153	958.9353	39.0261
13.2168	965.894	39.0457
13.2186	980.815	39.0652
13.2206	963.222	39.0847
13.22244	964.4566	39.1042
13.2232	975.53	39.1238
13.2248	967.434	39.1433
13.2271	958.22	39.1628
13.2279	979.6189	39.1824
13.2291	971.146	39.2019
13.2316	957.341	39.2214
13.2336	971.518	39.241
13.2344	976.307	39.2605
13.2368	956.619	39.28
13.2388	970.938	39.2996
13.2396	976.528	39.3191
13.2417	960.9693	39.3386
13.2426	963.793	39.3582
13.2441	980.072	39.3777
13.2468	960.2016	39.3972
13.2469	962.094	39.4167
13.2491	981.0647	39.4363
13.2507	966.207	39.4558
13.2528	956.677	39.4753
13.2549	976.702	39.4949
13.2555	970.268	39.5144
13.2583	957.4137	39.5339
13.259	973.042	39.5535
13.2613	971.7287	39.573
13.2622	954.581	39.5925
13.2638	969.945	39.6121
13.2657	976.084	39.6316
13.2674	955.999	39.6511
13.2686	966.633	39.6707
13.271	976.649	39.6902
13.2719	961.084	39.7097
13.273	959.041	39.7292
13.2743	978.098	39.7488
13.2763	964.493	39.7683
13.2778	959.762	39.7878
13.27908	973.827	39.8074
13.2823	968.8844	39.8269
13.2833	954.306	39.8464
13.2855	973.6524	39.866
13.28737	974.079	39.8855
13.2877	956.1994	39.905
13.2905	963.555	39.9246
13.2914	975.84	39.9441
13.2933	957.879	39.9636
13.29547	963.862	39.9832
13.2958	976.563	40.0027
13.2987	959.948	40.0222
13.299	954.918	40.032

Data Header:			0.254_solid_dimension_typei_090_r0			Time:	43.3694	s	4/15/2019 2:12:26 PM
Data Acquisition:	Timed
Station Name:	ft40.cfg
Test File Name:	monotonic_0.2540_typei_solid_090_dimension.tst
Displacement	Force	Running Time
mm	N	s
13.2989	957.553	40.0417
13.3009	969.487	40.0515
13.3005	978.098	40.0613
13.3025	975.612	40.071
13.3028	963.469	40.0808
13.3028	953.176	40.0906
13.3048	955.604	40.1003
13.3053	967.012	40.1101
13.3064	975.064	40.1199
13.3069	972.809	40.1296
13.3078	967.072	40.1394
13.3083	957.625	40.14917
13.3096	951.9563	40.1589
13.3105	963.416	40.1687
13.312	971.2337	40.1785
13.3124	978.376	40.1882
13.3128	969.87	40.198
13.3123	956.992	40.2078
13.3144	954.225	40.2175
13.3148	955.848	40.2273
13.3154	968.282	40.2371
13.3165	973.33	40.2468
13.3176	971.364	40.2566
13.3182	965.175	40.2664
13.31853	953.146	40.2761
13.3196	954.193	40.2859
13.3205	961.569	40.2957
13.3221	972.886	40.30542
13.3226	975.028	40.3152
13.3239	964.084	40.325
13.3238	957.1778	40.3347
13.3242	955.464	40.3445
13.3249	957.269	40.3542
13.32689	967.284	40.364
13.3269	972.901	40.3738
13.3277	969.533	40.3835
13.3289	960.114	40.3933
13.3304	951.799	40.4031
13.3303	952.236	40.4128
13.3313	963.895	40.4226
13.3321	971.983	40.4324
13.33356	970.292	40.4421
13.3341	964.712	40.4519
13.3339	955.77	40.46167
13.33523	953.409	40.4714
13.3357	957.022	40.4812
13.3376	964.96	40.491
13.3376	971.891	40.5007
13.33874	967.219	40.5105
13.3395	958.42	40.5203
13.3404	947.969	40.53
13.3411	952.757	40.5398
13.3413	964.465	40.5496
13.3424	967.205	40.5593
13.3444	969.466	40.5691
13.3449	959.384	40.5789
13.3454	950.02	40.5886
13.34483	949.574	40.5984
13.3469	951.674	40.6082
13.3476	966.06	40.61792
13.3484	970.807	40.6277
13.3484	963.28	40.6375
13.35014	950.023	40.6472
13.3494	942.915	40.657
13.3516	950.724	40.6667
13.3528	960.869	40.6765
13.3533	965.331	40.6863
13.3542	962.383	40.696
13.354	951.429	40.7058
13.3562	944.673	40.7156
13.356	939.58	40.7253
13.358	949.241	40.7351
13.3586	960.382	40.7449
13.3592	959.027	40.7546
13.3593	946.307	40.7644
13.3657	-71.2841	40.77417
13.3666	22.852	40.7839
13.3677	-49.6334	40.7937
13.3677	-41.0268	40.8035
13.3667	-28.6268	40.8132
13.3665	-37.1438	40.823
13.3678	-43.0566	40.8328
13.3683	-53.54546	40.8425
13.3685	-51.9368	40.8523
13.3698	-41.5312	40.8621
13.3694	-31.2695	40.8718
13.37063	-34.7037	40.8816
13.3725	-42.3256	40.8914
13.3726	-51.502	40.9011
13.3729	-53.4622	40.9109
13.3735	-45.3585	40.9207
13.376	-37.07077	40.93042
13.37536	-33.2285	40.9402
13.3763	-34.7428	40.95
13.3778	-48.5516	40.9597
13.3779	-51.4661	40.9695
13.3786	-51.2236	40.9792
13.3793	-39.792	40.989
13.3805	-31.1084	40.9988
13.3817	-37.054	41.0085
13.3822	-42.0666	41.0183
13.3829	-50.321	41.0281
13.38303	-53.667	41.0378
13.3849	-44.8512	41.0476
13.38622	-37.8979	41.0574
13.3858	-30.5653	41.0671
13.3867	-38.3276	41.0769
13.3885	-49.5493	41.08667
13.3879	-54.5002	41.0964
13.3894	-49.7239	41.1062
13.3907	-37.3458	41.116
13.3908	-31.7107	41.1257
13.391	-34.7144	41.1355
13.3922	-43.9189	41.1453
13.39286	-52.3351	41.155
13.3942	-53.3622	41.1648
13.3945	-46.3169	41.1746
13.39516	-35.1056	41.1843
13.3951	-30.83449	41.1941
13.3966	-39.3497	41.2039
13.3978	-53.0912	41.2136
13.3978	-55.1217	41.2234
13.3997	-46.7568	41.2332
13.4005	-38.6668	41.24292
13.4008	-30.3928	41.2527
13.4023	-36.5718	41.2625
13.4021	-45.1132	41.2722
13.4029	-53.1479	41.282
13.4044	-54.3557	41.2917
13.4046	-40.8951	41.3015
13.406	-32.0427	41.3113
13.4061	-32.1106	41.321
13.4074	-43.409	41.3308
13.4085	-53.9362	41.3406
13.4095	-51.8419	41.3503
13.4103	-46.21603	41.3601
13.4098	-33.83276	41.3699
13.41186	-31.5296	41.3796
13.4122	-40.207	41.3894
13.4121	-47.4344	41.39917
13.41369	-56.5247	41.4089
13.415	-49.3841	41.4187
13.4149	-36.596	41.4285
13.416	-31.1458	41.4382
13.4173	-34.94347	41.448
13.41833	-47.2953	41.4578
13.418	-54.5894	41.4675
13.4184	-48.9301	41.4773
13.4211	-43.108	41.4871
13.4222	-34.9753	41.4968
13.4221	-33.3816	41.5066
13.4238	-40.4239	41.5164
13.4231	-51.3437	41.5261
13.4245	-52.9307	41.5359
13.4261	-46.5466	41.5457
13.4259	-35.2026	41.55542
13.426	-32.4071	41.5652
13.4274	-39.6055	41.575
13.4279	-47.8667	41.5847
13.4286	-52.3293	41.5945
13.429	-48.9625	41.6042
13.43135	-41.1458	41.614
13.43199	-34.6767	41.6238
13.4331	-33.0736	41.6335
13.4332	-45.0679	41.6433
13.4344	-49.689	41.6531
13.4347	-53.1748	41.6628
13.4361	-43.30365	41.6726
13.4367	-34.003	41.6824
13.4374	-35.4951	41.6921
13.4383	-39.6137	41.7019
13.43833	-48.3472	41.71167
13.4401	-50.2448	41.7214
13.4406	-49.2511	41.7312
13.44148	-41.7492	41.741
13.4426	-30.8946	41.7507
13.4432	-34.0356	41.7605
13.4437	-44.8174	41.7703
13.4448	-52.4521	41.78
13.4452	-50.3334	41.7898
13.4464	-40.31118	41.7996
13.4458	-34.93198	41.8093
13.4482	-32.4094	41.8191
13.4489	-40.3165	41.8289
13.4493	-51.4387	41.8386
13.45	-53.1747	41.8484
13.4518	-49.0866	41.8582
13.4525	-37.4261	41.86792
13.4534	-29.9058	41.8777
13.4541	-35.4989	41.8875
13.4548	-49.0343	41.8972
13.45463	-54.7968	41.907
13.4568	-48.0462	41.9167
13.457	-40.5467	41.9265
13.4577	-32.4834	41.9363
13.4586	-35.176	41.946
13.4589	-41.2973	41.9558
13.46	-50.2724	41.9656
13.4616	-55.8412	41.9753
13.46116	-44.8929	41.9851
13.4621	-33.3762	41.9949
13.4632	-30.2744	42.0046
13.4641	-40.4398	42.0144
13.4646	-51.1153	42.02417
13.4662	-52.4337	42.0339
13.4665	-49.1694	42.0437
13.4672	-34.7775	42.0535
13.46874	-32.9824	42.0632
13.4694	-36.6602	42.073
13.4699	-44.865	42.0828
13.4701	-56.1327	42.0925
13.4717	-51.5619	42.1023
13.4722	-41.0525	42.1121
13.4735	-33.30761	42.1218
13.4743	-31.7692	42.1316
13.47461	-45.3521	42.1414
13.4752	-51.6342	42.1511
13.476	-49.0729	42.1609
13.4775	-46.1112	42.1707
13.4769	-35.3119	42.18042
13.4789	-33.6483	42.1902
13.4807	-36.1647	42.2
13.48001	-49.4966	42.2097
13.481	-53.2771	42.2195
13.482	-48.0471	42.2292
13.4828	-38.2346	42.239
13.4836	-33.5351	42.2488
13.4846	-36.3017	42.2585
13.4856	-45.3925	42.2683
13.4871	-49.7588	42.2781
13.4871	-49.3823	42.2878
13.4871	-44.3541	42.2976
13.4898	-35.4028	42.3074
13.4904	-32.2832	42.3171
13.4891	-39.8592	42.3269
13.4914	-47.1671	42.33667
13.4919	-54.3628	42.3464
13.4929	-46.0723	42.3562
13.4934	-35.6463	42.366
13.4947	-34.53318	42.3757
13.495	-35.4562	42.3855
13.4962	-45.4757	42.3953
13.4966	-51.3877	42.405
13.498	-50.1674	42.4148
13.4973	-44.3372	42.4246
13.4989	-32.6307	42.4343
13.4995	-33.1734	42.4441
13.5015	-39.9724	42.4539
13.50174	-50.6295	42.4636
13.5019	-53.2858	42.4734
13.5035	-42.1221	42.4832
13.504	-38.6443	42.49292
13.505	-30.8273	42.5027
13.5055	-36.0941	42.5125
13.5058	-47.0629	42.5222
13.5075	-52.025	42.532
13.5083	-53.0681	42.5417
13.5092	-39.5186	42.5515
13.5096	-30.1346	42.5613
13.5107	-32.6866	42.571
13.5112	-42.9779	42.5808
13.51196	-53.335	42.5906
13.5129	-51.9294	42.6003
13.5137	-42.0587	42.6101
13.5146	-32.8212	42.6199
13.5154	-33.1812	42.6296
13.5158	-39.2162	42.6394
13.5169	-49.7268	42.64917
13.5173	-55.7482	42.6589
13.5184	-47.7122	42.6687
13.5201	-35.9988	42.6785
13.5199	-29.4936	42.6882
13.522	-36.84594	42.698
13.5213	-49.0077	42.7078
13.5223	-52.8717	42.7175
13.5239	-48.4049	42.7273
13.5255	-40.2921	42.7371
13.5258	-33.27404	42.7468
13.5268	-33.0827	42.7566
13.5266	-41.4915	42.7664
13.5283	-53.7918	42.7761
13.5292	-51.415	42.7859
13.52949	-43.736	42.7957
13.5297	-34.405	42.80542
13.5313	-31.9185	42.8152
13.5305	-42.8062	42.825
13.5335	-48.2543	42.8347
13.5342	-50.4647	42.8445
13.53436	-48.6363	42.8542
13.5352	-39.785	42.864
13.5353	-34.4501	42.8738
13.5365	-32.5361	42.8835
13.537	-45.9386	42.8933
13.539	-52.8085	42.9031
13.5392	-52.20388	42.9128
13.54083	-42.8827	42.9226
13.5403	-34.0193	42.9324
13.5416	-35.46487	42.9421
13.5429	-43.0346	42.9519
13.5423	-48.9596	42.96167
13.5438	-52.0671	42.9714
13.5446	-48.2017	42.9812
13.5455	-40.5207	42.991
13.5456	-31.4181	43.0007
13.54784	-36.4	43.0105
13.5481	-46.8867	43.0203
13.5491	-53.6642	43.03
13.5498	-50.2594	43.0398
13.5498	-41.61092	43.0496
13.551	-35.7198	43.0593
13.552	-33.6644	43.0691
13.5524	-42.1411	43.0789
13.5537	-49.6042	43.0886
13.55536	-52.1669	43.0984
13.5556	-48.7775	43.1082
13.5563	-35.6071	43.11792
13.5569	-31.6364	43.1277
13.5586	-37.1814	43.1375
13.559	-50.0206	43.1472
13.5595	-54.4002	43.157
13.5612	-46.8115	43.1667
13.561	-40.3563	43.1765
13.5628	-33.1235	43.1863
13.5631	-34.2351	43.196
13.5638	-44.1187	43.2058
13.5642	-50.4933	43.2156
13.5645	-54.1022	43.2253
13.5656	-43.6145	43.2351
13.5657	-31.8781	43.2449
13.56802	-31.9962	43.2546
13.5687	-40.0332	43.2644
13.5687	-51.0382	43.27417
13.57	-53.22625	43.2839
13.5708	-46.6141	43.2937
13.571	-38.0741	43.3035
13.57195	-31.8301	43.3132
13.573	-36.1232	43.323
13.575	-45.9126	43.3328
13.5753	-53.7653	43.3425
13.57642	-51.6155	43.3523
13.57626	-38.7706	43.3621