File: data/processed_data_files/tensile/0.254_hd_uprint_typeiv_090_r(8).dat
MTS793|BTW|ENU|1|2|.|/|:|1|0|0|A

Data Header:			0.254_hd_uprint_typeiv_090_r0			Time:	20.0183	s	4/13/2019 11:14:08 PM
Data Acquisition:	Timed
Station Name:	ft40.cfg
Test File Name:	monotonic_0.2540_typeiv_solid_4545_uprint.tst
Displacement	Force	Running Time
mm	N	s
-40.043	-142.978	0.0227051
-40.04142	-142.164	0.0422363
-40.0415	-139.888	0.0617676
-40.0414	-140.518	0.0812988
-40.0409	-147.223	0.10083
-40.038	-139.387	0.120361
-40.0368	-138.39	0.139893
-40.0353	-142.22	0.159424
-40.0339	-137.754	0.178955
-40.0313	-131.467	0.198486
-40.0301	-139.018	0.218018
-40.0288	-136.182	0.237549
-40.0276	-130.455	0.25708
-40.0267	-131.788	0.276611
-40.0239	-133.691	0.296143
-40.0219	-128.631	0.315674
-40.0206	-132.507	0.335205
-40.01823	-131.862	0.354736
-40.0174	-125.359	0.374268
-40.0151	-125.635	0.393799
-40.01421	-128.663	0.41333
-40.0125	-127.472	0.432861
-40.0114	-122.22	0.452393
-40.01	-126.611	0.471924
-40.0071	-124.053	0.491455
-40.0059	-121.198	0.510986
-40.0038	-119.74	0.530518
-40.0022	-123.201	0.550049
-40.0004	-115.553	0.56958
-39.9992	-120.514	0.589111
-39.99778	-118.609	0.608643
-39.9961	-112.045	0.628174
-39.996	-109.4999	0.647705
-39.9927	-120.989	0.667236
-39.9907	-110.082	0.686768
-39.9906	-108.99	0.706299
-39.987	-112.305	0.72583
-39.9863	-110.257	0.745361
-39.9847	-104.963	0.764893
-39.9834	-113.917	0.784424
-39.9802	-105.914	0.803955
-39.98	-105.307	0.823486
-39.9796	-107.554	0.843018
-39.9767	-106.2076	0.862549
-39.9752	-98.64769	0.88208
-39.9752	-103.516	0.901611
-39.9714	-103.636	0.921143
-39.9701	-99.0436	0.940674
-39.9681	-97.3862	0.960205
-39.9669	-100.636	0.979736
-39.9656	-96.72686	0.999268
-39.9645	-97.8456	1.0188
-39.9617	-98.36837	1.03833
-39.9603	-92.2023	1.05786
-39.9586	-91.4335	1.07739
-39.9567	-95.051	1.09692
-39.9537	-94.5306	1.11646
-39.9542	-86.9543	1.13599
-39.9518	-90.8826	1.15552
-39.9505	-89.3744	1.17505
-39.9487	-85.4105	1.19458
-39.9477	-85.3002	1.21411
-39.9461	-91.4736	1.23364
-39.9435	-79.2801	1.25317
-39.9418	-85.8226	1.27271
-39.9412	-85.5598	1.29224
-39.9393	-78.11734	1.31177
-39.9376	-77.776	1.3313
-39.9353	-86.5118	1.35083
-39.9345	-76.9562	1.37036
-39.9328	-75.2194	1.38989
-39.9307	-77.6045	1.40942
-39.9305	-78.37645	1.42896
-39.9272	-72.7583	1.44849
-39.9258	-78.6493	1.46802
-39.9241	-73.5412	1.48755
-39.9226	-70.2903	1.50708
-39.9218	-71.9271	1.52661
-39.9207	-73.2814	1.54614
-39.9184	-66.4459	1.56567
-39.916	-69.6812	1.58521
-39.9144	-72.3334	1.60474
-39.9123	-66.8244	1.62427
-39.9116	-64.24295	1.6438
-39.9099	-65.5743	1.66333
-39.9086	-66.4181	1.68286
-39.9055	-61.9449	1.70239
-39.9057	-65.8176	1.72192
-39.9034	-61.2921	1.74146
-39.9011	-59.373	1.76099
-39.901	-59.14444	1.78052
-39.8987	-62.8699	1.80005
-39.8974	-51.5763	1.81958
-39.8941	-58.0674	1.83911
-39.8928	-57.59211	1.85864
-39.8917	-52.34354	1.87817
-39.89064	-51.97113	1.89771
-39.8887	-58.7836	1.91724
-39.88763	-47.3496	1.93677
-39.8839	-51.0849	1.9563
-39.8849	-53.073	1.97583
-39.8824	-47.9248	1.99536
-39.8804	-43.7848	2.01489
-39.8796	-53.1948	2.03442
-39.8772	-48.2138	2.05396
-39.8758	-44.2726	2.07349
-39.8737	-46.0688	2.09302
-39.8732	-44.9071	2.11255
-39.8716	-42.1956	2.13208
-39.8696	-43.8747	2.15161
-39.8663	-42.2799	2.17114
-39.8655	-38.2634	2.19067
-39.8637	-39.2325	2.21021
-39.8634	-39.3706	2.22974
-39.8608	-36.5723	2.24927
-39.8586	-34.3584	2.2688
-39.8569	-39.2718	2.28833
-39.8568	-36.587	2.30786
-39.85495	-31.7816	2.32739
-39.85281	-32.4987	2.34692
-39.85062	-35.6493	2.36646
-39.8496	-29.2186	2.38599
-39.8482	-33.244	2.40552
-39.8462	-29.9561	2.42505
-39.84486	-25.5051	2.44458
-39.8433	-27.1492	2.46411
-39.8407	-33.0158	2.48364
-39.8395	-21.6079	2.50317
-39.8386	-24.7693	2.52271
-39.8365	-27.1041	2.54224
-39.8349	-22.1156	2.56177
-39.8331	-19.3807	2.5813
-39.831	-25.4944	2.60083
-39.8304	-17.57262	2.62036
-39.829	-17.9072	2.63989
-39.827	-19.9973	2.65942
-39.8249	-18.0123	2.67896
-39.8245	-12.6431	2.69849
-39.8223	-19.9987	2.71802
-39.82	-17.3092	2.73755
-39.819	-11.6148	2.75708
-39.8172	-14.3274	2.77661
-39.8161	-13.9054	2.79614
-39.8135	-10.3284	2.81567
-39.81134	-11.1259	2.83521
-39.8104	-12.0764	2.85474
-39.8109	-5.64301	2.87427
-39.8075	-6.68734	2.8938
-39.8068	-9.45882	2.91333
-39.805	-7.81321	2.93286
-39.802	-0.129411	2.95239
-39.8006	-8.26174	2.97192
-39.7994	-4.53779	2.99146
-39.7973	1.48188	3.01099
-39.7966	-0.0862019	3.03052
-39.7952	-3.24848	3.05005
-39.7929	4.29765	3.06958
-39.7911	-0.0978119	3.08911
-39.791	1.42721	3.10864
-39.789	7.67454	3.12817
-39.7867	7.2842	3.14771
-39.7842	0.08372245	3.16724
-39.7834	9.26295	3.18677
-39.7813	9.26463	3.2063
-39.77943	5.59547	3.22583
-39.7787	7.89152	3.24536
-39.7767	12.5263	3.26489
-39.7758	8.37193	3.28442
-39.7722	11.6965	3.30396
-39.771	15.3961	3.32349
-39.7703	12.6442	3.34302
-39.7684	14.5138	3.36255
-39.7669	18.8181	3.38208
-39.7647	15.7063	3.40161
-39.76368	13.21575	3.42114
-39.7621	20.4263	3.44067
-39.76041	21.4444	3.46021
-39.7587	19.1461	3.47974
-39.75782	20.2144	3.49927
-39.755	24.7822	3.5188
-39.7539	19.6958	3.53833
-39.7512	25.6044	3.55786
-39.7504	26.1712	3.57739
-39.7499	24.4213	3.59692
-39.7481	24.2149	3.61646
-39.7459	32.7493	3.63599
-39.7438	27.1068	3.65552
-39.7426	27.1025	3.67505
-39.7412	33.0409	3.69458
-39.739	32.8547	3.71411
-39.7376	27.0172	3.73364
-39.7365	37.2827	3.75317
-39.7341	34.2837	3.77271
-39.73238	32.9338	3.79224
-39.7306	39.3593	3.81177
-39.7307	39.8784	3.8313
-39.7267	31.8201	3.85083
-39.7267	38.2756	3.87036
-39.7235	43.017	3.88989
-39.723	39.2582	3.90942
-39.7219	40.7386	3.92896
-39.7204	44.2636	3.94849
-39.7172	40.7123	3.96802
-39.7161	40.8133	3.98755
-39.7151	47.2641	4.00708
-39.71299	43.8931	4.02661
-39.7117	47.2617	4.04614
-39.71	49.296	4.06567
-39.7085	49.9502	4.08521
-39.7054	44.7669	4.10474
-39.7048	51.7572	4.12427
-39.7026	53.852	4.1438
-39.7021	51.2182	4.16333
-39.7007	49.2789	4.18286
-39.6981	58.5615	4.20239
-39.6966	53.5922	4.22192
-39.6947	55.2174	4.24146
-39.6925	60.1547	4.26099
-39.69244	56.8347	4.28052
-39.6914	54.837	4.30005
-39.6887	65.6554	4.31958
-39.6867	60.0513	4.33911
-39.6853	57.3306	4.35864
-39.6835	64.682	4.37817
-39.6822	65.0089	4.39771
-39.68111	59.9214	4.41724
-39.679	66.0515	4.43677
-39.6757	66.24897	4.4563
-39.67551	63.4635	4.47583
-39.6745	69.0675	4.49536
-39.6721	72.227	4.51489
-39.67046	65.5084	4.53442
-39.6682	68.7205	4.55396
-39.6671	75.6287	4.57349
-39.6651	71.44873	4.59302
-39.6643	72.9761	4.61255
-39.6641	74.0897	4.63208
-39.6613	73.9846	4.65161
-39.6593	73.80378	4.67114
-39.6581	79.4612	4.69067
-39.6559	78.0222	4.71021
-39.65451	76.3977	4.72974
-39.6532	78.1084	4.74927
-39.65136	83.5057	4.7688
-39.6496	76.1105	4.78833
-39.6489	82.7976	4.80786
-39.6452	87.079	4.82739
-39.6439	84.1584	4.84692
-39.6425	79.4289	4.86646
-39.641	90.66539	4.88599
-39.6396	84.3051	4.90552
-39.6385	86.0887	4.92505
-39.6374	92.9606	4.94458
-39.6347	89.3722	4.96411
-39.6343	83.8943	4.98364
-39.6315	94.6994	5.00317
-39.63	92.5338	5.02271
-39.6287	88.1847	5.04224
-39.6276	95.5232	5.06177
-39.6248	96.6348	5.0813
-39.6226	91.0887	5.10083
-39.6225	97.7652	5.12036
-39.6198	99.4451	5.13989
-39.6189	94.8112	5.15942
-39.6173	100.19	5.17896
-39.614	101.472	5.19849
-39.613	98.9165	5.21802
-39.6119	96.9598	5.23755
-39.61042	105.603	5.25708
-39.6094	102.82	5.27661
-39.6071	101.879	5.29614
-39.6056	104.003	5.31567
-39.6045	107.555	5.33521
-39.6025	102.701	5.35474
-39.6019	110.372	5.37427
-39.5997	110.596	5.3938
-39.5968	107.453	5.41333
-39.594	108.55	5.43286
-39.5946	116.129	5.45239
-39.592	108.484	5.47192
-39.5913	112.851	5.49146
-39.5896	118.369	5.51099
-39.58807	115.702	5.53052
-39.5857	111.07	5.55005
-39.58466	121.462	5.56958
-39.58345	116.758	5.58911
-39.5826	117.095	5.60864
-39.5794	124.5399	5.62817
-39.57819	121.047	5.64771
-39.5756	116.18	5.66724
-39.5744	124.851	5.68677
-39.5726	124.84	5.7063
-39.571	120.979	5.72583
-39.571	126.195	5.74536
-39.5687	128.952	5.76489
-39.5664	125.974	5.78442
-39.5638	126.091	5.80396
-39.5637	130.911	5.82349
-39.5615	128.297	5.84302
-39.5594	131.286	5.86255
-39.5586	133.74	5.88208
-39.557	132.892	5.90161
-39.5548	128.791	5.92114
-39.5539	136.552	5.94067
-39.5522	136.4624	5.96021
-39.5497	133.4966	5.97974
-39.5488	135.635	5.99927
-39.54744	141.7261	6.0188
-39.5454	135.95	6.03833
-39.5438	139.748	6.05786
-39.5425	142.064	6.07739
-39.541	139.454	6.09692
-39.5391	138.592	6.11646
-39.5368	146.876	6.13599
-39.5347	141.0372	6.15552
-39.5344	141.25	6.17505
-39.5325	149.4548	6.19458
-39.532	146.918	6.21411
-39.5302	142.5313	6.23364
-39.5284	150.233	6.25317
-39.5265	149.354	6.27271
-39.5252	144.815	6.29224
-39.5218	153.013	6.31177
-39.5202	152.549	6.3313
-39.5197	148.107	6.35083
-39.5181	153.807	6.37036
-39.5167	157.751	6.38989
-39.5138	152.035	6.40942
-39.514	155.813	6.42896
-39.5112	158.5332	6.44849
-39.5091	157.478	6.46802
-39.5084	155.812	6.48755
-39.5052	161.6748	6.50708
-39.5055	159.915	6.52661
-39.5031	161.592	6.54614
-39.50061	162.832	6.56567
-39.4998	165.661	6.58521
-39.4975	157.78	6.60474
-39.4968	166.814	6.62427
-39.4952	168.849	6.6438
-39.4932	166.615	6.66333
-39.4925	162.713	6.68286
-39.4894	172.3894	6.70239
-39.4878	164.592	6.72192
-39.487	169.39	6.74146
-39.4845	173.189	6.76099
-39.4832	170.28	6.78052
-39.4821	166.021	6.80005
-39.4804	177.553	6.81958
-39.4784	172.517	6.83911
-39.4778	170.958	6.85864
-39.4756	179.0204	6.87817
-39.4728	177.354	6.89771
-39.4717	172.356	6.91724
-39.4708	179.003	6.93677
-39.4696	180.672	6.9563
-39.4674	176.088	6.97583
-39.4665	182.067	6.99536
-39.46452	183.052	7.01489
-39.4634	179.4893	7.03442
-39.4602	184.045	7.05396
-39.4593	189.424	7.07349
-39.4575	184.742	7.09302
-39.456	184.1	7.11255
-39.4551	187.34	7.13208
-39.452	189.1342	7.15161
-39.451	184.5645	7.17114
-39.4481	193.362	7.19067
-39.4479	192.223	7.21021
-39.4465	191.033	7.22974
-39.4446	190.252	7.24927
-39.4435	196.067	7.2688
-39.4408	188.917	7.28833
-39.4393	195.92	7.30786
-39.4383	200.848	7.32739
-39.4363	195.162	7.34692
-39.4348	193.299	7.36646
-39.4339	203.0652	7.38599
-39.4315	198.456	7.40552
-39.4301	198.69	7.42505
-39.4276	204.926	7.44458
-39.4276	201.213	7.46411
-39.426	199.297	7.48364
-39.4238	207.694	7.50317
-39.4214	205.689	7.52271
-39.4212	200.609	7.54224
-39.4181	208.437	7.56177
-39.4173	210.739	7.5813
-39.4154	205.107	7.60083
-39.4137	206.855	7.62036
-39.4124	211.489	7.63989
-39.4109	209.007	7.65942
-39.4089	213.0863	7.67896
-39.4073	212.703	7.69849
-39.40641	211.814	7.71802
-39.4037	211.733	7.73755
-39.4015	219.436	7.75708
-39.4001	215.921	7.77661
-39.3994	213.073	7.79614
-39.3979	217.845	7.81567
-39.3947	220.922	7.83521
-39.3938	214.728	7.85474
-39.3924	220.508	7.87427
-39.392	224.099	7.8938
-39.3893	219.437	7.91333
-39.3885	221.074	7.93286
-39.3865	228.525	7.95239
-39.3853	220.615	7.97192
-39.3828	224.545	7.99146
-39.3811	229.889	8.01099
-39.37933	225.034	8.03052
-39.3784	222.2793	8.05005
-39.3762	231.472	8.06958
-39.3749	231.645	8.08911
-39.3724	226.949	8.10864
-39.371	234.833	8.12817
-39.3693	230.592	8.14771
-39.3669	228.537	8.16724
-39.367	235.844	8.18677
-39.3653	237.472	8.2063
-39.364	231.379	8.22583
-39.3604	236.45	8.24536
-39.3589	237.556	8.26489
-39.3585	236.518	8.28442
-39.3573	235.004	8.30396
-39.3541	243.405	8.32349
-39.3531	239.139	8.34302
-39.352	241.131	8.36255
-39.3509	242.566	8.38208
-39.3493	243.586	8.40161
-39.347	239.298	8.42114
-39.3451	248.236	8.44067
-39.3438	247.931	8.46021
-39.34269	243.39	8.47974
-39.3405	245.02	8.49927
-39.3393	251.761	8.5188
-39.3372	244.883	8.53833
-39.3346	248.606	8.55786
-39.3347	252.73	8.57739
-39.3332	248.103	8.59692
-39.3303	248.926	8.61646
-39.3288	255.907	8.63599
-39.3277	250.502	8.65552
-39.3255	251.447	8.67505
-39.3239	260.786	8.69458
-39.3219	254.5182	8.71411
-39.3211	251.524	8.73364
-39.3201	258.76	8.75317
-39.3169	259.092	8.77271
-39.3169	255.3	8.79224
-39.3147	261.804	8.81177
-39.3125	261.2	8.8313
-39.312	257.961	8.85083
-39.3089	262.0661	8.87036
-39.3079	267.5556	8.88989
-39.3062	261.395	8.90942
-39.304	263.897	8.92896
-39.3041	267.205	8.94849
-39.3019	266.467	8.96802
-39.30014	263.049	8.98755
-39.2994	271.9325	9.00708
-39.2969	268.833	9.02661
-39.2947	267.88	9.04614
-39.2937	269.552	9.06567
-39.29126	272.157	9.08521
-39.2907	268.3298	9.10474
-39.2887	275.297	9.12427
-39.2863	276.246	9.1438
-39.2846	270.734	9.16333
-39.2831	272.355	9.18286
-39.2822	279.9368	9.20239
-39.2805	274.6	9.22192
-39.2792	276.692	9.24146
-39.2773	281.735	9.26099
-39.2752	277.846	9.28052
-39.2735	276.416	9.30005
-39.2713	284.668	9.31958
-39.2708	281.0603	9.33911
-39.26825	278.5755	9.35864
-39.2669	287.235	9.37817
-39.2655	285.109	9.39771
-39.263	281.951	9.41724
-39.2618	284.875	9.43677
-39.2602	289.2616	9.4563
-39.2595	286.144	9.47583
-39.2575	289.616	9.49536
-39.25605	289.8768	9.51489
-39.254	290.766	9.53442
-39.2525	290.1579	9.55396
-39.2506	295.353	9.57349
-39.25	291.263	9.59302
-39.2473	291.734	9.61255
-39.246	294.391	9.63208
-39.24435	298.487	9.65161
-39.24284	291.236	9.67114
-39.2415	298.1908	9.69067
-39.2377	298.0004	9.71021
-39.238	296.256	9.72974
-39.2372	298.511	9.74927
-39.2344	302.26	9.7688
-39.2348	296.525	9.78833
-39.2319	300.786	9.80786
-39.2311	304.681	9.82739
-39.2287	298.3718	9.84692
-39.22588	299.323	9.86646
-39.2249	307.054	9.88599
-39.2237	303.763	9.90552
-39.22266	300.726	9.92505
-39.221	308.564	9.94458
-39.2182	303.92	9.96411
-39.2166	304.089	9.98364
-39.2156	310.498	10.0032
-39.2134	310.875	10.0227
-39.2124	306.168	10.0422
-39.2098	314.239	10.0618
-39.2092	310.431	10.0813
-39.2078	309.6459	10.10083
-39.205	309.935	10.1204
-39.2041	317.321	10.1399
-39.2025	312.1879	10.1594
-39.201	314.573	10.179
-39.1997	315.701	10.1985
-39.1976	316.549	10.218
-39.1956	313.52	10.2375
-39.1934	320.53	10.25708
-39.1937	319.159	10.2766
-39.1912	314.544	10.2961
-39.1881	320.825	10.3157
-39.1867	323.775	10.3352
-39.1854	317.002	10.3547
-39.18475	321.881	10.3743
-39.1832	328.409	10.3938
-39.1814	321.734	10.41333
-39.1795	323.0076	10.4329
-39.1786	326.39	10.4524
-39.175	323.995	10.4719
-39.1745	323.539	10.4915
-39.17276	333.295	10.511
-39.1702	323.866	10.5305
-39.17046	325.038	10.55
-39.1689	332.288	10.56958
-39.1659	331.611	10.5891
-39.1648	327.44	10.6086
-39.1625	335.129	10.6282
-39.16127	331.856	10.6477
-39.16021	331.8967	10.6672
-39.1581	334.188	10.6868
-39.1558	337.816	10.7063
-39.154	331.939	10.72583
-39.1534	337.876	10.7454
-39.1517	338.4556	10.7649
-39.1497	338.201	10.7844
-39.1482	334.782	10.804
-39.147	342.197	10.8235
-39.1462	339.547	10.843
-39.1444	339.45	10.8625
-39.1438	342.2648	10.88208
-39.1399	343.002	10.9016
-39.139	339.807	10.9211
-39.138	346.6174	10.9407
-39.1362	346.68	10.9602
-39.1342	339.637	10.9797
-39.1326	344.0242	10.9993
-39.1308	347.504	11.0188
-39.13018	342.115	11.03833
-39.1274	346.486	11.0579
-39.1263	351.752	11.0774
-39.1236	345.077	11.0969
-39.1233	347.818	11.1165
-39.11998	352.4285	11.136
-39.12011	347.529	11.1555
-39.1176	348.665	11.175
-39.1153	358.48	11.19458
-39.11438	350.263	11.2141
-39.1128	350.52	11.2336
-39.1114	355.922	11.2532
-39.1095	357.41	11.2727
-39.1081	353.519	11.2922
-39.1077	358.029	11.3118
-39.1045	355.576	11.3313
-39.1032	356.097	11.35083
-39.1019	357.14	11.3704
-39.1006	362.394	11.3899
-39.0986	356.395	11.4094
-39.0978	360.356	11.429
-39.0944	362.597	11.4485
-39.0925	361.033	11.468
-39.0922	358.809	11.4875
-39.0898	365.309	11.50708
-39.08894	366.333	11.5266
-39.0858	362.477	11.5461
-39.0849	363.897	11.5657
-39.0835	367.2308	11.5852
-39.0823	362.982	11.6047
-39.0804	367.414	11.6243
-39.0779	369.493	11.6438
-39.0772	362.216	11.66333
-39.0747	368.914	11.6829
-39.0736	373.997	11.7024
-39.072	367.872	11.7219
-39.0699	368.469	11.7415
-39.0686	375.768	11.761
-39.0669	368.779	11.7805
-39.0655	370.664	11.8
-39.06398	374.82	11.81958
-39.0629	372.94	11.8391
-39.0613	372.553	11.8586
-39.0594	380.831	11.8782
-39.0563	372.9054	11.8977
-39.0556	373.0885	11.9172
-39.0545	378.602	11.9368
-39.0524	380.868	11.9563
-39.0515	375.442	11.97583
-39.0495	379.938	11.9954
-39.0467	379.223	12.0149
-39.0448	378.883	12.0344
-39.04414	379.174	12.054
-39.0431	382.553	12.0735
-39.0415	379.936	12.093
-39.0396	379.826	12.1125
-39.0375	384.718	12.13208
-39.0361	383.81	12.1516
-39.0345	377.747	12.1711
-39.0332	384.178	12.1907
-39.0323	386.2612	12.2102
-39.0303	381.645	12.2297
-39.0282	384.473	12.2493
-39.0264	388.257	12.2688
-39.0239	383.978	12.28833
-39.0242	387.174	12.3079
-39.0211	393.198	12.3274
-39.0205	383.433	12.3469
-39.0182	388.402	12.3665
-39.0163	392.135	12.386
-39.0154	388.689	12.4055
-39.0131	386.639	12.425
-39.0123	395.155	12.44458
-39.0111	389.722	12.4641
-39.0085	390.571	12.4836
-39.0068	393.814	12.5032
-39.006	392.952	12.5227
-39.0042	392.586	12.5422
-39.0027	397.736	12.5618
-39.0002	392.897	12.5813
-38.99807	392.1152	12.60083
-38.9978	394.098	12.6204
-38.9956	399.915	12.6399
-38.9941	394.849	12.6594
-38.9921	395.401	12.679
-38.9902	397.275	12.6985
-38.989	396.848	12.718
-38.9873	394.166	12.7375
-38.986	400.399	12.75708
-38.9841	398.835	12.7766
-38.9819	395.967	12.7961
-38.9809	402.037	12.8157
-38.97876	401.558	12.8352
-38.9782	396.1972	12.8547
-38.9753	400.919	12.8743
-38.9746	405.633	12.8938
-38.9734	397.563	12.91333
-38.9703	403.1412	12.9329
-38.97044	402.909	12.9524
-38.96899	402.375	12.9719
-38.9667	402.217	12.9915
-38.9653	409.686	13.011
-38.9628	401.491	13.0305
-38.9619	404.898	13.05
-38.9599	408.666	13.06958
-38.9583	407.492	13.0891
-38.95668	404.656	13.1086
-38.9551	409.209	13.1282
-38.9528	406.023	13.1477
-38.9525	405.99	13.1672
-38.9495	408.095	13.1868
-38.9492	409.894	13.2063
-38.9477	406.826	13.22583
-38.9454	410.633	13.2454
-38.9451	409.839	13.2649
-38.94154	406.683	13.2844
-38.9412	408.009	13.304
-38.938	413.417	13.3235
-38.9367	410.6	13.343
-38.9351	409.297	13.3625
-38.9335	412.957	13.38208
-38.9322	410.3031	13.4016
-38.9295	410.974	13.4211
-38.9306	414.933	13.4407
-38.92738	414.595	13.4602
-38.9255	406.935	13.4797
-38.9238	416.2634	13.4993
-38.9224	418.533	13.5188
-38.9213	409.402	13.53833
-38.919	414.951	13.5579
-38.9175	420.8942	13.5774
-38.9162	411.3241	13.5969
-38.9139	416.226	13.6165
-38.9122	418.145	13.636
-38.9118	415.876	13.6555
-38.9097	415.849	13.675
-38.9065	422.89	13.69458
-38.9075	413.9985	13.7141
-38.9057	415.412	13.7336
-38.9028	420.352	13.7532
-38.9006	418.672	13.7727
-38.8985	414.108	13.7922
-38.8974	419.106	13.8118
-38.89563	419.763	13.8313
-38.8944	416.956	13.85083
-38.8925	417.366	13.8704
-38.891	420.605	13.8899
-38.8905	417.893	13.9094
-38.88829	418.808	13.929
-38.8852	421.778	13.9485
-38.8852	418.384	13.968
-38.8827	417.139	13.9875
-38.8825	423.61	14.00708
-38.8803	422.047	14.0266
-38.8777	417.663	14.0461
-38.87669	424.1633	14.0657
-38.8744	422.371	14.0852
-38.8735	419.215	14.1047
-38.8715	422.448	14.1243
-38.8697	424.568	14.1438
-38.8685	416.486	14.16333
-38.868	426.353	14.1829
-38.8647	424.566	14.2024
-38.8641	419.785	14.2219
-38.8626	422.886	14.2415
-38.8606	428.222	14.261
-38.858	420.629	14.2805
-38.8559	422.729	14.3
-38.8564	425.44	14.31958
-38.854	424.661	14.3391
-38.8522	422.914	14.3586
-38.8511	428.354	14.3782
-38.8503	422.353	14.3977
-38.8471	420.889	14.4172
-38.8465	426.191	14.4368
-38.8442	427.972	14.4563
-38.8428	423.499	14.47583
-38.8418	425.246	14.4954
-38.8379	426.751	14.5149
-38.8377	425.144	14.5344
-38.8363	424.374	14.554
-38.835	425.753	14.5735
-38.8325	426.345	14.593
-38.8316	423.298	14.6125
-38.8311	428.778	14.63208
-38.8279	423.3244	14.6516
-38.8264	422.6279	14.6711
-38.8256	428.866	14.6907
-38.8239	429.95	14.7102
-38.8214	421.288	14.7297
-38.8208	427.953	14.7493
-38.8182	427.7056	14.7688
-38.8158	424.209	14.78833
-38.8146	428.167	14.8079
-38.813	430.885	14.8274
-38.8111	422.85	14.8469
-38.8108	427.811	14.8665
-38.808	429.108	14.886
-38.8066	425.0553	14.9055
-38.8056	424.4548	14.925
-38.8039	432.173	14.94458
-38.8015	425.454	14.9641
-38.7998	427.039	14.9836
-38.7994	428.022	15.0032
-38.7969	427.312	15.0227
-38.796	426.392	15.0422
-38.7936	431.077	15.0618
-38.792	428.514	15.0813
-38.7908	425.337	15.10083
-38.7892	429.2529	15.1204
-38.7869	431.6864	15.1399
-38.78516	427.469	15.1594
-38.784	424.972	15.179
-38.783	431.781	15.1985
-38.7818	427.385	15.218
-38.7789	425.942	15.2375
-38.7773	430.543	15.25708
-38.7761	428.755	15.2766
-38.7739	425.356	15.2961
-38.7733	431.658	15.3157
-38.7709	428.252	15.3352
-38.7699	425.8334	15.3547
-38.76804	429.731	15.3743
-38.7655	434.913	15.3938
-38.7651	421.862	15.41333
-38.7631	430.168	15.4329
-38.76207	431.47	15.4524
-38.7594	427.683	15.4719
-38.7578	429.531	15.4915
-38.7558	434.4386	15.511
-38.7551	426.118	15.5305
-38.7532	429.0687	15.55
-38.7506	433.724	15.56958
-38.7497	429.552	15.5891
-38.7477	425.671	15.6086
-38.7461	433.4949	15.6282
-38.7443	428.957	15.6477
-38.7448	426.934	15.6672
-38.7414	430.395	15.6868
-38.7404	431.268	15.7063
-38.73888	427.037	15.72583
-38.7365	429.998	15.7454
-38.736	430.385	15.7649
-38.7329	426.16	15.7844
-38.73143	427.665	15.804
-38.7306	430.868	15.8235
-38.7293	429.883	15.843
-38.7271	424.278	15.8625
-38.7253	432.801	15.88208
-38.7237	429.051	15.9016
-38.72163	425.455	15.9211
-38.7201	430.431	15.9407
-38.7186	430.244	15.9602
-38.7174	424.993	15.9797
-38.7152	431.96	15.9993
-38.7151	431.3847	16.0188
-38.7128	426.12	16.03833
-38.7105	430.247	16.0579
-38.7085	433.077	16.0774
-38.7075	423.603	16.0969
-38.7058	428.487	16.1165
-38.7036	431.227	16.136
-38.7035	427.821	16.1555
-38.70079	427.723	16.175
-38.6989	430.617	16.19458
-38.6972	424.568	16.2141
-38.6966	427.163	16.2336
-38.6941	431.506	16.2532
-38.6931	426.6821	16.2727
-38.6918	425.361	16.2922
-38.6897	429.106	16.3118
-38.6873	430.316	16.3313
-38.6855	425.893	16.35083
-38.6846	425.082	16.3704
-38.6834	429.752	16.3899
-38.6813	426.73	16.4094
-38.6792	425.069	16.429
-38.678	431.7677	16.4485
-38.6765	424.872	16.468
-38.6759	424.783	16.4875
-38.6728	431.309	16.50708
-38.6726	429.802	16.5266
-38.6707	421.255	16.5461
-38.6684	430.277	16.5657
-38.6667	427.9783	16.5852
-38.6645	424.487	16.6047
-38.6639	427.317	16.6243
-38.6628	428.513	16.6438
-38.6608	420.452	16.66333
-38.658	429.574	16.6829
-38.6566	429.319	16.7024
-38.655	422.1777	16.7219
-38.65358	424.644	16.7415
-38.6525	431.022	16.761
-38.6495	424.023	16.7805
-38.6486	423.414	16.8
-38.647	428.383	16.81958
-38.6456	426.107	16.8391
-38.6438	425.562	16.8586
-38.6426	426.573	16.8782
-38.6407	424.437	16.8977
-38.6385	423.624	16.9172
-38.6379	426.515	16.9368
-38.6368	426.786	16.9563
-38.6336	421.945	16.97583
-38.63176	424.531	16.9954
-38.63	429.073	17.0149
-38.6297	423.64	17.0344
-38.6278	423.432	17.054
-38.6251	428.699	17.0735
-38.6235	423.854	17.093
-38.6238	420.0885	17.1125
-38.6211	428.932	17.13208
-38.6197	421.852	17.1516
-38.6175	420.476	17.1711
-38.6163	428.0647	17.1907
-38.6133	426.321	17.2102
-38.6135	417.021	17.2297
-38.6107	426.293	17.2493
-38.6106	425.923	17.2688
-38.6085	420.47	17.28833
-38.606	425.408	17.3079
-38.606	427.256	17.3274
-38.6041	418.443	17.3469
-38.6017	422.97	17.3665
-38.5997	425.655	17.386
-38.5982	421.45	17.4055
-38.5963	420.155	17.425
-38.5951	427.127	17.44458
-38.5939	421.189	17.4641
-38.5924	419.494	17.4836
-38.59	425.049	17.5032
-38.5872	422.973	17.5227
-38.5867	420.974	17.5422
-38.5859	422.654	17.5618
-38.5842	422.641	17.5813
-38.58226	417.67	17.60083
-38.5798	422.7413	17.6204
-38.5786	425.465	17.6399
-38.5773	420.427	17.6594
-38.5768	416.668	17.679
-38.5734	426.663	17.6985
-38.5726	419.688	17.718
-38.5689	418.874	17.7375
-38.5687	424.337	17.75708
-38.5668	422.567	17.7766
-38.5658	415.485	17.7961
-38.5646	426.231	17.8157
-38.5629	420.82	17.8352
-38.5613	419.655	17.8547
-38.5589	423.906	17.8743
-38.5579	424.903	17.8938
-38.5564	414.458	17.91333
-38.55476	421.712	17.9329
-38.5528	424.17	17.9524
-38.5504	419.585	17.9719
-38.5496	420.693	17.9915
-38.548	423.2258	18.011
-38.5462	415.838	18.0305
-38.5452	419.087	18.05
-38.54435	423.271	18.06958
-38.54348	418.48	18.0891
-38.54	417.729	18.1086
-38.53759	420.79	18.1282
-38.5366	420.744	18.1477
-38.5346	415.678	18.1672
-38.5329	420.366	18.1868
-38.5316	420.642	18.2063
-38.5303	417.475	18.22583
-38.5295	416.318	18.2454
-38.52626	422.6528	18.2649
-38.5242	415.776	18.2844
-38.5245	418.4115	18.304
-38.5208	423.488	18.3235
-38.5196	417.553	18.343
-38.51907	413.283	18.3625
-38.5174	424.5	18.38208
-38.5151	417.767	18.4016
-38.5141	415.31	18.4211
-38.5127	419.777	18.4407
-38.5107	421.425	18.4602
-38.5096	412.5513	18.4797
-38.5066	420.897	18.4993
-38.5053	420.265	18.5188
-38.5043	414.753	18.53833
-38.5016	418.96	18.5579
-38.4999	421.272	18.5774
-38.4998	413.312	18.5969
-38.497	415.576	18.6165
-38.4956	421.739	18.636
-38.4954	415.831	18.6555
-38.49297	415.405	18.675
-38.4904	418.398	18.69458
-38.4887	414.518	18.7141
-38.488	414.371	18.7336
-38.4872	420.1304	18.7532
-38.484	415.499	18.7727
-38.4826	413.894	18.7922
-38.48	416.021	18.8118
-38.4802	420.859	18.8313
-38.4789	412.159	18.85083
-38.4771	416.356	18.8704
-38.475	420.224	18.8899
-38.4728	416.199	18.9094
-38.472	412.251	18.929
-38.4704	422.112	18.9485
-38.4681	413.656	18.968
-38.46645	413.763	18.9875
-38.4642	421.353	19.00708
-38.4634	415.384	19.0266
-38.4608	408.851	19.0461
-38.4591	419.755	19.0657
-38.458	416.506	19.0852
-38.4565	413.284	19.1047
-38.4543	417.577	19.1243
-38.4524	418.328	19.1438
-38.4516	411.428	19.16333
-38.4503	416.275	19.1829
-38.4504	418.593	19.2024
-38.44656	411.439	19.2219
-38.4449	415.713	19.2415
-38.4441	418.653	19.261
-38.4424	412.688	19.2805
-38.441	412.729	19.3
-38.4383	418.9614	19.31958
-38.4371	415.384	19.3391
-38.4348	413.912	19.3586
-38.4341	414.8891	19.3782
-38.4325	417.145	19.3977
-38.4308	411.765	19.4172
-38.4296	416.848	19.4368
-38.4272	417.094	19.4563
-38.426	413.821	19.47583
-38.4252	412.924	19.4954
-38.4231	422.33	19.5149
-38.4209	411.621	19.5344
-38.4182	413.94	19.554
-38.41787	419.365	19.5735
-38.4162	414.832	19.593
-38.4146	409.102	19.6125
-38.4133	420.65	19.63208
-38.41132	414.431	19.6516
-38.4103	413.057	19.6711
-38.4079	418.8876	19.6907
-38.406	417.659	19.7102
-38.4037	408.222	19.7297
-38.40377	417.987	19.7493
-38.4021	417.761	19.7688
-38.4003	410.098	19.78833
-38.3984	415.504	19.8079
-38.3965	417.0029	19.8274
-38.3958	412.287	19.8469
-38.3934	414.074	19.8665
-38.3908	416.698	19.886
-38.38929	410.591	19.9055
-38.38921	413.387	19.925
-38.3873	415.923	19.94458
-38.3854	413.964	19.9641
-38.38401	409.8302	19.9836
-38.3817	416.744	20.0032
-38.3823	416	20.0129

Data Header:			0.254_hd_uprint_typeiv_090_r0			Time:	29.32373	s	4/13/2019 11:14:17 PM
Data Acquisition:	Timed
Station Name:	ft40.cfg
Test File Name:	monotonic_0.2540_typeiv_solid_4545_uprint.tst
Displacement	Force	Running Time
mm	N	s
-38.3801	415.374	20.0227
-38.3796	411.431	20.0325
-38.3784	412.147	20.0422
-38.37682	412.839	20.052
-38.3765	410.98	20.0618
-38.3768	418.3847	20.0715
-38.3762	417.588	20.0813
-38.3743	413.435	20.0911
-38.3735	408.866	20.10083
-38.3737	409.408	20.1106
-38.3712	414.404	20.1204
-38.371	414.092	20.1301
-38.3708	416.956	20.1399
-38.3698	416.886	20.1497
-38.3697	412.831	20.1594
-38.3685	411.229	20.1692
-38.3682	409.821	20.179
-38.3666	413.721	20.1887
-38.3647	418.7341	20.1985
-38.366	414.571	20.2083
-38.3633	410.034	20.218
-38.3633	409.04	20.2278
-38.3623	411.0152	20.2375
-38.3613	414.408	20.2473
-38.3607	416.503	20.25708
-38.361	415.551	20.2668
-38.3595	413.813	20.2766
-38.3581	411.191	20.2864
-38.3577	408.015	20.2961
-38.3575	412.451	20.3059
-38.3569	415.191	20.3157
-38.3548	418.655	20.3254
-38.3549	413.5408	20.3352
-38.3539	409.833	20.345
-38.3512	411.228	20.3547
-38.3521	411.849	20.3645
-38.3503	416.567	20.3743
-38.3499	416.046	20.384
-38.3496	415.1835	20.3938
-38.3483	413.12	20.4036
-38.3474	408.785	20.41333
-38.3474	412.681	20.4231
-38.346	414.344	20.4329
-38.3457	417.562	20.4426
-38.34507	417.929	20.4524
-38.3448	410.042	20.4622
-38.3422	412.1304	20.4719
-38.3422	412.241	20.4817
-38.3404	413.297	20.4915
-38.33884	414.813	20.5012
-38.3392	415.35	20.511
-38.3384	414.224	20.5208
-38.3387	411.595	20.5305
-38.3375	408.899	20.5403
-38.3373	411.885	20.55
-38.3356	415.895	20.5598
-38.3354	416.396	20.56958
-38.3331	413.4375	20.5793
-38.3327	411.689	20.5891
-38.3326	412.587	20.5989
-38.331	411.073	20.6086
-38.33075	411.649	20.6184
-38.3295	414.736	20.6282
-38.32988	416.234	20.6379
-38.3289	414.847	20.6477
-38.3268	411.8414	20.6575
-38.3268	407.2236	20.6672
-38.3254	411.322	20.677
-38.3248	414.7583	20.6868
-38.3235	414.503	20.6965
-38.3231	416.068	20.7063
-38.3223	410.92	20.7161
-38.3222	411.497	20.72583
-38.3211	408.539	20.7356
-38.3212	408.915	20.7454
-38.31905	416.247	20.7551
-38.3186	416.377	20.7649
-38.3186	414.664	20.7747
-38.3168	409.517	20.7844
-38.3156	405.853	20.7942
-38.3149	412.541	20.804
-38.3137	413.0834	20.8137
-38.3132	416.358	20.8235
-38.313	415.8844	20.8333
-38.311	411.73	20.843
-38.3114	409.51	20.8528
-38.3096	408.016	20.8625
-38.3093	411.2	20.8723
-38.3093	417.515	20.88208
-38.3079	416.992	20.8918
-38.30756	412.3689	20.9016
-38.30751	406.975	20.9114
-38.30621	408.256	20.9211
-38.3055	413.669	20.9309
-38.3043	417.247	20.9407
-38.3031	414.744	20.9504
-38.3026	414.439	20.9602
-38.3008	409.579	20.97
-38.3004	408.279	20.9797
-38.29948	410.076	20.9895
-38.2976	413.7403	20.9993
-38.29821	418.494	21.009
-38.2982	414.093	21.0188
-38.2972	409.0867	21.0286
-38.2964	408.346	21.03833
-38.2951	410.498	21.0481
-38.294	414.67	21.0579
-38.2931	414.132	21.0676
-38.29277	415.329	21.0774
-38.2909	415.859	21.0872
-38.2914	408.221	21.0969
-38.2901	409.591	21.1067
-38.2892	410.692	21.1165
-38.2874	415.566	21.1262
-38.2872	416.541	21.136
-38.2865	410.347	21.1458
-38.2863	410.138	21.1555
-38.285	410.946	21.1653
-38.2846	409.559	21.175
-38.2836	412.119	21.1848
-38.282	413.33	21.19458
-38.2812	414.373	21.2043
-38.2818	414.427	21.2141
-38.28019	409.088	21.2239
-38.2796	408.006	21.2336
-38.2793	412.953	21.2434
-38.27737	415.119	21.2532
-38.27779	414.495	21.2629
-38.2769	411.215	21.2727
-38.2761	411.214	21.2825
-38.2753	408.555	21.2922
-38.2734	408.427	21.302
-38.2719	410.899	21.3118
-38.27145	414.526	21.3215
-38.2712	415.635	21.3313
-38.26992	412.344	21.3411
-38.27	406.8168	21.35083
-38.2689	408.466	21.3606
-38.2687	411.95	21.3704
-38.2676	413.201	21.3801
-38.2673	415.562	21.3899
-38.26635	410.975	21.3997
-38.2651	411.625	21.4094
-38.2634	407.8382	21.4192
-38.2642	407.5379	21.429
-38.2616	412.111	21.4387
-38.2625	415.893	21.4485
-38.2602	416.3595	21.4583
-38.2604	410.988	21.468
-38.259	406.238	21.4778
-38.2589	409.317	21.4875
-38.2581	413.242	21.4973
-38.2572	415.5123	21.50708
-38.2563	415.067	21.5168
-38.2549	410.853	21.5266
-38.2538	410.138	21.5364
-38.2526	406.619	21.5461
-38.2513	411.146	21.5559
-38.2519	416.255	21.5657
-38.2509	415.911	21.5754
-38.2492	414.163	21.5852
-38.2498	408.2243	21.595
-38.2485	407.79	21.6047
-38.2464	411.563	21.6145
-38.2465	414.8649	21.6243
-38.246	414.569	21.634
-38.247	414.629	21.6438
-38.2439	410.504	21.6536
-38.24284	406.226	21.66333
-38.2422	410.074	21.6731
-38.2428	410.917	21.6829
-38.2414	418.204	21.6926
-38.2405	414.571	21.7024
-38.2391	410.828	21.7122
-38.238	408.502	21.7219
-38.238	409.238	21.7317
-38.2379	412.444	21.7415
-38.2351	411.004	21.7512
-38.2353	413.791	21.761
-38.2353	411.96	21.7708
-38.2334	409.217	21.7805
-38.233	409.34	21.7903
-38.2324	408.098	21.8
-38.2318	412.045	21.8098
-38.23016	415.239	21.81958
-38.2295	412.213	21.8293
-38.2285	410.586	21.8391
-38.2282	409.228	21.8489
-38.2269	408.749	21.8586
-38.2273	410.634	21.8684
-38.2265	412.786	21.8782
-38.2249	414.097	21.8879
-38.2245	414.1405	21.8977
-38.2222	410.5412	21.9075
-38.223	407.584	21.9172
-38.2212	406.392	21.927
-38.2215	414.064	21.9368
-38.221	413.376	21.9465
-38.2204	413.738	21.9563
-38.218	410.63	21.9661
-38.2166	407.976	21.97583
-38.2171	408.454	21.9856
-38.2174	408.975	21.9954
-38.215	412.747	22.0051
-38.2153	417.003	22.0149
-38.2151	415.283	22.0247
-38.2123	406.937	22.0344
-38.2097	406.669	22.0442
-38.2107	409.157	22.054
-38.2108	413.471	22.0637
-38.2089	417.255	22.0735
-38.20863	412.227	22.0833
-38.20771	410.0881	22.093
-38.2079	405.562	22.1028
-38.2045	404.674	22.1125
-38.2051	411.872	22.1223
-38.2041	412.614	22.13208
-38.2031	416.181	22.1418
-38.203	410.325	22.1516
-38.2033	405.421	22.1614
-38.2009	407.577	22.1711
-38.2001	412.17	22.1809
-38.2002	414.808	22.1907
-38.1978	413.333	22.2004
-38.1985	411.104	22.2102
-38.1985	410.0694	22.22
-38.1956	404.838	22.2297
-38.1953	409.636	22.2395
-38.194	412.9537	22.2493
-38.1934	415.116	22.259
-38.1927	413.403	22.2688
-38.1925	406.8035	22.2786
-38.1918	406.092	22.28833
-38.1914	411.695	22.2981
-38.1899	412.258	22.3079
-38.1891	412.361	22.3176
-38.1882	413.687	22.3274
-38.1885	409.916	22.3372
-38.1863	407.127	22.3469
-38.1868	408.372	22.3567
-38.1855	407.792	22.3665
-38.1838	414.724	22.3762
-38.1841	412.941	22.386
-38.1832	410.295	22.3958
-38.1823	407.275	22.4055
-38.1814	406.793	22.4153
-38.1801	410.922	22.425
-38.18	409.914	22.4348
-38.1784	412.643	22.44458
-38.1774	413.921	22.4543
-38.1772	410.241	22.4641
-38.1759	409.079	22.4739
-38.1741	406.3371	22.4836
-38.1753	410.678	22.4934
-38.1742	415.372	22.5032
-38.1734	412.912	22.5129
-38.1723	413.6843	22.5227
-38.17054	409.004	22.5325
-38.17075	408.87	22.5422
-38.16935	408.8197	22.552
-38.1692	408.95	22.5618
-38.1677	414.919	22.5715
-38.1675	415.941	22.5813
-38.1671	410.354	22.5911
-38.1656	405.242	22.60083
-38.164	405.189	22.6106
-38.1639	411.093	22.6204
-38.16291	411.092	22.6301
-38.162	413.209	22.6399
-38.1621	410.382	22.6497
-38.1609	406.805	22.6594
-38.1606	405.996	22.6692
-38.1588	407.058	22.679
-38.1587	410.241	22.6887
-38.1575	415.443	22.6985
-38.156	414.816	22.7083
-38.1554	406.373	22.718
-38.1562	404.726	22.7278
-38.1547	407.307	22.7375
-38.1533	410.955	22.7473
-38.152	413.999	22.75708
-38.1513	410.508	22.7668
-38.1509	409.115	22.7766
-38.1495	408.722	22.7864
-38.1501	404.9852	22.7961
-38.1492	409.473	22.8059
-38.1471	411.643	22.8157
-38.1465	415.347	22.8254
-38.1458	411.813	22.8352
-38.14473	404.205	22.845
-38.1438	407.296	22.8547
-38.142	408.692	22.8645
-38.1425	412.499	22.8743
-38.1421	412.783	22.884
-38.1413	408.527	22.8938
-38.13969	410.928	22.9036
-38.14019	406.088	22.91333
-38.13821	407.882	22.9231
-38.1389	408.559	22.9329
-38.1372	413.737	22.9426
-38.1365	414.116	22.9524
-38.1358	408.856	22.9622
-38.1344	405.857	22.9719
-38.1328	409.046	22.9817
-38.1328	410.137	22.9915
-38.13142	413.363	23.0012
-38.1316	410.3577	23.011
-38.1307	410.531	23.0208
-38.12973	409.761	23.0305
-38.1297	407.109	23.0403
-38.128	405.897	23.05
-38.12682	410.97	23.0598
-38.1266	413.172	23.06958
-38.1255	412.712	23.0793
-38.1256	409.972	23.0891
-38.124	405.235	23.0989
-38.1239	407.714	23.1086
-38.122	408.005	23.1184
-38.1227	410.162	23.1282
-38.1209	413.049	23.1379
-38.1198	410.737	23.1477
-38.1186	409.645	23.1575
-38.1184	404.178	23.1672
-38.11655	408.466	23.177
-38.1159	412.176	23.1868
-38.1173	412.059	23.1965
-38.1159	413.455	23.2063
-38.114	408.204	23.2161
-38.1138	407.469	23.22583
-38.11171	407.189	23.2356
-38.1117	405.944	23.2454
-38.11208	411.54	23.2551
-38.1095	415.525	23.2649
-38.1095	410.884	23.2747
-38.1078	406.481	23.2844
-38.1071	403.177	23.2942
-38.1081	410.28	23.304
-38.1065	411.69	23.3137
-38.1051	413.911	23.3235
-38.1041	411.507	23.3333
-38.1036	407.47	23.343
-38.1045	406.336	23.3528
-38.1021	404.019	23.3625
-38.1014	409.34	23.3723
-38.1011	414.261	23.38208
-38.0993	414.0574	23.3918
-38.0977	408.939	23.4016
-38.09856	403.944	23.4114
-38.0967	404.837	23.4211
-38.0964	409.87	23.4309
-38.0962	412.209	23.4407
-38.095	410.661	23.4504
-38.09391	410.644	23.4602
-38.0926	405.755	23.47
-38.0921	404.418	23.4797
-38.0918	407.672	23.4895
-38.0899	410.386	23.4993
-38.0896	414.301	23.509
-38.0883	411.31	23.5188
-38.0887	404.679	23.5286
-38.0871	405.576	23.53833
-38.08662	406.0108	23.5481
-38.086	410.526	23.5579
-38.0855	410.638	23.5676
-38.0839	410.011	23.5774
-38.0836	410.3743	23.5872
-38.0824	405.982	23.5969
-38.0813	405.795	23.6067
-38.0802	408.601	23.6165
-38.0799	410.2019	23.6262
-38.0795	413.1424	23.636
-38.0784	407.752	23.6458
-38.0778	407.9823	23.6555
-38.077	406.733	23.6653
-38.0759	407.106	23.675
-38.0755	409.669	23.6848
-38.0753	409.557	23.69458
-38.0736	410.89	23.7043
-38.0723	411.053	23.7141
-38.0712	406.694	23.7239
-38.0709	404.917	23.7336
-38.071	407.997	23.7434
-38.0699	412.489	23.7532
-38.0681	413.204	23.7629
-38.0678	410.508	23.7727
-38.0662	407.549	23.7825
-38.0662	407.2291	23.7922
-38.0645	405.403	23.802
-38.0646	408.359	23.8118
-38.0644	411.522	23.8215
-38.0641	411.961	23.8313
-38.062	409.505	23.8411
-38.0618	403.327	23.85083
-38.0611	404.114	23.8606
-38.0593	407.86	23.8704
-38.0597	411.012	23.8801
-38.0579	412.006	23.8899
-38.0577	407.604	23.8997
-38.0567	405.491	23.9094
-38.0566	406.497	23.9192
-38.0543	403.474	23.929
-38.0536	412.053	23.9387
-38.0528	411.6	23.9485
-38.0524	412.279	23.9583
-38.0516	406.584	23.968
-38.05	401.0983	23.9778
-38.0497	406.93	23.9875
-38.0481	410.205	23.9973
-38.0472	413.441	24.00708
-38.0471	412.055	24.0168
-38.0465	407.247	24.0266
-38.0458	405.584	24.0364
-38.0459	402.939	24.0461
-38.0447	409.155	24.0559
-38.0441	411.956	24.0657
-38.04327	412.861	24.0754
-38.0416	409.487	24.0852
-38.0417	404.125	24.095
-38.0406	401.993	24.1047
-38.0398	408.381	24.1145
-38.0389	409.944	24.1243
-38.038	411.3212	24.134
-38.0367	409.955	24.1438
-38.0353	407.5	24.1536
-38.035	404.823	24.16333
-38.0339	407.604	24.1731
-38.0334	407.145	24.1829
-38.0347	412.602	24.1926
-38.0321	413.2673	24.2024
-38.03183	405.302	24.2122
-38.0301	406.836	24.2219
-38.0293	404.923	24.2317
-38.0286	409.438	24.2415
-38.0268	408.991	24.2512
-38.0285	408.871	24.261
-38.027	411.428	24.2708
-38.02631	406.646	24.2805
-38.025	405.386	24.2903
-38.0236	405.103	24.3
-38.0226	408.088	24.3098
-38.0217	413.22	24.31958
-38.02203	408.561	24.3293
-38.0208	408.185	24.3391
-38.0199	404.652	24.3489
-38.01902	405.488	24.3586
-38.01889	408.126	24.3684
-38.0173	407.948	24.3782
-38.0168	410.923	24.3879
-38.0153	410.337	24.3977
-38.0151	405.508	24.4075
-38.0142	404.603	24.4172
-38.0134	404.614	24.427
-38.0128	409.935	24.4368
-38.0122	413.143	24.4465
-38.01178	411.127	24.4563
-38.0098	406.505	24.4661
-38.0097	405.217	24.47583
-38.0086	405.046	24.4856
-38.00703	405.363	24.4954
-38.0062	410.736	24.5051
-38.006	412.386	24.5149
-38.0052	411.901	24.5247
-38.0042	402.891	24.5344
-38.0047	403.854	24.5442
-38.0031	406.219	24.554
-38.0028	411.276	24.5637
-38.0004	413.797	24.5735
-37.9994	407.563	24.5833
-38.0005	406.753	24.593
-37.9996	404.479	24.6028
-37.9982	403.4198	24.6125
-37.9976	411.245	24.6223
-37.9962	411.38	24.63208
-37.9947	412.627	24.6418
-37.9939	408.6489	24.6516
-37.9928	401.272	24.6614
-37.9929	403.768	24.6711
-37.9915	409.535	24.6809
-37.9911	410.7572	24.6907
-37.9904	411.511	24.7004
-37.9902	408.612	24.7102
-37.9878	406.455	24.72
-37.9881	403.708	24.7297
-37.9876	407.101	24.7395
-37.9866	411.052	24.7493
-37.98518	412.586	24.759
-37.985	412.2916	24.7688
-37.9833	405.495	24.7786
-37.9832	403.734	24.78833
-37.9815	409.976	24.7981
-37.9816	409.122	24.8079
-37.9816	410.832	24.8176
-37.9803	409.433	24.8274
-37.979	408.125	24.8372
-37.9777	406.441	24.8469
-37.9777	404.505	24.8567
-37.9769	404.009	24.8665
-37.9758	411.725	24.8762
-37.9749	411.396	24.886
-37.9741	409.344	24.8958
-37.9735	408.248	24.9055
-37.9726	403.896	24.9153
-37.9713	407.591	24.925
-37.9702	408.139	24.9348
-37.969	407.82	24.94458
-37.9682	410.044	24.9543
-37.96862	407.792	24.9641
-37.9687	406.239	24.9739
-37.96785	401.694	24.9836
-37.9658	406.689	24.9934
-37.9649	411.435	25.0032
-37.9643	408.0769	25.0129
-37.9642	409.865	25.0227
-37.963	406.82	25.0325
-37.96244	404.999	25.0422
-37.9612	405.726	25.052
-37.96085	405.6	25.0618
-37.9595	411.836	25.0715
-37.9592	411.42	25.0813
-37.9576	407.893	25.0911
-37.9579	403.748	25.10083
-37.9575	403.734	25.1106
-37.9556	406.272	25.1204
-37.9537	412.211	25.1301
-37.9533	409.766	25.1399
-37.95285	407.794	25.1497
-37.9516	404.6452	25.1594
-37.95137	404.321	25.1692
-37.95079	403.595	25.179
-37.9495	409.091	25.1887
-37.9491	411.09	25.1985
-37.9485	411.009	25.2083
-37.9476	405.699	25.218
-37.9467	400.752	25.2278
-37.9462	403.646	25.2375
-37.9453	409.892	25.2473
-37.9447	411.763	25.25708
-37.9431	406.4025	25.2668
-37.943	406.191	25.2766
-37.9428	404.801	25.2864
-37.941	401.692	25.2961
-37.9396	408.622	25.3059
-37.9388	407.365	25.3157
-37.9379	410.491	25.3254
-37.9374	408.82	25.3352
-37.9361	400.622	25.345
-37.9362	404.2402	25.3547
-37.9345	406.151	25.3645
-37.9347	408.831	25.3743
-37.934	410.579	25.384
-37.932	405.713	25.3938
-37.9314	405.108	25.4036
-37.9323	405.311	25.41333
-37.9306	404.916	25.4231
-37.9302	404.343	25.4329
-37.9291	407.618	25.4426
-37.92675	409.673	25.4524
-37.9272	405.1748	25.4622
-37.92585	403.088	25.4719
-37.9252	404.2402	25.4817
-37.9246	405.449	25.4915
-37.9234	407.2937	25.5012
-37.92297	407.092	25.511
-37.9225	405.904	25.5208
-37.9215	405.668	25.5305
-37.9207	404.2374	25.5403
-37.9199	402.833	25.55
-37.9183	405.076	25.5598
-37.9173	407.62	25.56958
-37.9184	407.992	25.5793
-37.9166	407.024	25.5891
-37.9147	402.911	25.5989
-37.914	404.847	25.6086
-37.9139	404.441	25.6184
-37.9136	405.741	25.6282
-37.9124	406.548	25.6379
-37.9117	407.682	25.6477
-37.9111	405.095	25.6575
-37.9094	397.5097	25.6672
-37.90876	400.534	25.677
-37.908	406.646	25.6868
-37.907	407.814	25.6965
-37.9069	407.348	25.7063
-37.9061	402.738	25.7161
-37.9054	401.308	25.72583
-37.905	401.493	25.7356
-37.9034	399.759	25.7454
-37.902	406.264	25.7551
-37.9024	404.586	25.7649
-37.901	399.817	25.7747
-37.8998	394.108	25.7844
-37.8999	384.9552	25.7942
-37.8982	375.646	25.804
-37.8979	370.2186	25.8137
-37.8972	362.113	25.8235
-37.8965	350.169	25.8333
-37.8947	278.866	25.843
-37.893	-28.04661	25.8528
-37.8913	-39.66597	25.8625
-37.8899	-52.4052	25.8723
-37.8905	-36.861	25.88208
-37.89	-37.4888	25.8918
-37.8896	-40.2872	25.9016
-37.8896	-48.0874	25.9114
-37.8877	-48.22374	25.9211
-37.8881	-41.4789	25.9309
-37.8873	-37.9729	25.9407
-37.8862	-40.2341	25.9504
-37.8851	-41.6798	25.9602
-37.8835	-43.8515	25.97
-37.88327	-45.8074	25.9797
-37.8823	-41.993	25.9895
-37.8825	-42.2806	25.9993
-37.881	-37.1935	26.009
-37.8799	-39.5093	26.0188
-37.8791	-45.74	26.0286
-37.8774	-44.7224	26.03833
-37.8777	-44.3115	26.0481
-37.8761	-39.5883	26.0579
-37.8757	-40.5392	26.0676
-37.8759	-41.8933	26.0774
-37.87384	-40.0843	26.0872
-37.8733	-43.1699	26.0969
-37.8734	-42.3704	26.1067
-37.8722	-44.3981	26.1165
-37.87159	-40.9674	26.1262
-37.8699	-37.7881	26.136
-37.8693	-42.6314	26.1458
-37.8694	-42.87001	26.1555
-37.86795	-45.5093	26.1653
-37.8672	-45.2463	26.175
-37.8645	-42.5807	26.1848
-37.8661	-42.4553	26.19458
-37.8659	-39.6324	26.2043
-37.8628	-40.8204	26.2141
-37.8637	-44.0092	26.2239
-37.8631	-47.8007	26.2336
-37.8615	-45.0424	26.2434
-37.8606	-40.7635	26.2532
-37.8597	-38.961	26.2629
-37.8599	-41.0802	26.2727
-37.8588	-44.5693	26.2825
-37.85704	-45.5594	26.2922
-37.8573	-45.6529	26.302
-37.8554	-44.3101	26.3118
-37.8549	-40.086	26.3215
-37.8538	-40.4953	26.3313
-37.853	-40.1464	26.3411
-37.8535	-47.6512	26.35083
-37.85265	-49.2202	26.3606
-37.8506	-42.3775	26.3704
-37.8503	-39.4796	26.3801
-37.8505	-37.5936	26.3899
-37.84811	-42.6762	26.3997
-37.8485	-45.4782	26.4094
-37.8466	-44.9966	26.4192
-37.8474	-45.3692	26.429
-37.84486	-39.6993	26.4387
-37.8439	-38.4538	26.4485
-37.8439	-40.1079	26.4583
-37.84407	-42.3796	26.468
-37.8422	-49.9497	26.4778
-37.8424	-45.6716	26.4875
-37.8405	-40.0323	26.4973
-37.8395	-37.7947	26.50708
-37.8377	-41.3744	26.5168
-37.8387	-44.2741	26.5266
-37.8375	-46.012	26.5364
-37.8366	-45.6828	26.5461
-37.8349	-43.1976	26.5559
-37.8354	-40.5247	26.5657
-37.8347	-39.3054	26.5754
-37.8325	-40.8768	26.5852
-37.832	-46.7911	26.595
-37.83271	-48.02866	26.6047
-37.8299	-43.6364	26.6145
-37.8305	-39.1464	26.6243
-37.8296	-41.7737	26.634
-37.8291	-40.6386	26.6438
-37.8276	-44.7689	26.6536
-37.8263	-44.50127	26.66333
-37.8268	-44.4468	26.6731
-37.8257	-46.6169	26.6829
-37.824	-38.1613	26.6926
-37.8239	-39.3767	26.7024
-37.8227	-43.5257	26.7122
-37.8216	-44.2322	26.7219
-37.8213	-47.2907	26.7317
-37.8208	-41.6274	26.7415
-37.8191	-41.3505	26.7512
-37.8191	-42.9277	26.761
-37.8184	-39.9182	26.7708
-37.817	-43.6711	26.7805
-37.8161	-44.8355	26.7903
-37.8155	-44.064	26.8
-37.8148	-44.7174	26.8098
-37.8134	-38.3899	26.81958
-37.8134	-40.1672	26.8293
-37.8127	-42.023	26.8391
-37.8117	-45.96172	26.8489
-37.8103	-47.0719	26.8586
-37.8086	-42.0942	26.8684
-37.8089	-41.4243	26.8782
-37.8075	-38.6669	26.8879
-37.8074	-40.87949	26.8977
-37.80608	-44.5963	26.9075
-37.8052	-47.2408	26.9172
-37.8053	-45.872	26.927
-37.8037	-41.1123	26.9368
-37.80246	-35.3005	26.9465
-37.8024	-40.181	26.9563
-37.8008	-45.3045	26.9661
-37.8016	-45.5606	26.97583
-37.8005	-45.6766	26.9856
-37.79958	-44.4325	26.9954
-37.798	-40.5002	27.0051
-37.7973	-40.2522	27.0149
-37.797	-39.6281	27.0247
-37.7962	-46.9559	27.0344
-37.7955	-47.9793	27.0442
-37.7946	-44.8034	27.054
-37.793	-39.8519	27.0637
-37.792	-36.6487	27.0735
-37.7915	-42.6114	27.0833
-37.7906	-43.5558	27.093
-37.7903	-45.6494	27.1028
-37.7886	-47.6442	27.1125
-37.7888	-39.9308	27.1223
-37.788	-39.0138	27.13208
-37.7874	-38.861	27.1418
-37.7854	-41.3861	27.1516
-37.785	-50.1164	27.1614
-37.785	-44.6819	27.1711
-37.7831	-42.8714	27.1809
-37.7823	-39.2072	27.1907
-37.7812	-38.4717	27.2004
-37.7821	-43.8951	27.2102
-37.7812	-43.5387	27.22
-37.7787	-46.7502	27.2297
-37.7791	-45.8821	27.2395
-37.7779	-41.9376	27.2493
-37.7766	-39.9136	27.259
-37.7762	-39.7852	27.2688
-37.7747	-45.5742	27.2786
-37.7745	-46.5774	27.28833
-37.7747	-44.7848	27.2981
-37.773	-40.8119	27.3079
-37.7731	-41.27795	27.3176
-37.7714	-41.6746	27.3274
-37.7718	-44.6986	27.3372
-37.7698	-43.1212	27.3469
-37.7687	-45.1626	27.3567
-37.76712	-44.5714	27.3665
-37.7676	-41.1247	27.3762
-37.76614	-39.40995	27.386
-37.766	-42.1618	27.3958
-37.7654	-42.888	27.4055
-37.7644	-46.5613	27.4153
-37.764	-43.9622	27.425
-37.7624	-42.3647	27.4348
-37.7608	-43.2791	27.44458
-37.7614	-39.9487	27.4543
-37.7604	-41.4435	27.4641
-37.7589	-44	27.4739
-37.7583	-46.6549	27.4836
-37.7583	-45.7442	27.4934
-37.7566	-40.0257	27.5032
-37.7564	-39.3222	27.5129
-37.7553	-39.1158	27.5227
-37.7538	-44.4795	27.5325
-37.7531	-45.8362	27.5422
-37.75399	-43.3923	27.552
-37.7528	-42.7465	27.5618
-37.75053	-39.8629	27.5715
-37.7502	-37.5725	27.5813
-37.7497	-41.7272	27.5911
-37.7488	-45.5859	27.60083
-37.7472	-49.26104	27.6106
-37.7472	-43.2524	27.6204
-37.7473	-37.8445	27.6301
-37.74477	-38.3489	27.6399
-37.74379	-40.8714	27.6497
-37.745	-45.7087	27.6594
-37.7417	-46.6735	27.6692
-37.7416	-44.383	27.679
-37.7409	-39.9632	27.6887
-37.73996	-39.7415	27.6985
-37.73941	-39.8302	27.7083
-37.7388	-45.84515	27.718
-37.7382	-49.7948	27.7278
-37.7373	-45.6105	27.7375
-37.7367	-42.1887	27.7473
-37.73547	-38.12352	27.75708
-37.7345	-42.0562	27.7668
-37.734	-43.9243	27.7766
-37.7337	-45.4375	27.7864
-37.7318	-46.1824	27.7961
-37.7321	-43.2291	27.8059
-37.7321	-41.0455	27.8157
-37.7301	-38.1683	27.8254
-37.7287	-39.7882	27.8352
-37.7284	-47.6296	27.845
-37.72691	-46.2958	27.8547
-37.7269	-43.9804	27.8645
-37.7259	-39.49379	27.8743
-37.7249	-38.3513	27.884
-37.7239	-44.2195	27.8938
-37.7222	-43.3022	27.9036
-37.7225	-45.0366	27.91333
-37.7222	-45.55888	27.9231
-37.7211	-42.3538	27.9329
-37.7197	-42.0774	27.9426
-37.7198	-38.9982	27.9524
-37.71806	-43.60746	27.9622
-37.717	-45.9399	27.9719
-37.7163	-46.2336	27.9817
-37.71661	-43.4672	27.9915
-37.7151	-40.9303	28.0012
-37.7152	-41.8811	28.011
-37.7133	-42.5714	28.0208
-37.7128	-42.5004	28.0305
-37.7129	-44.9023	28.0403
-37.711	-49.321	28.05
-37.7104	-42.7745	28.0598
-37.71	-40.3519	28.06958
-37.70892	-40.0846	28.0793
-37.7088	-42.4032	28.0891
-37.70763	-47.3757	28.0989
-37.7064	-45.5568	28.1086
-37.7049	-43.0477	28.1184
-37.7049	-42.3009	28.1282
-37.7029	-39.9886	28.1379
-37.7028	-39.4186	28.1477
-37.70293	-42.2841	28.1575
-37.7013	-47.1394	28.1672
-37.70105	-47.4138	28.177
-37.6989	-40.5865	28.1868
-37.6993	-39.0027	28.1965
-37.6989	-39.1579	28.2063
-37.6974	-44.8078	28.2161
-37.696	-47.3882	28.22583
-37.6956	-45.0731	28.2356
-37.6949	-45.471	28.2454
-37.6941	-38.9883	28.2551
-37.6922	-38.5744	28.2649
-37.6915	-42.4523	28.2747
-37.6919	-45.7502	28.2844
-37.6915	-49.0709	28.2942
-37.6893	-44.9917	28.304
-37.689	-38.0902	28.3137
-37.6892	-39.9659	28.3235
-37.6877	-41.73053	28.3333
-37.6861	-45.8948	28.343
-37.6877	-47.5845	28.3528
-37.6852	-44.6973	28.3625
-37.6842	-42.4069	28.3723
-37.6836	-41.0607	28.38208
-37.682	-40.4956	28.3918
-37.6815	-43.6083	28.4016
-37.68166	-48.4213	28.4114
-37.6799	-48.42886	28.4211
-37.6788	-42.8952	28.4309
-37.68	-38.341	28.4407
-37.6782	-40.9962	28.4504
-37.6762	-44.3191	28.4602
-37.6766	-45.8812	28.47
-37.6746	-45.6202	28.4797
-37.6747	-43.399	28.4895
-37.67181	-43.5296	28.4993
-37.674	-40.6492	28.509
-37.6706	-38.9643	28.5188
-37.6716	-47.2736	28.5286
-37.6704	-46.24012	28.53833
-37.6695	-45.1539	28.5481
-37.6691	-39.6493	28.5579
-37.6678	-39.8177	28.5676
-37.6661	-43.9064	28.5774
-37.6666	-42.9653	28.5872
-37.6651	-43.924	28.5969
-37.6652	-44.634	28.6067
-37.6639	-44.3311	28.6165
-37.6634	-41.5515	28.6262
-37.663	-39.5848	28.636
-37.6618	-41.7393	28.6458
-37.6605	-43.9336	28.6555
-37.6606	-46.28	28.6653
-37.6592	-46.42905	28.675
-37.6591	-42.2452	28.6848
-37.6571	-41.292	28.69458
-37.6566	-41.76421	28.7043
-37.6558	-41.5947	28.7141
-37.6542	-44.93898	28.7239
-37.6543	-47.6596	28.7336
-37.65287	-45.1675	28.7434
-37.6529	-41.0775	28.7532
-37.6513	-38.4606	28.7629
-37.6508	-41.2353	28.7727
-37.65	-46.7895	28.7825
-37.6491	-44.434	28.7922
-37.6486	-45.8203	28.802
-37.6475	-42.6623	28.8118
-37.6472	-37.7289	28.8215
-37.646	-41.6984	28.8313
-37.6453	-41.0408	28.8411
-37.6446	-46.326	28.85083
-37.6426	-48.1009	28.8606
-37.6436	-41.6569	28.8704
-37.6415	-39.6224	28.8801
-37.6412	-37.6664	28.8899
-37.64	-44.5211	28.8997
-37.6386	-47.0653	28.9094
-37.639	-45.9596	28.9192
-37.6379	-47.3228	28.929
-37.63773	-39.4158	28.9387
-37.6364	-39.3824	28.9485
-37.6362	-41.90778	28.9583
-37.6346	-43.17067	28.968
-37.6335	-50.4433	28.9778
-37.6338	-46.0402	28.9875
-37.6315	-41.8685	28.9973
-37.6323	-39.1683	29.00708
-37.6305	-41.722	29.0168
-37.6306	-44.4582	29.0266
-37.6289	-45.4406	29.0364
-37.628	-46.3211	29.0461
-37.6276	-44.4121	29.0559
-37.6258	-40.6042	29.0657
-37.6259	-38.7034	29.0754
-37.625	-43.2829	29.0852
-37.625	-46.747	29.095
-37.6235	-47.4795	29.1047
-37.6225	-44.7063	29.1145
-37.62252	-41.2097	29.1243
-37.6208	-41.4099	29.134
-37.6195	-43.7737	29.1438
-37.6192	-45.8994	29.1536
-37.6188	-46.3185	29.16333
-37.6175	-45.1731	29.1731
-37.6166	-45.5674	29.1829
-37.6158	-41.5133	29.1926
-37.6147	-39.7386	29.2024
-37.6146	-43.9102	29.2122
-37.6132	-44.3554	29.2219
-37.6135	-49.0119	29.2317
-37.61129	-44.2635	29.2415
-37.6099	-42.3358	29.2512
-37.6109	-43.9404	29.261
-37.60918	-39.4077	29.2708
-37.6091	-44.3916	29.2805
-37.6069	-44.2117	29.2903
-37.60717	-46.1095	29.3
-37.6068	-45.2846	29.3098
-37.6052	-38.7683	29.31958