File: data/processed_data_files/tensile/0.254_hd_uprint_typeiv_4545_r(10).dat
MTS793|BTW|ENU|1|2|.|/|:|1|0|0|A

Data Header:			0.254_hd_uprint_typeiv_4545_r0			Time:	20.0178	s	4/13/2019 7:58:22 PM
Data Acquisition:	Timed
Station Name:	ft40.cfg
Test File Name:	monotonic_0.2540_typeiv_hd_4545_uprint.tst
Displacement	Force	Running Time
mm	N	s
-40.0347	-122.947	0.0227051
-40.03381	-128.644	0.0422363
-40.0346	-126.849	0.0617676
-40.0319	-126.232	0.0812988
-40.0297	-121.847	0.10083
-40.0298	-128.488	0.120361
-40.027	-120.153	0.139893
-40.026	-118.154	0.159424
-40.0237	-121.645	0.178955
-40.0225	-121.772	0.198486
-40.0203	-114.77	0.218018
-40.0195	-121.277	0.237549
-40.0177	-116.229	0.25708
-40.01606	-110.68	0.276611
-40.0146	-114.8187	0.296143
-40.01368	-119.701	0.315674
-40.0107	-108.891	0.335205
-40.0098	-112.361	0.354736
-40.0088	-111.932	0.374268
-40.00713	-107.417	0.393799
-40.0046	-107.225	0.41333
-40.0032	-114.158	0.432861
-40.0019	-104.069	0.452393
-40.0005	-104.502	0.471924
-39.99786	-107.9558	0.491455
-39.9969	-103.04	0.510986
-39.9956	-100.907	0.530518
-39.9935	-106.661	0.550049
-39.9918	-100.872	0.56958
-39.99	-96.5678	0.589111
-39.98843	-99.7956	0.608643
-39.9865	-98.9311	0.628174
-39.98494	-95.9352	0.647705
-39.9831	-95.9286	0.667236
-39.9816	-99.486	0.686768
-39.9806	-89.9676	0.706299
-39.9793	-91.318	0.72583
-39.9778	-94.54393	0.745361
-39.9747	-94.28138	0.764893
-39.9736	-86.5057	0.784424
-39.9719	-92.8763	0.803955
-39.9715	-87.8783	0.823486
-39.9687	-83.7046	0.843018
-39.9671	-88.6219	0.862549
-39.9655	-89.6126	0.88208
-39.9639	-80.4555	0.901611
-39.96302	-86.7089	0.921143
-39.9612	-85.5242	0.940674
-39.9598	-78.3225	0.960205
-39.958	-82.1049	0.979736
-39.9566	-87.0166	0.999268
-39.9546	-75.6706	1.0188
-39.9523	-77.6236	1.03833
-39.951	-80.0951	1.05786
-39.94907	-74.02	1.07739
-39.9467	-74.9962	1.09692
-39.9471	-77.8857	1.11646
-39.9443	-72.3548	1.13599
-39.9427	-68.0079	1.15552
-39.9411	-75.0521	1.17505
-39.9399	-71.406	1.19458
-39.9384	-67.3731	1.21411
-39.9367	-70.9706	1.23364
-39.93536	-70.2507	1.25317
-39.93383	-63.5595	1.27271
-39.93116	-66.3543	1.29224
-39.93	-66.3997	1.31177
-39.9281	-65.0552	1.3313
-39.9266	-61.4308	1.35083
-39.9252	-65.8256	1.37036
-39.925	-57.7078	1.38989
-39.9224	-57.2101	1.40942
-39.92038	-61.9162	1.42896
-39.9194	-62.1968	1.44849
-39.9171	-53.5432	1.46802
-39.9154	-58.7968	1.48755
-39.9139	-57.2128	1.50708
-39.912	-51.4868	1.52661
-39.911	-53.7761	1.54614
-39.9098	-55.9938	1.56567
-39.9069	-46.5398	1.58521
-39.9056	-52.6599	1.60474
-39.9047	-51.811	1.62427
-39.9026	-45.8359	1.6438
-39.9013	-46.9654	1.66333
-39.8989	-52.3231	1.68286
-39.8977	-43.6462	1.70239
-39.8959	-42.3404	1.72192
-39.8943	-46.3792	1.74146
-39.8926	-41.95546	1.76099
-39.8906	-41.0413	1.78052
-39.8906	-46.2403	1.80005
-39.8885	-40.9186	1.81958
-39.8852	-34.8111	1.83911
-39.8854	-39.75032	1.85864
-39.8828	-38.79982	1.87817
-39.881	-34.8206	1.89771
-39.8789	-34.367	1.91724
-39.8775	-37.9282	1.93677
-39.8753	-30.4793	1.9563
-39.8754	-31.764	1.97583
-39.873	-33.6967	1.99536
-39.8706	-31.3493	2.01489
-39.8694	-27.5931	2.03442
-39.8677	-33.4613	2.05396
-39.8658	-25.8234	2.07349
-39.8641	-23.7856	2.09302
-39.8636	-28.3057	2.11255
-39.861	-29.7154	2.13208
-39.8607	-18.7643	2.15161
-39.8585	-24.8998	2.17114
-39.8573	-22.9945	2.19067
-39.8543	-18.7009	2.21021
-39.85421	-20.8649	2.22974
-39.8524	-24.398	2.24927
-39.8516	-15.2795	2.2688
-39.8486	-17.1475	2.28833
-39.8465	-20.8518	2.30786
-39.8447	-13.385	2.32739
-39.8431	-13.6757	2.34692
-39.84153	-18.9654	2.36646
-39.8414	-13.9181	2.38599
-39.8387	-8.84873	2.40552
-39.8371	-13.1912	2.42505
-39.8359	-9.13695	2.44458
-39.834	-7.737999	2.46411
-39.8326	-12.8136	2.48364
-39.8319	-8.1777	2.50317
-39.8296	-0.787525	2.52271
-39.8264	-4.9129	2.54224
-39.8251	-7.29856	2.56177
-39.8237	-3.62359	2.5813
-39.8239	0.372274	2.60083
-39.821	-5.492836	2.62036
-39.8187	1.29927	2.63989
-39.818	1.77222	2.65942
-39.8161	-0.619972	2.67896
-39.8152	-1.17278	2.69849
-39.8121	6.34595	2.71802
-39.8114	-1.1252	2.73755
-39.8094	3.697073	2.75708
-39.80891	10.2428	2.77661
-39.8064	6.76052	2.79614
-39.8045	2.7777	2.81567
-39.8023	12.7103	2.83521
-39.8015	9.89	2.85474
-39.8009	9.26833	2.87427
-39.7979	13.8732	2.8938
-39.7969	13.1836	2.91333
-39.7948	6.27278	2.93286
-39.7935	17.6406	2.95239
-39.792	17.8781	2.97192
-39.7895	11.9347	2.99146
-39.7887	17.1566	3.01099
-39.78664	18.5203	3.03052
-39.78503	15.0045	3.05005
-39.783	18.6757	3.06958
-39.7814	23.0373	3.08911
-39.7802	20.8061	3.10864
-39.77776	22.0509	3.12817
-39.7774	23.6409	3.14771
-39.7748	22.2213	3.16724
-39.7726	20.7832	3.18677
-39.7725	29.4036	3.2063
-39.7707	28.63752	3.22583
-39.7692	24.9322	3.24536
-39.7677	27.5807	3.26489
-39.7652	33.3245	3.28442
-39.76458	26.8118	3.30396
-39.7621	32.1335	3.32349
-39.7602	35.7469	3.34302
-39.759	32.029	3.36255
-39.7571	29.9948	3.38208
-39.7556	40.0161	3.40161
-39.75396	33.5898	3.42114
-39.7524	34.2324	3.44067
-39.7506	42.6056	3.46021
-39.74873	41.338	3.47974
-39.7467	34.91246	3.49927
-39.7456	44.2574	3.5188
-39.7446	45.3712	3.53833
-39.7433	40.7823	3.55786
-39.7407	46.3232	3.57739
-39.7398	45.9706	3.59692
-39.738	39.835	3.61646
-39.7371	46.1497	3.63599
-39.7347	52.0293	3.65552
-39.7329	44.76	3.67505
-39.7315	49.6594	3.69458
-39.7295	52.2497	3.71411
-39.7288	49.1948	3.73364
-39.7262	49.0167	3.75317
-39.7243	55.5577	3.77271
-39.7234	53.4379	3.79224
-39.72121	52.6454	3.81177
-39.7195	55.6688	3.8313
-39.7188	57.973	3.85083
-39.71706	51.8326	3.87036
-39.71516	60.4604	3.88989
-39.71389	61.1312	3.90942
-39.712	59.6977	3.92896
-39.7099	58.304	3.94849
-39.7091	66.3903	3.96802
-39.7075	59.9178	3.98755
-39.705	65.6928	4.00708
-39.7047	69.5267	4.02661
-39.7021	66.3952	4.04614
-39.7004	61.5727	4.06567
-39.6985	72.5649	4.08521
-39.69648	69.4757	4.10474
-39.69521	68.2726	4.12427
-39.6939	74.27	4.1438
-39.6921	73.5043	4.16333
-39.6909	67.7039	4.18286
-39.68922	73.60833	4.20239
-39.6882	75.9193	4.22192
-39.6868	72.6661	4.24146
-39.6836	77.4411	4.26099
-39.6825	78.3249	4.28052
-39.6814	73.3085	4.30005
-39.6783	76.9669	4.31958
-39.67733	85.30265	4.33911
-39.6765	80.9533	4.35864
-39.6741	80.7224	4.37817
-39.6725	84.2992	4.39771
-39.6712	84.5804	4.41724
-39.6698	81.6364	4.43677
-39.6685	89.44014	4.4563
-39.6666	86.8859	4.47583
-39.6654	86.7505	4.49536
-39.6626	86.3864	4.51489
-39.6618	93.4656	4.53442
-39.661	86.34832	4.55396
-39.6588	92.1055	4.57349
-39.6561	97.458	4.59302
-39.6546	92.9483	4.61255
-39.6533	89.1953	4.63208
-39.6522	99.2522	4.65161
-39.6498	96.0792	4.67114
-39.6487	95.5957	4.69067
-39.6479	100.577	4.71021
-39.6461	98.1721	4.72974
-39.6437	95.40728	4.74927
-39.64185	104.208	4.7688
-39.6402	102.752	4.78833
-39.6384	100.021	4.80786
-39.6372	105.374	4.82739
-39.63496	106.9102	4.84692
-39.6334	100.59	4.86646
-39.6324	106.982	4.88599
-39.6303	110.179	4.90552
-39.628	106.295	4.92505
-39.6269	110.215	4.94458
-39.6264	112.622	4.96411
-39.6236	107.264	4.98364
-39.6226	109.163	5.00317
-39.6219	116.819	5.02271
-39.6204	113.468	5.04224
-39.61726	112.252	5.06177
-39.61639	112.701	5.0813
-39.615	118.1072	5.10083
-39.6133	114.659	5.12036
-39.6104	120.8446	5.13989
-39.6097	122.0607	5.15942
-39.6068	119.0899	5.17896
-39.6048	118.295	5.19849
-39.6047	126.727	5.21802
-39.6029	120.1843	5.23755
-39.601	122.239	5.25708
-39.6004	128.5036	5.27661
-39.5985	126.77	5.29614
-39.5974	120.196	5.31567
-39.5943	131.158	5.33521
-39.5932	127.579	5.35474
-39.5913	127.439	5.37427
-39.58997	134.117	5.3938
-39.5887	130.857	5.41333
-39.5866	125.678	5.43286
-39.5857	134.294	5.45239
-39.5834	137.253	5.47192
-39.5824	130.031	5.49146
-39.5804	135.464	5.51099
-39.5786	138.517	5.53052
-39.5787	133.665	5.55005
-39.5749	135.981	5.56958
-39.5741	143.594	5.58911
-39.5711	136.953	5.60864
-39.5702	138.549	5.62817
-39.5691	141.1387	5.64771
-39.5667	141.717	5.66724
-39.5658	138.658	5.68677
-39.56488	146.063	5.7063
-39.56179	147.811	5.72583
-39.56	144.475	5.74536
-39.5582	144.838	5.76489
-39.5576	151.795	5.78442
-39.55592	145.201	5.80396
-39.55291	150.9846	5.82349
-39.5522	153.836	5.84302
-39.5515	149.271	5.86255
-39.5504	147.671	5.88208
-39.5479	159.348	5.90161
-39.5472	152.272	5.92114
-39.5432	152.407	5.94067
-39.5429	159.001	5.96021
-39.5417	158.727	5.97974
-39.5405	151.049	5.99927
-39.5379	160.066	6.0188
-39.5372	159.835	6.03833
-39.5343	158.072	6.05786
-39.5335	163.1377	6.07739
-39.5318	163.535	6.09692
-39.5295	157.203	6.11646
-39.5281	163.856	6.13599
-39.5259	168.021	6.15552
-39.52483	164.413	6.17505
-39.523	164.683	6.19458
-39.522	168.4537	6.21411
-39.5194	167.735	6.23364
-39.519	167.308	6.25317
-39.5165	173.715	6.27271
-39.5158	169.081	6.29224
-39.5146	170.287	6.31177
-39.5105	174.416	6.3313
-39.5108	176.448	6.35083
-39.5092	169.881	6.37036
-39.5069	177.585	6.38989
-39.5051	179.734	6.40942
-39.5032	176.029	6.42896
-39.50259	174.327	6.44849
-39.502	184.449	6.46802
-39.4994	178.572	6.48755
-39.4972	181.715	6.50708
-39.4951	186.249	6.52661
-39.4943	182.074	6.54614
-39.4933	177.668	6.56567
-39.4913	189.9137	6.58521
-39.4888	186.594	6.60474
-39.4873	182.778	6.62427
-39.4843	191.012	6.6438
-39.4834	189.361	6.66333
-39.4826	184.65	6.68286
-39.4809	192.389	6.70239
-39.4793	193.41	6.72192
-39.4782	189.199	6.74146
-39.4771	194.679	6.76099
-39.4744	195.719	6.78052
-39.4732	190.064	6.80005
-39.471	193.524	6.81958
-39.4699	199.375	6.83911
-39.4673	195.893	6.85864
-39.4664	195.445	6.87817
-39.4662	199.017	6.89771
-39.4624	200.245	6.91724
-39.461	197.3163	6.93677
-39.4594	204.8633	6.9563
-39.458	204.206	6.97583
-39.4572	200.332	6.99536
-39.455	202.631	7.01489
-39.4535	209.029	7.03442
-39.4519	201.566	7.05396
-39.4501	207.929	7.07349
-39.4486	212.363	7.09302
-39.4469	207.881	7.11255
-39.4458	205.978	7.13208
-39.4431	214.8551	7.15161
-39.4434	210.978	7.17114
-39.4413	210.014	7.19067
-39.4385	216.714	7.21021
-39.4372	212.725	7.22974
-39.4347	207.197	7.24927
-39.4331	219.169	7.2688
-39.4312	217.1378	7.28833
-39.43074	214.657	7.30786
-39.4291	219.083	7.32739
-39.427	221.316	7.34692
-39.42564	216.005	7.36646
-39.4247	220.794	7.38599
-39.4225	223.758	7.40552
-39.42046	219.405	7.42505
-39.4188	223.655	7.44458
-39.4185	224.971	7.46411
-39.4157	223.7767	7.48364
-39.41354	223.478	7.50317
-39.4121	231.653	7.52271
-39.4103	229.479	7.54224
-39.4098	228.072	7.56177
-39.4094	228.148	7.5813
-39.4059	233.307	7.60083
-39.4048	225.5903	7.62036
-39.4044	235.379	7.63989
-39.401	236.012	7.65942
-39.39909	231.683	7.67896
-39.3987	231.971	7.69849
-39.3968	241.54	7.71802
-39.3942	234.325	7.73755
-39.3923	237.224	7.75708
-39.3913	240.911	7.77661
-39.39	238.425	7.79614
-39.3879	235.165	7.81567
-39.3874	244.636	7.83521
-39.38456	242.18	7.85474
-39.3831	240.37	7.87427
-39.3823	246.919	7.8938
-39.3797	244.416	7.91333
-39.3791	237.853	7.93286
-39.3772	248.304	7.95239
-39.3757	250.417	7.97192
-39.3725	245.034	7.99146
-39.3723	248.294	8.01099
-39.3697	250.9734	8.03052
-39.3685	248.083	8.05005
-39.36702	249.463	8.06958
-39.3656	255.344	8.08911
-39.3647	251.437	8.10864
-39.3626	251.423	8.12817
-39.3605	256.3559	8.14771
-39.3589	257.527	8.16724
-39.3577	250.536	8.18677
-39.3559	259.746	8.2063
-39.354	260.364	8.22583
-39.3541	256.786	8.24536
-39.3509	257.2825	8.26489
-39.34853	261.782	8.28442
-39.3481	258.179	8.30396
-39.3455	264.508	8.32349
-39.3447	266.862	8.34302
-39.3439	261.543	8.36255
-39.3416	258.601	8.38208
-39.3407	271.264	8.40161
-39.3389	264.255	8.42114
-39.3366	265.701	8.44067
-39.3341	272.01	8.46021
-39.3333	268.465	8.47974
-39.3316	265.196	8.49927
-39.3305	273.377	8.5188
-39.3273	273.723	8.53833
-39.3263	268.821	8.55786
-39.3248	276.083	8.57739
-39.3218	276.613	8.59692
-39.3221	269.252	8.61646
-39.3202	275.2355	8.63599
-39.3188	280.825	8.65552
-39.3173	276.092	8.67505
-39.3154	278.662	8.69458
-39.31366	279.166	8.71411
-39.3117	280.363	8.73364
-39.3092	279.217	8.75317
-39.3078	286.995	8.77271
-39.3068	283.386	8.79224
-39.3059	280.072	8.81177
-39.30431	284.05	8.8313
-39.3021	288.754	8.85083
-39.30085	280.841	8.87036
-39.299	288.798	8.88989
-39.2976	292.033	8.90942
-39.2954	288.268	8.92896
-39.2938	286.764	8.94849
-39.2922	295.394	8.96802
-39.2901	288.8288	8.98755
-39.289	291.613	9.00708
-39.2873	297.481	9.02661
-39.28614	291.799	9.04614
-39.2845	288.901	9.06567
-39.2828	298.905	9.08521
-39.28112	296.127	9.10474
-39.2798	292.782	9.12427
-39.2773	299.475	9.1438
-39.2767	297.509	9.16333
-39.2744	294.92	9.18286
-39.2731	300.941	9.20239
-39.2712	303.176	9.22192
-39.2692	296.099	9.24146
-39.2677	303.167	9.26099
-39.2659	304.495	9.28052
-39.2632	301.366	9.30005
-39.2633	302.19	9.31958
-39.2615	308.598	9.33911
-39.2597	305.592	9.35864
-39.25742	307.978	9.37817
-39.2565	308.583	9.39771
-39.2554	309.294	9.41724
-39.2533	306.107	9.43677
-39.2521	314.1561	9.4563
-39.2503	313.299	9.47583
-39.2486	308.986	9.49536
-39.2473	310.964	9.51489
-39.2457	318.438	9.53442
-39.2426	311.274	9.55396
-39.243	314.91	9.57349
-39.2398	319.338	9.59302
-39.2383	316.991	9.61255
-39.2376	313.337	9.63208
-39.2364	322.06	9.65161
-39.2335	318.404	9.67114
-39.2318	316.814	9.69067
-39.2303	324.9238	9.71021
-39.229	321.33	9.72974
-39.22728	316.9671	9.74927
-39.2257	326.479	9.7688
-39.2245	326.464	9.78833
-39.2215	321.459	9.80786
-39.2211	327.954	9.82739
-39.2196	325.576	9.84692
-39.217	323.535	9.86646
-39.2167	328.721	9.88599
-39.2149	332.8483	9.90552
-39.2127	325.822	9.92505
-39.21104	329.401	9.94458
-39.2086	332.804	9.96411
-39.2081	331.338	9.98364
-39.2067	329.785	10.0032
-39.2048	337.311	10.0227
-39.2024	335.0968	10.0422
-39.2011	333.939	10.0618
-39.1992	334.268	10.0813
-39.1982	341.543	10.10083
-39.195	334.611	10.1204
-39.1955	342.0426	10.1399
-39.19281	344.1553	10.1594
-39.1909	337.222	10.179
-39.1893	338.268	10.1985
-39.188	346.7113	10.218
-39.1864	340.298	10.2375
-39.1852	341.914	10.25708
-39.1842	347.066	10.2766
-39.1815	345.021	10.2961
-39.1796	340.289	10.3157
-39.1791	350.152	10.3352
-39.1773	346.19	10.3547
-39.1749	344.442	10.3743
-39.1741	350.806	10.3938
-39.1726	349.897	10.41333
-39.1703	345.77	10.4329
-39.1681	352.025	10.4524
-39.167	354.787	10.4719
-39.1654	348.642	10.4915
-39.1631	354.483	10.511
-39.1619	353.291	10.5305
-39.1601	353.244	10.55
-39.1591	354.894	10.56958
-39.1587	362	10.5891
-39.15625	356.065	10.6086
-39.1531	357.526	10.6282
-39.1524	358.938	10.6477
-39.1502	363.622	10.6672
-39.1485	357.163	10.6868
-39.1469	364.595	10.7063
-39.1467	364.5173	10.72583
-39.1444	362.054	10.7454
-39.1421	361.621	10.7649
-39.1418	368.129	10.7844
-39.13942	359.531	10.804
-39.1381	366.868	10.8235
-39.1364	370.045	10.843
-39.1345	364.606	10.8625
-39.133	362.835	10.88208
-39.1308	372.521	10.9016
-39.1289	368.004	10.9211
-39.1287	366.885	10.9407
-39.1283	373.062	10.9602
-39.1248	370.385	10.9797
-39.1229	365.6572	10.9993
-39.1211	377.2421	11.0188
-39.1205	375.227	11.03833
-39.1177	371.04	11.0579
-39.1172	379.169	11.0774
-39.1147	376.457	11.0969
-39.1134	372.961	11.1165
-39.111	375.888	11.136
-39.1104	383.145	11.1555
-39.1086	378.315	11.175
-39.1069	381.058	11.19458
-39.1057	380.154	11.2141
-39.10397	380.514	11.2336
-39.1023	379.858	11.2532
-39.101	387.137	11.2727
-39.0985	383.774	11.2922
-39.0975	381.703	11.3118
-39.0948	384.708	11.3313
-39.0942	389.563	11.35083
-39.0915	382.935	11.3704
-39.0921	389.48	11.3899
-39.08807	392.095	11.4094
-39.0885	386.87	11.429
-39.0857	386.622	11.4485
-39.0842	395.468	11.468
-39.0815	386.629	11.4875
-39.081	390.3652	11.50708
-39.0795	397.542	11.5266
-39.07822	390.935	11.5461
-39.0758	388.119	11.5657
-39.0746	397.211	11.5852
-39.0728	396.569	11.6047
-39.0713	392.398	11.6243
-39.0698	400.1618	11.6438
-39.06781	396.347	11.66333
-39.0659	394.088	11.6829
-39.06435	399.667	11.7024
-39.0626	402.122	11.7219
-39.0611	396.028	11.7415
-39.061	403.039	11.761
-39.0587	403.262	11.7805
-39.0565	400.598	11.8
-39.0552	401.6	11.81958
-39.0524	408.642	11.8391
-39.052	404.2836	11.8586
-39.0495	404.715	11.8782
-39.0488	406.5759	11.8977
-39.04668	407.608	11.9172
-39.045	403.249	11.9368
-39.0442	413.059	11.9563
-39.0414	411.7424	11.97583
-39.041	406.464	11.9954
-39.039	408.663	12.0149
-39.037	416.56	12.0344
-39.0358	408.4827	12.054
-39.0348	412.422	12.0735
-39.0321	415.694	12.093
-39.0303	410.92	12.1125
-39.0283	410.007	12.13208
-39.027	420.9516	12.1516
-39.0234	414.41	12.1711
-39.0243	413.9743	12.1907
-39.0226	420.716	12.2102
-39.0206	416.111	12.2297
-39.0193	412.425	12.2493
-39.0179	422.389	12.2688
-39.0161	422.632	12.28833
-39.0145	417.188	12.3079
-39.0132	424.0676	12.3274
-39.0102	421.169	12.3469
-39.0086	419.029	12.3665
-39.0078	422.858	12.386
-39.0071	429.067	12.4055
-39.0037	422.912	12.425
-39.0035	424.851	12.44458
-39.0014	427.802	12.4641
-38.9989	426.869	12.4836
-38.9985	425.174	12.5032
-38.9961	432.811	12.5227
-38.994	430.727	12.5422
-38.9945	427.782	12.5618
-38.9923	430.11	12.5813
-38.9892	433.665	12.60083
-38.9881	427.629	12.6204
-38.988	434.369	12.6399
-38.9854	436.057	12.6594
-38.9836	431.2475	12.679
-38.9817	431.064	12.6985
-38.9795	439.963	12.718
-38.9778	434.247	12.7375
-38.976	435.4147	12.75708
-38.9748	441.136	12.7766
-38.9739	436.1409	12.7961
-38.9715	432.669	12.8157
-38.9711	443.052	12.8352
-38.96767	438.883	12.8547
-38.9669	435.196	12.8743
-38.9659	444.702	12.8938
-38.964	441.243	12.91333
-38.9622	438.579	12.9329
-38.9613	443.55	12.9524
-38.9587	447.5791	12.9719
-38.957	441.4053	12.9915
-38.9555	446.62	13.011
-38.9536	446.063	13.0305
-38.9525	443.396	13.05
-38.9509	444.418	13.06958
-38.9497	453.615	13.0891
-38.9476	446.5484	13.1086
-38.94632	447.935	13.1282
-38.9444	448.679	13.1477
-38.9433	452.137	13.1672
-38.9399	447.38	13.1868
-38.9396	454.005	13.2063
-38.93837	453.248	13.22583
-38.9355	447.831	13.2454
-38.9345	451.124	13.2649
-38.93251	456.939	13.2844
-38.9326	449.3168	13.304
-38.9289	454.733	13.3235
-38.928	459.5759	13.343
-38.92598	453.545	13.3625
-38.9234	451.3894	13.38208
-38.9223	461.209	13.4016
-38.9216	456.438	13.4211
-38.9186	455.709	13.4407
-38.9175	462.571	13.4602
-38.9168	457.083	13.4797
-38.916	455.287	13.4993
-38.9124	462.995	13.5188
-38.91132	461.595	13.53833
-38.9101	457.0065	13.5579
-38.9087	464.482	13.5774
-38.9069	463.204	13.5969
-38.9054	460.871	13.6165
-38.9028	462.037	13.636
-38.9022	467.308	13.6555
-38.9005	462.905	13.675
-38.8982	466.117	13.69458
-38.8965	467.206	13.7141
-38.8951	465.965	13.7336
-38.8926	464.502	13.7532
-38.8915	473.105	13.7727
-38.8897	468.66	13.7922
-38.88908	466.065	13.8118
-38.8873	468.6803	13.8313
-38.887	476.18	13.85083
-38.8845	467.329	13.8704
-38.8836	472.626	13.8899
-38.8802	474.12	13.9094
-38.8794	469.22	13.929
-38.8762	470.268	13.9485
-38.8751	476.503	13.968
-38.87513	470.627	13.9875
-38.87291	472.866	14.00708
-38.8703	480.635	14.0266
-38.8699	474.251	14.0461
-38.868	469.8262	14.0657
-38.8651	480.011	14.0852
-38.864	476.771	14.1047
-38.8627	474.09	14.1243
-38.8612	482.304	14.1438
-38.859	478.437	14.16333
-38.8579	473.588	14.1829
-38.8554	481.4519	14.2024
-38.8533	485.0733	14.2219
-38.853	476.562	14.2415
-38.8525	480.875	14.261
-38.8495	482.5	14.2805
-38.8487	481.261	14.3
-38.8463	481.058	14.31958
-38.8443	486.074	14.3391
-38.8439	481.7045	14.3586
-38.8416	481.998	14.3782
-38.8394	484.117	14.3977
-38.8391	486.6485	14.4172
-38.83567	481.478	14.4368
-38.8343	490.02	14.4563
-38.8334	488.851	14.47583
-38.8313	483.8884	14.4954
-38.8299	484.764	14.5149
-38.82933	492.077	14.5344
-38.8274	484.11	14.554
-38.8263	489.052	14.5735
-38.82391	491.125	14.593
-38.8227	486.084	14.6125
-38.8209	485.942	14.63208
-38.81881	495.406	14.6516
-38.8182	489.742	14.6711
-38.8158	487.996	14.6907
-38.815	496.169	14.7102
-38.8121	491.848	14.7297
-38.8109	486.802	14.7493
-38.8089	495.875	14.7688
-38.8074	495.088	14.78833
-38.8062	491.707	14.8079
-38.8049	498.102	14.8274
-38.8035	494.947	14.8469
-38.80106	489.8877	14.8665
-38.7982	494.142	14.886
-38.7987	500.492	14.9055
-38.7967	493.737	14.925
-38.7948	495.794	14.94458
-38.7938	497.862	14.9641
-38.7902	497.755	14.9836
-38.7895	494.053	15.0032
-38.78828	500.939	15.0227
-38.7867	499.268	15.0422
-38.7836	496.9664	15.0618
-38.7817	499.133	15.0813
-38.7815	502.628	15.10083
-38.7793	494.511	15.1204
-38.7776	501.526	15.1399
-38.7757	503.28	15.1594
-38.7746	498.947	15.179
-38.7734	495.754	15.1985
-38.7717	505.297	15.218
-38.7694	498.949	15.2375
-38.7685	499.604	15.25708
-38.7666	505.076	15.2766
-38.7651	500.183	15.2961
-38.76421	495.664	15.3157
-38.762	508.146	15.3352
-38.7602	504.875	15.3547
-38.7598	496.324	15.3743
-38.7563	506.626	15.3938
-38.7547	503.413	15.41333
-38.7537	501.123	15.4329
-38.7511	505.522	15.4524
-38.7503	507.1814	15.4719
-38.7495	501.993	15.4915
-38.7474	506.966	15.511
-38.7451	504.178	15.5305
-38.7446	503.306	15.55
-38.742	503.1413	15.56958
-38.7414	511.058	15.5891
-38.7393	505.251	15.6086
-38.7373	504.369	15.6282
-38.7367	505.524	15.6477
-38.7331	507.359	15.6672
-38.7327	502.982	15.6868
-38.7308	510.118	15.7063
-38.7294	506.649	15.72583
-38.7283	504.138	15.7454
-38.7262	506.201	15.7649
-38.7247	512.445	15.7844
-38.7226	504.256	15.804
-38.7206	506.998	15.8235
-38.7181	513.792	15.843
-38.71867	507.675	15.8625
-38.7164	504.536	15.88208
-38.7143	514.3429	15.9016
-38.7125	508.615	15.9211
-38.7131	507.528	15.9407
-38.7093	515.284	15.9602
-38.7091	508.884	15.9797
-38.7062	504.751	15.9993
-38.70541	512.612	16.0188
-38.703	513.138	16.03833
-38.7012	506.685	16.0579
-38.6999	512.868	16.0774
-38.6979	511.706	16.0969
-38.6968	508.721	16.1165
-38.695	510.702	16.136
-38.69331	515.566	16.1555
-38.6918	507.236	16.175
-38.6903	511.03	16.19458
-38.6886	514.523	16.2141
-38.6875	509.474	16.2336
-38.6848	506.362	16.2532
-38.68428	516.779	16.2727
-38.6825	511.682	16.2922
-38.6808	509.507	16.3118
-38.6806	509.6011	16.3313
-38.6781	512.916	16.35083
-38.6757	507.941	16.3704
-38.6741	514.532	16.3899
-38.6714	514.567	16.4094
-38.67046	507.734	16.429
-38.669	508.608	16.4485
-38.6678	515.218	16.468
-38.6654	509.252	16.4875
-38.6643	510.747	16.50708
-38.6624	515.277	16.5266
-38.661	509.003	16.5461
-38.6596	508.221	16.5657
-38.6583	514.893	16.5852
-38.6553	510.824	16.6047
-38.65506	509.822	16.6243
-38.6526	515.814	16.6438
-38.6508	510.913	16.66333
-38.65	506.996	16.6829
-38.6477	512.911	16.7024
-38.6467	514.24	16.7219
-38.6457	507.397	16.7415
-38.6429	512.439	16.761
-38.6415	511.947	16.7805
-38.6399	511.071	16.8
-38.63871	510.621	16.81958
-38.6371	517.2384	16.8391
-38.6347	509.285	16.8586
-38.6317	509.224	16.8782
-38.6327	512.1264	16.8977
-38.6295	513.612	16.9172
-38.6286	508.407	16.9368
-38.627	514.094	16.9563
-38.6253	512.89	16.97583
-38.6238	508.722	16.9954
-38.6218	507.828	17.0149
-38.6189	515.338	17.0344
-38.6186	507.366	17.054
-38.6178	512.083	17.0735
-38.61512	513.768	17.093
-38.614	506.924	17.1125
-38.6126	506.56	17.13208
-38.6104	516.7345	17.1516
-38.6097	508.991	17.1711
-38.6072	507.84	17.1907
-38.6057	514.407	17.2102
-38.6039	509.541	17.2297
-38.6015	505.082	17.2493
-38.6006	513.57	17.2688
-38.5993	510.849	17.28833
-38.5976	504.458	17.3079
-38.5969	511.941	17.3274
-38.5946	511.082	17.3469
-38.5925	505.984	17.3665
-38.5908	508.868	17.386
-38.5902	514.002	17.4055
-38.5875	508.73	17.425
-38.5861	509.783	17.44458
-38.5834	509.952	17.4641
-38.5824	509.796	17.4836
-38.5804	507.258	17.5032
-38.58	515.952	17.5227
-38.5777	510.197	17.5422
-38.57687	507.7724	17.5618
-38.5746	508.72	17.5813
-38.5733	513.057	17.60083
-38.5712	505.709	17.6204
-38.5706	511.436	17.6399
-38.5676	512.8045	17.6594
-38.5676	507.793	17.679
-38.5655	504.921	17.6985
-38.56419	513.559	17.718
-38.56197	506.168	17.7375
-38.5603	507.168	17.75708
-38.5584	513.143	17.7766
-38.5567	505.479	17.7961
-38.5551	503.314	17.8157
-38.5538	513.053	17.8352
-38.55122	508.267	17.8547
-38.55093	505.062	17.8743
-38.5488	510.785	17.8938
-38.54641	508.294	17.91333
-38.54594	503.861	17.9329
-38.5439	510.141	17.9524
-38.5422	510.753	17.9719
-38.53978	504.118	17.9915
-38.5395	509.246	18.011
-38.5385	509.619	18.0305
-38.53513	505.561	18.05
-38.5328	504.167	18.06958
-38.53146	511.28	18.0891
-38.5304	506.149	18.1086
-38.5282	506.861	18.1282
-38.5272	507.424	18.1477
-38.526	508.834	18.1672
-38.52422	503.675	18.1868
-38.5213	511.11	18.2063
-38.5206	510.27	18.22583
-38.5203	504.119	18.2454
-38.5176	505.286	18.2649
-38.5167	512.137	18.2844
-38.5134	503.692	18.304
-38.5142	505.654	18.3235
-38.5113	510.4866	18.343
-38.5111	504.528	18.3625
-38.5071	501.305	18.38208
-38.507	511.637	18.4016
-38.5049	504.39	18.4211
-38.503	503.8815	18.4407
-38.502	511.5546	18.4602
-38.5001	505.102	18.4797
-38.4985	500.649	18.4993
-38.4963	508.101	18.5188
-38.4956	508.774	18.53833
-38.4937	503.369	18.5579
-38.4909	507.975	18.5774
-38.4901	507.228	18.5969
-38.4883	502.741	18.6165
-38.4861	506.4082	18.636
-38.4846	509.658	18.6555
-38.4834	502.243	18.675
-38.4818	505.475	18.69458
-38.4795	505.671	18.7141
-38.4802	505.9017	18.7336
-38.4763	502.254	18.7532
-38.4757	508.065	18.7727
-38.47337	507.173	18.7922
-38.4719	502.671	18.8118
-38.47142	503.273	18.8313
-38.4676	505.915	18.85083
-38.4673	500.358	18.8704
-38.4656	507.522	18.8899
-38.4645	508.556	18.9094
-38.462	501.415	18.929
-38.461	500.889	18.9485
-38.4593	510.465	18.968
-38.4576	502.571	18.9875
-38.4559	502.571	19.00708
-38.45298	507.537	19.0266
-38.4532	502.7814	19.0461
-38.4514	499.768	19.0657
-38.4502	508.008	19.0852
-38.4477	504.252	19.1047
-38.4456	499.243	19.1243
-38.4444	508.165	19.1438
-38.4424	502.988	19.16333
-38.4414	498.521	19.1829
-38.44	503.105	19.2024
-38.4384	507.339	19.2219
-38.4359	500.612	19.2415
-38.4349	503.975	19.261
-38.434	503.286	19.2805
-38.4315	501.32	19.3
-38.4302	502.39	19.31958
-38.4292	508.409	19.3391
-38.4266	501.737	19.3586
-38.4243	502.55	19.3782
-38.4231	504.353	19.3977
-38.4207	505.556	19.4172
-38.4208	498.504	19.4368
-38.4187	505.409	19.4563
-38.4165	504.915	19.47583
-38.41526	500.788	19.4954
-38.41349	500.115	19.5149
-38.4122	507.381	19.5344
-38.4107	499.161	19.554
-38.408	504.992	19.5735
-38.4065	507.356	19.593
-38.4053	500.372	19.6125
-38.4034	497.927	19.63208
-38.4019	507.561	19.6516
-38.4008	503.045	19.6711
-38.3982	500.21	19.6907
-38.3972	506.048	19.7102
-38.395	500.699	19.7297
-38.39378	497.5639	19.7493
-38.391	506.288	19.7688
-38.3903	505.295	19.78833
-38.38937	497.295	19.8079
-38.3874	504.113	19.8274
-38.3866	504.37	19.8469
-38.3853	498.951	19.8665
-38.3826	500.542	19.886
-38.3818	507.1	19.9055
-38.3793	500.219	19.925
-38.377	502.001	19.94458
-38.3758	502.6875	19.9641
-38.3739	501.382	19.9836
-38.37294	499.226	20.0032
-38.3722	500.069	20.0129

Data Header:			0.254_hd_uprint_typeiv_4545_r0			Time:	38.55542	s	4/13/2019 7:58:41 PM
Data Acquisition:	Timed
Station Name:	ft40.cfg
Test File Name:	monotonic_0.2540_typeiv_hd_4545_uprint.tst
Displacement	Force	Running Time
mm	N	s
-38.37146	505.327	20.0227
-38.3695	502.21	20.0422
-38.3676	498.217	20.0618
-38.3671	501.399	20.0813
-38.3644	504.535	20.10083
-38.3628	498.084	20.1204
-38.361	502.813	20.1399
-38.3596	505.081	20.1594
-38.359	497.287	20.179
-38.35717	496.528	20.1985
-38.35508	505.587	20.218
-38.3535	499.206	20.2375
-38.3517	501.117	20.25708
-38.349	505.825	20.2766
-38.34856	499.506	20.2961
-38.3461	494.559	20.3157
-38.346	503.599	20.3352
-38.344	503.299	20.3547
-38.3416	497.517	20.3743
-38.3398	503.619	20.3938
-38.3383	499.512	20.41333
-38.3375	496.167	20.4329
-38.3346	502.394	20.4524
-38.3334	505.425	20.4719
-38.3319	496.235	20.4915
-38.3296	502.866	20.511
-38.329	500.451	20.5305
-38.3273	498.966	20.55
-38.3252	498.1174	20.56958
-38.3236	503.649	20.5891
-38.3212	500.133	20.6086
-38.3205	498.856	20.6282
-38.319	500.581	20.6477
-38.3177	502.466	20.6672
-38.3155	495.496	20.6868
-38.314	505.375	20.7063
-38.3137	502.706	20.72583
-38.3105	497.955	20.7454
-38.3083	497.6619	20.7649
-38.3085	505.651	20.7844
-38.3058	498.016	20.804
-38.3035	502.291	20.8235
-38.3022	502.698	20.843
-38.3008	496.8764	20.8625
-38.2985	495.773	20.88208
-38.2982	504.269	20.9016
-38.2959	500.417	20.9211
-38.294	495.613	20.9407
-38.2931	504.548	20.9602
-38.291	498.967	20.9797
-38.2903	494.973	20.9993
-38.2879	500.968	21.0188
-38.2874	502.518	21.03833
-38.2857	497.618	21.0579
-38.2834	502.071	21.0774
-38.2819	499.415	21.0969
-38.2802	495.77	21.1165
-38.2783	499.558	21.136
-38.2776	503.929	21.1555
-38.2752	497.681	21.175
-38.273	498.617	21.19458
-38.272	500.49	21.2141
-38.2689	500.296	21.2336
-38.268	496.524	21.2532
-38.268	503.853	21.2727
-38.2663	499.578	21.2922
-38.264	496.771	21.3118
-38.2626	499.1427	21.3313
-38.2624	502.135	21.35083
-38.2595	495.415	21.3704
-38.2574	501.24	21.3899
-38.2546	502.366	21.4094
-38.2539	496.356	21.429
-38.2521	493.635	21.4485
-38.2504	503.649	21.468
-38.2484	495.075	21.4875
-38.2461	497.839	21.50708
-38.2454	502.32	21.5266
-38.245	495.63	21.5461
-38.2425	494.837	21.5657
-38.2409	502.927	21.5852
-38.2391	498.695	21.6047
-38.2378	493.432	21.6243
-38.2357	501.023	21.6438
-38.23436	497.493	21.66333
-38.2339	494.443	21.6829
-38.2311	499.1188	21.7024
-38.2304	501.306	21.7219
-38.2278	495.08	21.7415
-38.2272	498.605	21.761
-38.2242	498.86	21.7805
-38.2234	495.43	21.8
-38.2209	495.302	21.81958
-38.2196	503.4039	21.8391
-38.218	497.582	21.8586
-38.217	496.822	21.8782
-38.2161	496.657	21.8977
-38.2133	498.862	21.9172
-38.2107	495.63	21.9368
-38.2109	500.71	21.9563
-38.2078	498.949	21.97583
-38.2083	494.0777	21.9954
-38.2056	496.459	22.0149
-38.2022	502.986	22.0344
-38.20171	493.68	22.054
-38.2002	497.261	22.0735
-38.1982	500.834	22.093
-38.1968	495.648	22.1125
-38.1954	493.413	22.13208
-38.1932	502.101	22.1516
-38.1923	495.665	22.1711
-38.1903	494.526	22.1907
-38.1891	502.192	22.2102
-38.1856	495.757	22.2297
-38.18504	490.282	22.2493
-38.1838	499.263	22.2688
-38.1816	499.773	22.28833
-38.182	493.331	22.3079
-38.17926	497.359	22.3274
-38.1769	496.301	22.3469
-38.176	492.717	22.3665
-38.1748	494.462	22.386
-38.1733	500.402	22.4055
-38.1712	493.898	22.425
-38.1693	496.711	22.44458
-38.1683	498.1734	22.4641
-38.16581	497.467	22.4836
-38.1647	492.918	22.5032
-38.1621	501.004	22.5227
-38.1612	498.381	22.5422
-38.1596	495.033	22.5618
-38.1564	495.8367	22.5813
-38.1562	499.004	22.60083
-38.1551	492.596	22.6204
-38.1534	499.363	22.6399
-38.1523	498.795	22.6594
-38.14962	493.4386	22.679
-38.149	494.0842	22.6985
-38.1457	502.995	22.718
-38.1452	495.781	22.7375
-38.1423	494.928	22.75708
-38.1425	500.94	22.7766
-38.1393	496.4	22.7961
-38.1382	491.181	22.8157
-38.1361	500.189	22.8352
-38.1349	496.776	22.8547
-38.1337	492.205	22.8743
-38.1333	501.765	22.8938
-38.1301	495.258	22.91333
-38.1294	491.085	22.9329
-38.1273	497.539	22.9524
-38.1257	501.764	22.9719
-38.1227	493.453	22.9915
-38.1227	497.5	23.011
-38.1215	496.231	23.0305
-38.1174	494.929	23.05
-38.1171	493.9566	23.06958
-38.1152	502.039	23.0891
-38.1147	493.969	23.1086
-38.1124	495.6575	23.1282
-38.11132	496.676	23.1477
-38.1095	498.043	23.1672
-38.1072	492.844	23.1868
-38.10495	498.594	23.2063
-38.1048	498.2388	23.22583
-38.1024	493.7	23.2454
-38.1018	494.765	23.2649
-38.0997	499.755	23.2844
-38.0981	492.845	23.304
-38.0954	497.499	23.3235
-38.0948	501.533	23.343
-38.0924	493.08	23.3625
-38.0927	490.388	23.38208
-38.0894	500.9585	23.4016
-38.0874	495.401	23.4211
-38.0858	493.181	23.4407
-38.0847	499.453	23.4602
-38.0825	495.676	23.4797
-38.0815	490.861	23.4993
-38.0801	498.691	23.5188
-38.079	497.6358	23.53833
-38.0769	491.6333	23.5579
-38.0748	498.019	23.5774
-38.0737	496.442	23.5969
-38.0718	492.766	23.6165
-38.0702	494.772	23.636
-38.0691	499.803	23.6555
-38.0668	493.3392	23.675
-38.0641	495.101	23.69458
-38.0633	496.411	23.7141
-38.0617	495.566	23.7336
-38.0614	494.342	23.7532
-38.0587	500.2973	23.7727
-38.0565	495.406	23.7922
-38.0564	492.385	23.8118
-38.0533	495.476	23.8313
-38.0523	500.049	23.85083
-38.0494	490.943	23.8704
-38.048	497.399	23.8899
-38.0479	498.828	23.9094
-38.04562	493.668	23.929
-38.0437	492.708	23.9485
-38.0416	499.813	23.968
-38.0403	491.143	23.9875
-38.0389	493.819	24.00708
-38.0378	500.716	24.0266
-38.036	493.1795	24.0461
-38.0357	489.591	24.0657
-38.0325	499.836	24.0852
-38.0307	496.8342	24.1047
-38.0298	489.846	24.1243
-38.028	497.809	24.1438
-38.0253	494.771	24.16333
-38.0243	491.082	24.1829
-38.0217	496.687	24.2024
-38.0206	498.651	24.2219
-38.0194	490.7182	24.2415
-38.0184	495.729	24.261
-38.0161	496.414	24.2805
-38.015	494.086	24.3
-38.0129	492.551	24.31958
-38.0099	498.851	24.3391
-38.0112	494.812	24.3586
-38.0081	494.406	24.3782
-38.0078	493.84	24.3977
-38.0052	495.294	24.4172
-38.0026	491.312	24.4368
-38.0002	498.113	24.4563
-38	497.24	24.47583
-37.9986	491.983	24.4954
-37.9973	491.886	24.5149
-37.994	499.687	24.5344
-37.99342	492.196	24.554
-37.9909	494.059	24.5735
-37.9897	497.414	24.593
-37.9888	492.98	24.6125
-37.9866	490.692	24.63208
-37.9854	499.102	24.6516
-37.98317	491.962	24.6711
-37.9819	491.417	24.6907
-37.981	499.618	24.7102
-37.9791	493.443	24.7297
-37.9775	488.849	24.7493
-37.9756	496.08	24.7688
-37.974	497.064	24.78833
-37.97224	490.509	24.8079
-37.9701	497.204	24.8274
-37.9684	494.586	24.8469
-37.9671	490.25	24.8665
-37.9653	493.794	24.886
-37.9658	499.17	24.9055
-37.9621	490.874	24.925
-37.961	494.0733	24.94458
-37.9595	494.934	24.9641
-37.958	494.855	24.9836
-37.9559	491.146	25.0032
-37.9539	497.411	25.0227
-37.9526	494.762	25.0422
-37.9514	494.028	25.0618
-37.9494	494.654	25.0813
-37.9482	498.194	25.10083
-37.9466	488.582	25.1204
-37.9445	496.797	25.1399
-37.9428	497.475	25.1594
-37.9416	490.231	25.179
-37.9386	490.6528	25.1985
-37.9379	498.474	25.218
-37.9367	492.081	25.2375
-37.936	493.154	25.25708
-37.933	495.9733	25.2766
-37.9319	490.983	25.2961
-37.93074	487.96	25.3157
-37.9288	497.902	25.3352
-37.9265	494.157	25.3547
-37.9255	487.019	25.3743
-37.9243	496.155	25.3938
-37.9216	493.724	25.41333
-37.9208	488.278	25.4329
-37.9191	494.552	25.4524
-37.916	496.36	25.4719
-37.9153	490.665	25.4915
-37.9139	494.801	25.511
-37.91214	495.138	25.5305
-37.9106	492.813	25.55
-37.9099	492.009	25.56958
-37.9076	498.514	25.5891
-37.9054	493.283	25.6086
-37.904	491.375	25.6282
-37.9021	492.676	25.6477
-37.9004	496.463	25.6672
-37.89901	490.807	25.6868
-37.8968	493.955	25.7063
-37.8976	494.388	25.72583
-37.8938	490.543	25.7454
-37.8928	492.945	25.7649
-37.8907	498.0386	25.7844
-37.8891	489.214	25.804
-37.8874	493.014	25.8235
-37.8875	497.965	25.843
-37.8847	490.831	25.8625
-37.8836	488.175	25.88208
-37.8813	496.868	25.9016
-37.879	492.304	25.9211
-37.8779	488.931	25.9407
-37.8767	495.521	25.9602
-37.8756	492.203	25.9797
-37.873	488.81	25.9993
-37.87257	496.766	26.0188
-37.8706	495.969	26.03833
-37.8689	489.863	26.0579
-37.8667	495.8877	26.0774
-37.8651	493.136	26.0969
-37.8628	490.452	26.1165
-37.8607	491.507	26.136
-37.8611	497.336	26.1555
-37.8579	491.556	26.175
-37.8583	493.731	26.19458
-37.8557	492.701	26.2141
-37.8542	491.304	26.2336
-37.8508	489.1449	26.2532
-37.85104	497.405	26.2727
-37.848	493.851	26.2922
-37.8481	490.42	26.3118
-37.845	490.4223	26.3313
-37.84428	495.456	26.35083
-37.8424	489.39	26.3704
-37.8407	495.483	26.3899
-37.839	495.299	26.4094
-37.8374	488.994	26.429
-37.8355	488.536	26.4485
-37.8345	497.795	26.468
-37.8328	488.589	26.4875
-37.8306	488.955	26.50708
-37.8284	496.584	26.5266
-37.8276	492.072	26.5461
-37.8267	488.27	26.5657
-37.8239	494.971	26.5852
-37.8223	492.476	26.6047
-37.8213	490.252	26.6243
-37.8195	495.8609	26.6438
-37.817	492.573	26.66333
-37.8157	488.367	26.6829
-37.8139	494.521	26.7024
-37.81279	495.712	26.7219
-37.8114	488.521	26.7415
-37.8104	492.732	26.761
-37.8082	492.515	26.7805
-37.8073	490.627	26.8
-37.8052	490.207	26.81958
-37.8027	495.429	26.8391
-37.8015	493.599	26.8586
-37.8002	491.4	26.8782
-37.7986	492.36	26.8977
-37.7963	494.306	26.9172
-37.7943	486.227	26.9368
-37.7935	495.6358	26.9563
-37.7916	495.639	26.97583
-37.7911	490.374	26.9954
-37.7877	489.185	27.0149
-37.7866	496.116	27.0344
-37.7856	488.7496	27.054
-37.7829	492.3671	27.0735
-37.7828	495.334	27.093
-37.78088	488.692	27.1125
-37.7792	487.576	27.13208
-37.777	496.297	27.1516
-37.7769	490.2	27.1711
-37.7743	488.139	27.1907
-37.773	495.8645	27.2102
-37.7706	490.659	27.2297
-37.7686	487.31	27.2493
-37.7666	493.972	27.2688
-37.7656	494.028	27.28833
-37.7636	488.235	27.3079
-37.762	496.478	27.3274
-37.7603	493.276	27.3469
-37.7578	487.278	27.3665
-37.7585	490.239	27.386
-37.7558	497.756	27.4055
-37.7545	489.731	27.425
-37.7533	491.421	27.44458
-37.7521	493.34	27.4641
-37.7488	491.117	27.4836
-37.7481	489.451	27.5032
-37.7459	494.34	27.5227
-37.7447	491.74	27.5422
-37.7433	488.779	27.5618
-37.741	490.642	27.5813
-37.7394	495.766	27.60083
-37.7383	485.7912	27.6204
-37.736	493.927	27.6399
-37.73481	495.2467	27.6594
-37.7337	489.144	27.679
-37.7313	487.586	27.6985
-37.7305	494.93	27.718
-37.7281	490.5087	27.7375
-37.7273	491.067	27.75708
-37.7255	495.59	27.7766
-37.7236	488.382	27.7961
-37.7213	485.998	27.8157
-37.7203	496.544	27.8352
-37.7186	492.436	27.8547
-37.7172	486.722	27.8743
-37.71479	494.619	27.8938
-37.714	489.8446	27.91333
-37.712	486.872	27.9329
-37.7112	491.282	27.9524
-37.709	495.391	27.9719
-37.708	487.867	27.9915
-37.7055	492.726	28.011
-37.70459	491.738	28.0305
-37.7023	488.966	28.05
-37.6999	489.758	28.06958
-37.6989	496.215	28.0891
-37.6964	490.892	28.1086
-37.6956	489.249	28.1282
-37.6936	491.961	28.1477
-37.6927	494.076	28.1672
-37.6911	488.767	28.1868
-37.6896	493.8429	28.2063
-37.6877	491.796	28.22583
-37.687	489.279	28.2454
-37.6846	489.338	28.2649
-37.682	495.119	28.2844
-37.6805	486.3924	28.304
-37.6802	490.976	28.3235
-37.6784	495.678	28.343
-37.67569	489.7334	28.3625
-37.6744	486.724	28.38208
-37.6731	495.3541	28.4016
-37.6701	490.287	28.4211
-37.6697	488.574	28.4407
-37.6677	494.493	28.4602
-37.6669	488.27	28.4797
-37.6656	484.704	28.4993
-37.6634	492.606	28.5188
-37.661	494.29	28.53833
-37.65966	486.41	28.5579
-37.6588	491.561	28.5774
-37.6573	491.563	28.5969
-37.6551	487.713	28.6165
-37.6536	490.92	28.636
-37.6515	492.646	28.6555
-37.6506	486.929	28.675
-37.6489	491.089	28.69458
-37.6449	492.471	28.7141
-37.64513	491.146	28.7336
-37.6432	486.507	28.7532
-37.64201	494.804	28.7727
-37.64	491.969	28.7922
-37.6384	489.433	28.8118
-37.6379	488.969	28.8313
-37.6356	494.241	28.85083
-37.6342	488.658	28.8704
-37.6334	493.254	28.8899
-37.6316	493.672	28.9094
-37.6301	486.089	28.929
-37.6275	486.709	28.9485
-37.6268	496.55	28.968
-37.6233	486.445	28.9875
-37.62212	487.715	29.00708
-37.6209	492.4725	29.0266
-37.619	487.721	29.0461
-37.6181	485.004	29.0657
-37.6155	493.566	29.0852
-37.61475	490.414	29.1047
-37.613	486.808	29.1243
-37.6117	493.562	29.1438
-37.61	490.419	29.16333
-37.60701	484.858	29.1829
-37.60675	489.922	29.2024
-37.6052	493.41	29.2219
-37.6022	485.797	29.2415
-37.6009	490.406	29.261
-37.5998	489.24	29.2805
-37.5983	486.859	29.3
-37.5965	490.1	29.31958
-37.595	494.048	29.3391
-37.5931	489.366	29.3586
-37.5917	487.429	29.3782
-37.5894	491.007	29.3977
-37.5889	492.912	29.4172
-37.5868	483.863	29.4368
-37.5856	491.845	29.4563
-37.5842	492.612	29.47583
-37.5817	486.004	29.4954
-37.5807	486.761	29.5149
-37.57951	493.575	29.5344
-37.57761	486.967	29.554
-37.5749	491.187	29.5735
-37.57375	494.371	29.593
-37.5714	486.813	29.6125
-37.5714	485.916	29.63208
-37.56802	495.184	29.6516
-37.5671	489.692	29.6711
-37.56546	486.927	29.6907
-37.5634	494.13	29.7102
-37.5623	488.724	29.7297
-37.5605	487.77	29.7493
-37.5597	493.002	29.7688
-37.5582	490.724	29.78833
-37.5572	484.844	29.8079
-37.5555	492.715	29.8274
-37.5521	491.636	29.8469
-37.5511	486.686	29.8665
-37.5497	488.646	29.886
-37.5486	493.023	29.9055
-37.5467	487.334	29.925
-37.5441	489.374	29.94458
-37.5421	489.177	29.9641
-37.5414	488.619	29.9836
-37.53981	487.06	30.0032
-37.5378	495.3699	30.0227
-37.5351	490.271	30.0422
-37.53466	486.17	30.0618
-37.5326	489.6488	30.0813
-37.5312	494.155	30.10083
-37.52927	486.4054	30.1204
-37.5272	490.91	30.1399
-37.526	493.432	30.1594
-37.52586	487.037	30.179
-37.5234	487.007	30.1985
-37.5224	492.38	30.218
-37.5198	487.329	30.2375
-37.5179	488.145	30.25708
-37.51635	494.259	30.2766
-37.5143	487.485	30.2961
-37.5136	483.055	30.3157
-37.5113	493.255	30.3352
-37.5101	489.807	30.3547
-37.5091	484.097	30.3743
-37.5075	491.879	30.3938
-37.5062	488.803	30.41333
-37.5042	485.663	30.4329
-37.5021	489.509	30.4524
-37.5013	492.056	30.4719
-37.4988	484.973	30.4915
-37.4964	491.126	30.511
-37.49654	490.353	30.5305
-37.4942	486.756	30.55
-37.4934	485.835	30.56958
-37.4889	494.161	30.5891
-37.4894	488.504	30.6086
-37.4868	486.825	30.6282
-37.4842	488.773	30.6477
-37.4848	490.104	30.6672
-37.4827	484.479	30.6868
-37.4801	492.44	30.7063
-37.4798	492.149	30.72583
-37.4773	484.41	30.7454
-37.476	486.647	30.7649
-37.4748	492.9765	30.7844
-37.4729	484.31	30.804
-37.4708	488.221	30.8235
-37.4694	492.765	30.843
-37.4681	486.841	30.8625
-37.466	485.425	30.88208
-37.464	493.068	30.9016
-37.4643	486.29	30.9211
-37.4615	486.324	30.9407
-37.4606	492.538	30.9602
-37.4574	487.297	30.9797
-37.4559	482.704	30.9993
-37.4538	490	31.0188
-37.4532	491.982	31.03833
-37.4522	484.973	31.0579
-37.4506	490.798	31.0774
-37.44767	487.6355	31.0969
-37.4466	484.06	31.1165
-37.4458	488.83	31.136
-37.4443	493.558	31.1555
-37.4415	483.875	31.175
-37.4398	487.871	31.19458
-37.4373	489.399	31.2141
-37.4372	488.286	31.2336
-37.4354	485.524	31.2532
-37.434	492.7785	31.2727
-37.4323	489.007	31.2922
-37.4315	487.276	31.3118
-37.4299	486.77	31.3313
-37.4268	490.849	31.35083
-37.42585	483.396	31.3704
-37.4233	490.576	31.3899
-37.4224	493.55	31.4094
-37.4204	485.271	31.429
-37.4196	484.081	31.4485
-37.4178	492.027	31.468
-37.416	486.345	31.4875
-37.4146	486.483	31.50708
-37.4121	491.991	31.5266
-37.4112	487.267	31.5461
-37.4096	483.89	31.5657
-37.4081	491.62	31.5852
-37.4055	487.177	31.6047
-37.40443	484.209	31.6243
-37.4029	491.399	31.6438
-37.40126	488.083	31.66333
-37.3992	484.749	31.6829
-37.3976	487.559	31.7024
-37.3962	490.049	31.7219
-37.39526	485.754	31.7415
-37.3938	489.294	31.761
-37.3926	487.764	31.7805
-37.3902	485.193	31.8
-37.3887	485.991	31.81958
-37.386	494.0477	31.8391
-37.3838	486.6214	31.8586
-37.3828	486.229	31.8782
-37.3824	488.492	31.8977
-37.3804	491.578	31.9172
-37.3774	482.7897	31.9368
-37.3769	490.378	31.9563
-37.3743	488.431	31.97583
-37.3736	485.3255	31.9954
-37.3723	486.174	32.0149
-37.3706	492.098	32.0344
-37.369	481.953	32.054
-37.3682	486.1846	32.0735
-37.3657	492.333	32.093
-37.3636	486.888	32.1125
-37.3623	482.928	32.13208
-37.3605	492.902	32.1516
-37.3602	487.408	32.1711
-37.3579	483.451	32.1907
-37.35516	490.651	32.2102
-37.3545	485.847	32.2297
-37.3525	482.88	32.2493
-37.3508	489.467	32.2688
-37.3482	489.608	32.28833
-37.3471	483.306	32.3079
-37.3462	489.833	32.3274
-37.3443	486.835	32.3469
-37.3429	484.059	32.3665
-37.341	484.819	32.386
-37.3391	491.124	32.4055
-37.33696	485.3985	32.425
-37.33606	487.7	32.44458
-37.3328	488.112	32.4641
-37.3322	486.829	32.4836
-37.3325	482.047	32.5032
-37.3294	491.966	32.5227
-37.3277	487.313	32.5422
-37.3267	484.2305	32.5618
-37.3248	486.584	32.5813
-37.323	490.496	32.60083
-37.3211	483.366	32.6204
-37.3192	487.527	32.6399
-37.3183	491.0592	32.6594
-37.3164	484.143	32.679
-37.3155	484.977	32.6985
-37.3134	492.167	32.718
-37.3106	483.495	32.7375
-37.3093	485.134	32.75708
-37.3092	491.681	32.7766
-37.3066	485.385	32.7961
-37.3048	482.017	32.8157
-37.3049	490.005	32.8352
-37.3014	487.261	32.8547
-37.3002	482.068	32.8743
-37.2989	489.912	32.8938
-37.2974	485.659	32.91333
-37.2957	481.71	32.9329
-37.2937	487.426	32.9524
-37.2924	490.529	32.9719
-37.2896	481.945	32.9915
-37.2884	488.373	33.011
-37.288	486.746	33.0305
-37.2846	485.032	33.05
-37.2846	484.163	33.06958
-37.2824	490.96	33.0891
-37.28014	485.696	33.1086
-37.27927	485.456	33.1282
-37.2765	488.326	33.1477
-37.2753	487.305	33.1672
-37.2749	480.637	33.1868
-37.2725	488.3833	33.2063
-37.2714	489.854	33.22583
-37.2688	483.577	33.2454
-37.26796	483.819	33.2649
-37.2656	488.675	33.2844
-37.2646	482.914	33.304
-37.2627	486.3381	33.3235
-37.2612	490.311	33.343
-37.259	483.754	33.3625
-37.2583	481.86	33.38208
-37.2566	491.6969	33.4016
-37.2538	484.682	33.4211
-37.2534	480.843	33.4407
-37.2512	491.626	33.4602
-37.2514	485.415	33.4797
-37.2488	481.19	33.4993
-37.2458	488.888	33.5188
-37.2451	487.811	33.53833
-37.24268	482.471	33.5579
-37.2412	488.36	33.5774
-37.2388	484.422	33.5969
-37.2392	481.28	33.6165
-37.2366	484.583	33.636
-37.2336	490.314	33.6555
-37.23304	484.3454	33.675
-37.2311	484.76	33.69458
-37.2304	485.479	33.7141
-37.2293	485.591	33.7336
-37.2273	482.73	33.7532
-37.2246	489.651	33.7727
-37.2232	485.207	33.7922
-37.2229	482.44	33.8118
-37.221	485.145	33.8313
-37.2191	488.133	33.85083
-37.2175	480.067	33.8704
-37.2155	487.658	33.8899
-37.214	489.862	33.9094
-37.2124	482.212	33.929
-37.21077	481.747	33.9485
-37.2091	487.95	33.968
-37.2073	482.145	33.9875
-37.2054	483.257	34.00708
-37.2033	489.168	34.0266
-37.20211	482.588	34.0461
-37.2016	480.153	34.0657
-37.1997	489.779	34.0852
-37.1981	484.902	34.1047
-37.19656	480.385	34.1243
-37.19392	487.509	34.1438
-37.1933	484.664	34.16333
-37.1915	481.003	34.1829
-37.1901	482.417	34.2024
-37.1878	487.554	34.2219
-37.186	481.234	34.2415
-37.1842	486.231	34.261
-37.1837	485.696	34.2805
-37.1814	482.076	34.3
-37.1796	480.977	34.31958
-37.1781	488.995	34.3391
-37.17659	485.447	34.3586
-37.1751	482.385	34.3782
-37.1738	483.464	34.3977
-37.1723	487.086	34.4172
-37.1699	480.806	34.4368
-37.1685	486.572	34.4563
-37.1671	486.0166	34.47583
-37.1652	479.496	34.4954
-37.1642	482.24	34.5149
-37.1613	487.386	34.5344
-37.1605	478.54	34.554
-37.1591	482.726	34.5735
-37.1581	487.584	34.593
-37.15464	480.919	34.6125
-37.154	480.317	34.63208
-37.152	486.653	34.6516
-37.1505	480.986	34.6711
-37.1484	479.497	34.6907
-37.1476	488.404	34.7102
-37.1457	481.493	34.7297
-37.1432	477.329	34.7493
-37.1431	484.738	34.7688
-37.1406	485.619	34.78833
-37.1388	478.324	34.8079
-37.138	483.484	34.8274
-37.1363	483.512	34.8469
-37.1336	479.879	34.8665
-37.1327	481.684	34.886
-37.1301	486.926	34.9055
-37.129	479.785	34.925
-37.1274	481.127	34.94458
-37.1261	483.475	34.9641
-37.1242	481.997	34.9836
-37.1224	476.371	35.0032
-37.1219	485.769	35.0227
-37.1204	482.555	35.0422
-37.1174	480.331	35.0618
-37.1156	480.135	35.0813
-37.1151	483.8356	35.10083
-37.1119	477.731	35.1204
-37.112	482.897	35.1399
-37.1098	484.989	35.1594
-37.1077	476.455	35.179
-37.106	477.917	35.1985
-37.1047	486.3588	35.218
-37.103	478.727	35.2375
-37.1019	477.666	35.25708
-37.1001	484.423	35.2766
-37.09893	478.513	35.2961
-37.0968	476.052	35.3157
-37.0942	482.538	35.3352
-37.0937	480.437	35.3547
-37.0916	477.268	35.3743
-37.08976	483.487	35.3938
-37.0871	478.539	35.41333
-37.0871	473.3967	35.4329
-37.08535	480.408	35.4524
-37.0831	484.455	35.4719
-37.0819	476.72	35.4915
-37.0801	480.161	35.511
-37.0803	479.353	35.5305
-37.07679	477.806	35.55
-37.0758	476.502	35.56958
-37.0737	482.888	35.5891
-37.0719	478.497	35.6086
-37.0708	474.805	35.6282
-37.0689	478.983	35.6477
-37.0665	479.598	35.6672
-37.0662	473.268	35.6868
-37.0642	478.816	35.7063
-37.0628	480.256	35.72583
-37.0606	474.466	35.7454
-37.05978	473.186	35.7649
-37.05682	479.794	35.7844
-37.0564	471.618	35.804
-37.054	475.5603	35.8235
-37.054	477.548	35.843
-37.0509	471.184	35.8625
-37.0496	469.031	35.88208
-37.0482	478.599	35.9016
-37.0457	473.129	35.9211
-37.0447	467.48	35.9407
-37.04319	475.065	35.9602
-37.0412	471.192	35.9797
-37.0401	467.122	35.9993
-37.0381	471.521	36.0188
-37.0381	468.692	36.03833
-37.0354	463.412	36.0579
-37.0338	469.135	36.0774
-37.0329	148.9968	36.0969
-37.0276	-57.8722	36.1165
-37.0261	-32.3428	36.136
-37.0246	-41.11536	36.1555
-37.0241	-43.0277	36.175
-37.0231	-41.2232	36.19458
-37.0202	-42.177	36.2141
-37.018	-39.9911	36.2336
-37.0173	-42.7862	36.2532
-37.01693	-36.5096	36.2727
-37.0149	-41.7294	36.2922
-37.0123	-42.7533	36.3118
-37.0124	-42.879	36.3313
-37.0107	-37.4229	36.35083
-37.007	-45.8052	36.3704
-37.0074	-40.0806	36.3899
-37.0059	-38.1703	36.4094
-37.0033	-44.2466	36.429
-37.001	-43.1251	36.4485
-37.0006	-37.89856	36.468
-36.9997	-44.712	36.4875
-36.9974	-42.7706	36.50708
-36.9952	-38.2767	36.5266
-36.99374	-46.0139	36.5461
-36.9923	-47.6074	36.5657
-36.9906	-37.8987	36.5852
-36.98938	-40.7938	36.6047
-36.9879	-45.3546	36.6243
-36.9859	-39.4025	36.6438
-36.9841	-41.67794	36.66333
-36.9837	-45.2388	36.6829
-36.981	-40.8864	36.7024
-36.977	-38.5863	36.7219
-36.9782	-45.3377	36.7415
-36.97681	-39.9742	36.761
-36.9748	-40.26532	36.7805
-36.9728	-42.5295	36.8
-36.9713	-45.0132	36.81958
-36.96973	-38.577	36.8391
-36.9682	-41.9591	36.8586
-36.9661	-42.8226	36.8782
-36.9644	-41.4488	36.8977
-36.9631	-40.042	36.9172
-36.9613	-46.0153	36.9368
-36.9588	-37.3153	36.9563
-36.9579	-39.7016	36.97583
-36.95676	-45.4974	36.9954
-36.95546	-44.1174	37.0149
-36.954	-37.4926	37.0344
-36.9517	-45.0967	37.054
-36.9502	-43.7063	37.0735
-36.9487	-37.5685	37.093
-36.94722	-43.42503	37.1125
-36.9458	-45.5901	37.13208
-36.9432	-38.637	37.1516
-36.9411	-44.0331	37.1711
-36.941	-45.4422	37.1907
-36.9384	-38.2201	37.2102
-36.9371	-43.7828	37.2297
-36.9346	-46.7015	37.2493
-36.9352	-39.9164	37.2688
-36.9326	-40.0452	37.28833
-36.9316	-46.08577	37.3079
-36.9281	-39.8552	37.3274
-36.9283	-42.9339	37.3469
-36.9258	-44.5774	37.3665
-36.9245	-42.3135	37.386
-36.9223	-37.2675	37.4055
-36.9209	-44.51	37.425
-36.9201	-42.8083	37.44458
-36.9184	-40.7802	37.4641
-36.916	-42.3386	37.4836
-36.9152	-46.7876	37.5032
-36.9125	-39.7192	37.5227
-36.9108	-41.4909	37.5422
-36.9082	-42.6819	37.5618
-36.908	-42.2541	37.5813
-36.906	-38.91827	37.60083
-36.90321	-47.03717	37.6204
-36.9031	-40.0974	37.6399
-36.902	-37.6838	37.6594
-36.8997	-44.8916	37.679
-36.8982	-46.5726	37.6985
-36.89658	-36.313	37.718
-36.8952	-43.7705	37.7375
-36.8933	-44.1517	37.75708
-36.8925	-38.1272	37.7766
-36.8898	-44.5791	37.7961
-36.8883	-44.3913	37.8157
-36.887	-37.5736	37.8352
-36.88501	-41.4432	37.8547
-36.8825	-45.2251	37.8743
-36.8822	-37.7645	37.8938
-36.8799	-41.9919	37.91333
-36.8785	-44.2258	37.9329
-36.8778	-41.8982	37.9524
-36.8749	-37.8978	37.9719
-36.8735	-43.9708	37.9915
-36.8721	-38.8896	38.011
-36.8704	-39.18298	38.0305
-36.8688	-42.9337	38.05
-36.8666	-45.0664	38.06958
-36.864	-34.5816	38.0891
-36.8638	-41.5624	38.1086
-36.86166	-42.1561	38.1282
-36.8604	-40.5956	38.1477
-36.85886	-37.5229	38.1672
-36.8575	-43.74197	38.1868
-36.8561	-39.4661	38.2063
-36.8547	-37.869	38.22583
-36.8524	-43.2935	38.2454
-36.851	-42.9654	38.2649
-36.8488	-38.4695	38.2844
-36.8474	-45.31601	38.304
-36.8466	-40.661	38.3235
-36.845	-38.082	38.343
-36.8423	-42.5169	38.3625
-36.8401	-46.9922	38.38208
-36.8389	-38.23703	38.4016
-36.8378	-41.40168	38.4211
-36.8354	-44.8979	38.4407
-36.8347	-37.543	38.4602
-36.8337	-44.3602	38.4797
-36.8316	-45.3443	38.4993
-36.8304	-39.5688	38.5188
-36.82692	-38.6999	38.53833
-36.8268	-46.15657	38.5481