File: data/processed_data_files/tensile/0.254_hd_dimension_typeiv_090_r(3).dat
MTS793|BTW|ENU|1|2|.|/|:|1|0|0|A

Data Header:			0.254_hd_dimension_typeiv_090_r0			Time:	20.0186	s	4/14/2019 12:29:34 AM
Data Acquisition:	Timed
Station Name:	ft40.cfg
Test File Name:	monotonic_0.2540_typeiv_hd_090_dimension.tst
Displacement	Force	Running Time
mm	N	s
-40.0405	-139.122	0.0224609
-40.0407	-140.8233	0.0419922
-40.0392	-142.621	0.0615234
-40.0386	-142.791	0.0810547
-40.0383	-136.742	0.100586
-40.0356	-138.903	0.120117
-40.0349	-135.388	0.139648
-40.0319	-134.677	0.15918
-40.0299	-133.514	0.178711
-40.0285	-137.827	0.198242
-40.0285	-129.406	0.217773
-40.0262	-130.07	0.237305
-40.0248	-131.408	0.256836
-40.0232	-133.189	0.276367
-40.0216	-125.121	0.295898
-40.0205	-131.2126	0.31543
-40.0174	-125.548	0.334961
-40.0156	-121.519	0.354492
-40.0142	-126.018	0.374023
-40.0143	-126.469	0.393555
-40.0115	-115.831	0.413086
-40.0094	-123.877	0.432617
-40.008	-123.68	0.452148
-40.0067	-115.5	0.47168
-40.0047	-116.704	0.491211
-40.0036	-122.937	0.510742
-40.0007	-113.894	0.530273
-40.0002	-115.916	0.549805
-39.9981	-118.526	0.569336
-39.9968	-111.04	0.588867
-39.9961	-112.705	0.608398
-39.9927	-115.947	0.62793
-39.9924	-110.24	0.647461
-39.9903	-105.919	0.666992
-39.9889	-111.093	0.686523
-39.9871	-107.667	0.706055
-39.986	-104.9	0.725586
-39.9836	-104.874	0.745117
-39.98241	-106.478	0.764648
-39.9809	-100.555	0.78418
-39.9786	-102.073	0.803711
-39.9773	-102.529	0.823242
-39.9755	-99.9261	0.842773
-39.9739	-96.1219	0.862305
-39.9717	-103.49	0.881836
-39.9702	-96.1198	0.901367
-39.9685	-91.0805	0.920898
-39.96714	-95.0175	0.94043
-39.9667	-97.37822	0.959961
-39.9635	-89.44133	0.979492
-39.9643	-94.4311	0.999023
-39.9606	-91.5722	1.01855
-39.959	-87.0095	1.03809
-39.9564	-89.9929	1.05762
-39.9562	-93.5781	1.07715
-39.9543	-83.2802	1.09668
-39.9519	-86.0799	1.11621
-39.9504	-89.5154	1.13574
-39.949	-81.4381	1.15527
-39.9492	-81.9257	1.1748
-39.9468	-86.647	1.19434
-39.9452	-80.6403	1.21387
-39.9427	-78.1585	1.2334
-39.9408	-82.7182	1.25293
-39.9398	-77.4076	1.27246
-39.9377	-75.8311	1.29199
-39.9372	-79.4291	1.31152
-39.9347	-78.0583	1.33105
-39.9337	-70.681	1.35059
-39.9317	-74.3515	1.37012
-39.9306	-72.5322	1.38965
-39.9292	-72.3677	1.40918
-39.9257	-69.429	1.42871
-39.9258	-72.47184	1.44824
-39.9245	-65.7502	1.46777
-39.9214	-65.888	1.4873
-39.9192	-67.4011	1.50684
-39.9191	-68.5377	1.52637
-39.9165	-60.6436	1.5459
-39.9151	-65.7402	1.56543
-39.9145	-64.212	1.58496
-39.9126	-57.6378	1.60449
-39.9098	-61.5086	1.62402
-39.90844	-64.1689	1.64355
-39.9072	-54.2006	1.66309
-39.9059	-58.3326	1.68262
-39.9035	-57.8184	1.70215
-39.9025	-51.7055	1.72168
-39.9016	-54.1484	1.74121
-39.8997	-57.72858	1.76074
-39.898	-48.147	1.78027
-39.896	-50.3476	1.7998
-39.895	-55.1919	1.81934
-39.8918	-48.4352	1.83887
-39.8907	-46.1373	1.8584
-39.8893	-52.1933	1.87793
-39.88842	-48.0883	1.89746
-39.8873	-43.8268	1.91699
-39.8837	-46.8027	1.93652
-39.8832	-42.8119	1.95605
-39.8823	-41.3177	1.97559
-39.88	-43.1724	1.99512
-39.8781	-45.6445	2.01465
-39.8756	-36.4205	2.03418
-39.8745	-39.1839	2.05371
-39.873	-38.5785	2.07324
-39.8712	-37.9244	2.09277
-39.8706	-32.6715	2.1123
-39.8682	-38.6984	2.13184
-39.8684	-33.17078	2.15137
-39.86433	-31.6878	2.1709
-39.8641	-33.061	2.19043
-39.8611	-33.294	2.20996
-39.8605	-26.4476	2.22949
-39.8575	-33.7351	2.24902
-39.8571	-30.2036	2.26855
-39.8548	-22.1808	2.28809
-39.8537	-25.3737	2.30762
-39.8519	-28.4798	2.32715
-39.8496	-22.1278	2.34668
-39.8496	-23.8152	2.36621
-39.8469	-23.6646	2.38574
-39.8454	-18.8338	2.40527
-39.8442	-18.61517	2.4248
-39.8416	-24.7602	2.44434
-39.84	-17.4715	2.46387
-39.84	-15.5497	2.4834
-39.8366	-20.9395	2.50293
-39.8348	-14.3252	2.52246
-39.8345	-14.272	2.54199
-39.8331	-15.4815	2.56152
-39.8314	-15.31882	2.58105
-39.8298	-9.52332	2.60059
-39.8277	-13.1769	2.62012
-39.8253	-9.4272	2.63965
-39.8243	-7.54281	2.65918
-39.8231	-6.59576	2.67871
-39.8207	-12.16495	2.69824
-39.8193	-3.83142	2.71777
-39.8183	-2.89526	2.7373
-39.8156	-5.70353	2.75684
-39.8157	-5.54741	2.77637
-39.8129	0.883072	2.7959
-39.8102	-5.27645	2.81543
-39.8095	-0.146002	2.83496
-39.8092	3.22417	2.85449
-39.806	0.988132	2.87402
-39.8053	-1.785073	2.89355
-39.8029	9.8691	2.91309
-39.8016	4.24072	2.93262
-39.8003	1.9068	2.95215
-39.7985	10.4317	2.97168
-39.7967	8.98167	2.99121
-39.7945	3.20027	3.01074
-39.7946	11.98772	3.03027
-39.7915	10.9755	3.0498
-39.7904	7.34319	3.06934
-39.7884	15.2086	3.08887
-39.7866	14.2447	3.1084
-39.7847	8.82267	3.12793
-39.7835	13.5392	3.14746
-39.782	19.6396	3.16699
-39.78125	16.2238	3.18652
-39.77916	17.099	3.20605
-39.7777	21.5862	3.22559
-39.7752	20.22084	3.24512
-39.77359	17.7338	3.26465
-39.7726	24.945	3.28418
-39.7701	22.0509	3.30371
-39.7697	23.3358	3.32324
-39.768	24.7293	3.34277
-39.7664	29.13792	3.3623
-39.7644	23.2671	3.38184
-39.7638	29.41876	3.40137
-39.7613	33.4905	3.4209
-39.76	29.6126	3.44043
-39.7576	28.8081	3.45996
-39.7562	35.8642	3.47949
-39.755	31.733	3.49902
-39.7527	34.0424	3.51855
-39.7508	39.7997	3.53809
-39.7499	34.4301	3.55762
-39.7486	32.3183	3.57715
-39.7467	43.1381	3.59668
-39.7446	38.8908	3.61621
-39.7434	36.54512	3.63574
-39.741	45.4788	3.65527
-39.7397	44.145	3.6748
-39.7375	38.1491	3.69434
-39.73653	43.8313	3.71387
-39.7357	46.7486	3.7334
-39.733	41.18745	3.75293
-39.7319	49.0972	3.77246
-39.7307	49.1066	3.79199
-39.72794	46.596	3.81152
-39.7265	46.91256	3.83105
-39.7241	54.2396	3.85059
-39.7236	50.9483	3.87012
-39.7219	50.6548	3.88965
-39.72047	52.8262	3.90918
-39.719	55.3898	3.92871
-39.7169	51.9227	3.94824
-39.7151	59.599	3.96777
-39.7139	59.9114	3.9873
-39.7119	57.4947	4.00684
-39.7098	59.1052	4.02637
-39.7082	65.5756	4.0459
-39.7078	55.6064	4.06543
-39.70599	61.9361	4.08496
-39.7047	65.6499	4.10449
-39.7024	62.6129	4.12402
-39.7002	59.7862	4.14355
-39.6989	68.0164	4.16309
-39.698	64.3252	4.18262
-39.6959	65.85807	4.20215
-39.6944	71.0692	4.22168
-39.6923	68.5917	4.24121
-39.6913	65.0061	4.26074
-39.6881	73.58358	4.28027
-39.6865	75.61171	4.2998
-39.6864	68.9075	4.31934
-39.6847	76.1411	4.33887
-39.6826	77.7806	4.3584
-39.6824	74.4427	4.37793
-39.6796	76.3349	4.39746
-39.6787	82.2995	4.41699
-39.6761	76.5545	4.43652
-39.6745	80.9949	4.45605
-39.6747	84.8145	4.47559
-39.6717	82.5513	4.49512
-39.6697	79.4091	4.51465
-39.668	87.8852	4.53418
-39.6665	87.9867	4.55371
-39.6651	84.8206	4.57324
-39.6634	85.068	4.59277
-39.6608	90.941	4.6123
-39.6601	83.7324	4.63184
-39.6582	91.6845	4.65137
-39.6566	93.937	4.6709
-39.6555	89.6626	4.69043
-39.65382	92.0027	4.70996
-39.6516	100.143	4.72949
-39.6512	92.8507	4.74902
-39.6488	93.7409	4.76855
-39.6472	101.454	4.78809
-39.6443	98.4918	4.80762
-39.6442	93.3677	4.82715
-39.6422	103.334	4.84668
-39.64082	102.219	4.86621
-39.64	99.2004	4.88574
-39.6385	107.465	4.90527
-39.6371	103.609	4.9248
-39.6337	99.3961	4.94434
-39.6323	106.762	4.96387
-39.6314	108.862	4.9834
-39.6287	102.833	5.00293
-39.628	107.213	5.02246
-39.6269	109.4245	5.04199
-39.6249	109.435	5.06152
-39.6233	107.769	5.08105
-39.6208	113.766	5.10059
-39.6197	110.4416	5.12012
-39.6177	114.211	5.13965
-39.6155	114.832	5.15918
-39.6136	116.647	5.17871
-39.6124	111.19	5.19824
-39.611	120.595	5.21777
-39.6104	121.857	5.2373
-39.6079	116.883	5.25684
-39.6066	116.873	5.27637
-39.6051	125.01	5.2959
-39.6028	119.655	5.31543
-39.6023	121.745	5.33496
-39.5996	128.631	5.35449
-39.599	124.365	5.37402
-39.5967	122.326	5.39355
-39.5947	131.982	5.41309
-39.5931	126.243	5.43262
-39.5916	124.67	5.45215
-39.5902	131.988	5.47168
-39.5885	133.802	5.49121
-39.5864	127.597	5.51074
-39.5859	133.99	5.53027
-39.5846	134.008	5.5498
-39.58255	130.747	5.56934
-39.5807	139.016	5.58887
-39.5794	136.817	5.6084
-39.5778	134.479	5.62793
-39.577	136.48	5.64746
-39.5734	142.87	5.66699
-39.5721	139.223	5.68652
-39.5717	140.416	5.70605
-39.5696	142.453	5.72559
-39.5676	144.527	5.74512
-39.5659	140.819	5.76465
-39.5651	146.841	5.78418
-39.562	145.827	5.80371
-39.561	145.6	5.82324
-39.5593	146.915	5.84277
-39.5578	152.94	5.8623
-39.5558	145.211	5.88184
-39.5549	151.299	5.90137
-39.5521	154.999	5.9209
-39.5512	151.007	5.94043
-39.5494	149.732	5.95996
-39.5482	157.538	5.97949
-39.5463	152.2103	5.99902
-39.5453	154.336	6.01855
-39.5426	160.402	6.03809
-39.54216	155.722	6.05762
-39.539	153.522	6.07715
-39.5392	163.002	6.09668
-39.53727	161.498	6.11621
-39.5339	158.783	6.13574
-39.5341	164.015	6.15527
-39.5318	166.327	6.1748
-39.5318	161.6869	6.19434
-39.5286	166.272	6.21387
-39.5267	168.899	6.2334
-39.5252	163.398	6.25293
-39.523	170.48	6.27246
-39.5214	170.04	6.29199
-39.5205	167.334	6.31152
-39.5184	168.537	6.33105
-39.5174	176.0155	6.35059
-39.5155	173.071	6.37012
-39.5147	173.22	6.38965
-39.5125	173.996	6.40918
-39.50996	178.942	6.42871
-39.50872	172.954	6.44824
-39.5056	179.658	6.46777
-39.5067	179.078	6.4873
-39.5045	177.643	6.50684
-39.5025	179.943	6.52637
-39.5018	182.741	6.5459
-39.4998	177.062	6.56543
-39.4983	182.852	6.58496
-39.49691	188.9435	6.60449
-39.4943	182.898	6.62402
-39.49461	180.996	6.64355
-39.4905	189.295	6.66309
-39.4899	185.574	6.68262
-39.4884	184.785	6.70215
-39.487	193.357	6.72168
-39.4837	189.401	6.74121
-39.4837	186.835	6.76074
-39.4817	193.7684	6.78027
-39.48	196.2616	6.7998
-39.4781	189.248	6.81934
-39.4769	196.513	6.83887
-39.475	196.142	6.8584
-39.4739	193.457	6.87793
-39.4724	196.762	6.89746
-39.4702	201.5406	6.91699
-39.4685	196.483	6.93652
-39.46624	200.778	6.95605
-39.4644	201.594	6.97559
-39.4633	202.931	6.99512
-39.4618	198.658	7.01465
-39.4608	207.208	7.03418
-39.4586	205.344	7.05371
-39.4564	203.315	7.07324
-39.4553	205.9494	7.09277
-39.4524	211.161	7.1123
-39.4527	204.8956	7.13184
-39.4503	209.827	7.15137
-39.448	212.258	7.1709
-39.4477	208.837	7.19043
-39.4456	209.94	7.20996
-39.4445	217.8342	7.22949
-39.44223	210.909	7.24902
-39.4411	215.499	7.26855
-39.4396	220	7.28809
-39.438	217.5	7.30762
-39.4348	213.041	7.32715
-39.435	219.783	7.34668
-39.4328	220.028	7.36621
-39.431	217.564	7.38574
-39.4297	224.261	7.40527
-39.4276	220.895	7.4248
-39.4261	217.894	7.44434
-39.42382	224.0674	7.46387
-39.4228	227.851	7.4834
-39.4217	220.8714	7.50293
-39.4201	227.916	7.52246
-39.4189	227.103	7.54199
-39.4158	227.316	7.56152
-39.4145	226.718	7.58105
-39.412	233.706	7.60059
-39.41217	229.283	7.62012
-39.4091	231.242	7.63965
-39.4083	234.961	7.65918
-39.4069	234.991	7.67871
-39.4048	228.427	7.69824
-39.4034	239.41	7.71777
-39.4014	240.473	7.7373
-39.4005	233.982	7.75684
-39.3973	235.216	7.77637
-39.3966	242.71	7.7959
-39.3965	237.5506	7.81543
-39.3939	240.0658	7.83496
-39.3915	245.452	7.85449
-39.3902	241.303	7.87402
-39.3891	238.387	7.89355
-39.3873	249.224	7.91309
-39.38607	242.803	7.93262
-39.3843	242.236	7.95215
-39.382	251.034	7.97168
-39.3805	248.33	7.99121
-39.3778	243.005	8.01074
-39.3777	251.359	8.03027
-39.3752	251.443	8.0498
-39.374	247.1	8.06934
-39.37252	254.853	8.08887
-39.372	252.307	8.1084
-39.3692	251.571	8.12793
-39.3682	253.7717	8.14746
-39.36557	259.789	8.16699
-39.3652	254.877	8.18652
-39.3636	255.84	8.20605
-39.3607	259.214	8.22559
-39.3593	260.206	8.24512
-39.35743	256.456	8.26465
-39.3567	263.2724	8.28418
-39.355	262.196	8.30371
-39.3521	261.24	8.32324
-39.3515	262.783	8.34277
-39.3498	265.1507	8.3623
-39.34753	260.691	8.38184
-39.346	267.703	8.40137
-39.3448	271.637	8.4209
-39.343	267.785	8.44043
-39.3413	265.304	8.45996
-39.3391	273.297	8.47949
-39.3383	268.982	8.49902
-39.3371	269.754	8.51855
-39.33498	275.748	8.53809
-39.333	270.163	8.55762
-39.3306	269.876	8.57715
-39.33007	277.801	8.59668
-39.3282	276.402	8.61621
-39.3265	271.334	8.63574
-39.325	281.283	8.65527
-39.3243	279.456	8.6748
-39.3217	277.1467	8.69434
-39.3207	279.166	8.71387
-39.3194	284.478	8.7334
-39.3174	280.27	8.75293
-39.3143	284.515	8.77246
-39.3145	285.384	8.79199
-39.3125	283.139	8.81152
-39.3111	282.234	8.83105
-39.3103	291.007	8.85059
-39.3067	287.207	8.87012
-39.3053	285.92	8.88965
-39.3054	288.683	8.90918
-39.303	291.884	8.92871
-39.301	285.245	8.94824
-39.2988	292.02	8.96777
-39.297	295.49	8.9873
-39.2954	289.849	9.00684
-39.2934	292.422	9.02637
-39.2921	298.076	9.0459
-39.29113	289.764	9.06543
-39.2901	295.406	9.08496
-39.2867	303.087	9.10449
-39.28603	296.167	9.12402
-39.28384	296.924	9.14355
-39.28281	304.272	9.16309
-39.2812	300.422	9.18262
-39.2797	298.631	9.20215
-39.277	305.946	9.22168
-39.277	302.427	9.24121
-39.2753	299.765	9.26074
-39.273	306.475	9.28027
-39.2711	307.402	9.2998
-39.2696	301.182	9.31934
-39.2676	308.354	9.33887
-39.2665	309.489	9.3584
-39.2639	306.289	9.37793
-39.2629	306.313	9.39746
-39.2619	313.536	9.41699
-39.2591	310.602	9.43652
-39.2575	311.215	9.45605
-39.2563	314.29	9.47559
-39.2546	313.566	9.49512
-39.2529	309.429	9.51465
-39.25161	318.435	9.53418
-39.2491	318.729	9.55371
-39.2482	312.878	9.57324
-39.248	316.158	9.59277
-39.2454	322.0654	9.6123
-39.2436	315.937	9.63184
-39.2421	320.107	9.65137
-39.24044	325.5202	9.6709
-39.2383	317.904	9.69043
-39.2362	321.1571	9.70996
-39.236	327.18	9.72949
-39.2333	321.171	9.74902
-39.2325	321.75	9.76855
-39.2299	330.621	9.78809
-39.2285	325.097	9.80762
-39.2276	323.575	9.82715
-39.2266	330.481	9.84668
-39.2242	330.499	9.86621
-39.222	325.811	9.88574
-39.2216	334.534	9.90527
-39.21909	329.706	9.9248
-39.218	329.4715	9.94434
-39.2155	333.5285	9.96387
-39.2143	338.042	9.9834
-39.2131	331.8671	10.00293
-39.21199	336.384	10.0225
-39.2093	338.183	10.042
-39.2074	337.5766	10.0615
-39.2068	334.693	10.0811
-39.2049	342.956	10.1006
-39.2032	340.234	10.1201
-39.2019	339.723	10.1396
-39.2001	342.391	10.15918
-39.1976	343.543	10.1787
-39.1969	339.774	10.1982
-39.195	346.945	10.2178
-39.1946	348.527	10.2373
-39.19138	341.194	10.2568
-39.1896	344.191	10.2764
-39.1893	350.704	10.2959
-39.1863	345.991	10.31543
-39.1845	346.92	10.335
-39.1833	352.165	10.3545
-39.1829	347.336	10.374
-39.1808	348.753	10.3936
-39.1787	357.219	10.4131
-39.1769	351.983	10.4326
-39.1763	348.239	10.4521
-39.17337	359.664	10.47168
-39.1709	353.759	10.4912
-39.171	352.862	10.5107
-39.16954	356.09	10.5303
-39.1663	360.403	10.5498
-39.1659	355.29	10.5693
-39.165	362.46	10.5889
-39.1617	359.2811	10.6084
-39.16095	359.167	10.62793
-39.1589	359.416	10.6475
-39.1573	365.96	10.667
-39.156	361.789	10.6865
-39.1538	362.6626	10.7061
-39.1526	364.583	10.7256
-39.1511	367.098	10.7451
-39.1496	361.274	10.7646
-39.1478	369.084	10.78418
-39.1461	367.234	10.8037
-39.1447	365.621	10.8232
-39.1422	368.341	10.8428
-39.1409	370.789	10.8623
-39.13921	365.772	10.8818
-39.1382	370.705	10.9014
-39.1366	376.759	10.9209
-39.1342	369.431	10.94043
-39.1332	369.533	10.96
-39.1315	378.196	10.9795
-39.1292	373.514	10.999
-39.1281	373.089	11.0186
-39.1266	380.146	11.0381
-39.1242	373.237	11.0576
-39.1234	375.981	11.0771
-39.1221	380.261	11.09668
-39.1196	379.276	11.1162
-39.1193	375.53	11.1357
-39.117	384.862	11.1553
-39.1165	382.835	11.1748
-39.1138	379.42	11.1943
-39.1123	381.767	11.2139
-39.1103	385.953	11.2334
-39.1089	381.783	11.25293
-39.1083	386.335	11.2725
-39.1059	385.399	11.292
-39.1028	387.158	11.3115
-39.1022	384.764	11.3311
-39.1007	392.457	11.3506
-39.09948	386.447	11.3701
-39.0961	387.749	11.3896
-39.0965	390.813	11.40918
-39.09457	393.293	11.4287
-39.0934	386.443	11.4482
-39.0905	392.535	11.4678
-39.0884	395.476	11.4873
-39.0879	390.346	11.5068
-39.0849	393.455	11.5264
-39.0836	396.2753	11.5459
-39.0825	393.141	11.56543
-39.0812	395.893	11.585
-39.07999	401.933	11.6045
-39.0785	393.874	11.624
-39.0756	394.698	11.6436
-39.0739	400.431	11.6631
-39.0714	398.106	11.6826
-39.0704	397.059	11.7021
-39.07037	405.513	11.72168
-39.0671	398.942	11.7412
-39.0658	400.46	11.7607
-39.0649	403.2818	11.7803
-39.0623	405.675	11.7998
-39.0611	401.07	11.8193
-39.0598	406.635	11.8389
-39.0578	404.412	11.8584
-39.057	404.252	11.87793
-39.0554	403.737	11.8975
-39.0539	411.792	11.917
-39.0509	407.25	11.9365
-39.05011	406.951	11.9561
-39.0482	408.823	11.9756
-39.0473	409.144	11.9951
-39.0454	405.3132	12.0146
-39.042	415.232	12.03418
-39.0423	413.018	12.0537
-39.0408	410.185	12.0732
-39.0388	413.712	12.0928
-39.0371	416.437	12.1123
-39.0352	409.659	12.1318
-39.0331	414.045	12.1514
-39.0319	418.0871	12.1709
-39.0305	412.22	12.19043
-39.0286	415.978	12.21
-39.0275	419.722	12.2295
-39.0249	415.533	12.249
-39.0239	415.173	12.2686
-39.0221	424.805	12.2881
-39.0206	415.601	12.3076
-39.01944	417.031	12.3271
-39.0166	422.571	12.34668
-39.01643	421.416	12.3662
-39.0151	418.0394	12.3857
-39.0126	425.3248	12.4053
-39.0103	421.434	12.4248
-39.0092	421.423	12.4443
-39.0077	423.533	12.4639
-39.0074	427.03	12.4834
-39.0048	421.558	12.50293
-39.003	426.667	12.5225
-39.0001	427.322	12.542
-39.0002	426.335	12.5615
-38.9972	424.578	12.5811
-38.9964	431.64	12.6006
-38.994	428.612	12.6201
-38.9932	427.058	12.6396
-38.9912	430.649	12.65918
-38.9902	431.223	12.6787
-38.9881	426.109	12.6982
-38.986	433.0304	12.7178
-38.9853	433.168	12.7373
-38.9822	426.535	12.7568
-38.982	432.241	12.7764
-38.979	436.084	12.7959
-38.9776	430.271	12.81543
-38.9773	432.25	12.835
-38.9755	438.398	12.8545
-38.9745	430.738	12.874
-38.9714	434.447	12.8936
-38.9709	437.87	12.9131
-38.9692	434.14	12.9326
-38.9682	433.132	12.9521
-38.9655	443.813	12.97168
-38.9636	437.06	12.9912
-38.9625	434.73	13.0107
-38.9598	437.546	13.0303
-38.9595	441.8938	13.0498
-38.9567	437.055	13.0693
-38.955	441.793	13.0889
-38.95364	438.803	13.1084
-38.9519	439.468	13.12793
-38.9506	440.305	13.1475
-38.9494	446.033	13.167
-38.948	440.101	13.1865
-38.94622	440.795	13.2061
-38.9445	444.951	13.2256
-38.9421	443.72	13.2451
-38.9407	438.908	13.2646
-38.9393	445.721	13.28418
-38.9375	445.5097	13.3037
-38.9358	440.951	13.3232
-38.9348	445.2951	13.3428
-38.9318	446.546	13.3623
-38.932	442.725	13.3818
-38.9304	448.064	13.4014
-38.9277	449.818	13.4209
-38.9279	442.659	13.44043
-38.92445	447.755	13.46
-38.9235	449.835	13.4795
-38.9225	447.268	13.499
-38.9214	446.787	13.5186
-38.9174	451.188	13.5381
-38.9168	446.157	13.5576
-38.9151	449.248	13.5771
-38.9134	450.977	13.59668
-38.9106	449.664	13.6162
-38.9099	448.72	13.6357
-38.9085	453.574	13.6553
-38.9069	448.703	13.6748
-38.9055	446.982	13.6943
-38.9037	448.926	13.7139
-38.9021	454.863	13.7334
-38.9001	451.367	13.75293
-38.898	449.734	13.7725
-38.89764	452.1369	13.792
-38.8953	451.4075	13.8115
-38.8931	448.983	13.8311
-38.8919	455.953	13.8506
-38.89	452.565	13.8701
-38.8878	449.893	13.8896
-38.8883	454.809	13.90918
-38.8855	455.297	13.9287
-38.88401	448.992	13.9482
-38.8831	455.598	13.9678
-38.8812	457.232	13.9873
-38.879	449.854	14.0068
-38.8783	454.854	14.0264
-38.8759	456.791	14.0459
-38.8737	452.388	14.06543
-38.8734	456.185	14.085
-38.8704	460.578	14.1045
-38.8699	452.049	14.124
-38.8676	454.207	14.1436
-38.8656	459.4942	14.1631
-38.86581	458.658	14.1826
-38.863	453.408	14.2021
-38.8618	462.055	14.22168
-38.8596	454.711	14.2412
-38.8576	455.293	14.2607
-38.8563	459.6937	14.2803
-38.8539	459.165	14.2998
-38.8535	454.893	14.3193
-38.8506	460.612	14.3389
-38.849	457.712	14.3584
-38.847	455.994	14.37793
-38.8465	456.685	14.3975
-38.846	463.519	14.417
-38.84343	459.11	14.4365
-38.8407	456.185	14.4561
-38.8405	459.685	14.4756
-38.8381	458.46	14.4951
-38.8369	457.315	14.5146
-38.835	463.285	14.53418
-38.8343	461.197	14.5537
-38.8326	455.379	14.5732
-38.8304	461.46	14.5928
-38.8283	461.679	14.6123
-38.8281	456.812	14.6318
-38.8249	459.421	14.6514
-38.8246	465.368	14.6709
-38.8213	455.9425	14.69043
-38.8197	461.677	14.71
-38.8196	461.22	14.7295
-38.8172	458.542	14.749
-38.8155	460.692	14.7686
-38.81356	464.3428	14.7881
-38.8123	456.483	14.8076
-38.8124	459.2189	14.8271
-38.8094	463.431	14.84668
-38.808	462.772	14.8662
-38.8056	457.5715	14.8857
-38.8038	463.113	14.9053
-38.8022	461.427	14.9248
-38.80098	460.81	14.9443
-38.7993	462.933	14.9639
-38.7975	463.299	14.9834
-38.7968	459.064	15.00293
-38.7946	460.923	15.0225
-38.7929	463.996	15.042
-38.7915	459.467	15.0615
-38.7892	458.537	15.0811
-38.7875	463.98	15.1006
-38.7865	463.301	15.1201
-38.785	457.634	15.1396
-38.7837	463.293	15.15918
-38.7813	461.389	15.1787
-38.78	458.417	15.1982
-38.7777	465.013	15.2178
-38.7767	465.445	15.2373
-38.7762	455.364	15.2568
-38.7744	464.136	15.2764
-38.77158	464.218	15.2959
-38.7703	458.3735	15.31543
-38.7682	460.841	15.335
-38.7667	467.629	15.3545
-38.7653	458.769	15.374
-38.7639	461.449	15.3936
-38.7621	462.308	15.4131
-38.7599	459.251	15.4326
-38.7583	460.55	15.4521
-38.7561	466.44	15.47168
-38.7553	458.557	15.4912
-38.75359	458.328	15.5107
-38.75256	463.566	15.5303
-38.7498	464.286	15.5498
-38.74818	459.966	15.5693
-38.7474	461.675	15.5889
-38.746	462.666	15.6084
-38.7445	460.549	15.62793
-38.7427	459.356	15.6475
-38.7419	462.178	15.667
-38.7393	458.6499	15.6865
-38.7374	458.87	15.7061
-38.7365	464.745	15.7256
-38.7345	458.548	15.7451
-38.7329	456.838	15.7646
-38.7308	462.922	15.78418
-38.7295	464.249	15.8037
-38.72868	454.907	15.8232
-38.7263	462.649	15.8428
-38.7239	459.648	15.8623
-38.7234	458.47	15.8818
-38.7206	462.417	15.9014
-38.719	463.419	15.9209
-38.7185	453.555	15.94043
-38.7176	461.705	15.96
-38.7145	463	15.9795
-38.7127	457.245	15.999
-38.7114	458.856	16.0186
-38.7092	462.699	16.0381
-38.7084	457.09	16.0576
-38.7069	457.683	16.0771
-38.7052	459.693	16.09668
-38.704	460.37	16.1162
-38.7017	456.76	16.1357
-38.7004	461.513	16.1553
-38.6988	459.3855	16.1748
-38.6962	456.386	16.1943
-38.6954	459.752	16.2139
-38.69318	462.348	16.2334
-38.6921	457.373	16.25293
-38.6904	455.754	16.2725
-38.6898	459.7168	16.292
-38.6863	455.856	16.3115
-38.686	456.229	16.3311
-38.6848	459.859	16.3506
-38.6823	457.307	16.3701
-38.6808	453.091	16.3896
-38.6791	461.956	16.40918
-38.6781	457.1524	16.4287
-38.6756	454.211	16.4482
-38.6745	458.762	16.4678
-38.6729	460.216	16.4873
-38.6709	451.224	16.5068
-38.6698	458.958	16.5264
-38.6681	458.018	16.5459
-38.6665	455.8063	16.56543
-38.664	457.795	16.585
-38.6626	460.797	16.6045
-38.6615	451.224	16.624
-38.6584	454.988	16.6436
-38.6587	459.037	16.6631
-38.6557	455.192	16.6826
-38.6547	451.802	16.7021
-38.6533	458.922	16.72168
-38.6508	453.368	16.7412
-38.6494	452.3819	16.7607
-38.648	456.195	16.7803
-38.6456	453.512	16.7998
-38.6442	452.311	16.8193
-38.6442	454.536	16.8389
-38.64085	456.061	16.8584
-38.6395	452.088	16.87793
-38.6395	452.488	16.8975
-38.63686	458.149	16.917
-38.63435	453.943	16.9365
-38.6331	449.9552	16.9561
-38.63208	457.4585	16.9756
-38.6297	451.888	16.9951
-38.628	450.426	17.0146
-38.6269	455.466	17.03418
-38.6254	455.526	17.0537
-38.6224	447.905	17.0732
-38.6223	456.568	17.0928
-38.6194	454.514	17.1123
-38.6193	448.762	17.1318
-38.6151	454.436	17.1514
-38.615	457.462	17.1709
-38.614	446.184	17.19043
-38.6116	454.393	17.21
-38.6102	453.786	17.2295
-38.6093	450.091	17.249
-38.6071	451.299	17.2686
-38.6059	455.591	17.2881
-38.6044	447.813	17.3076
-38.6023	451.296	17.3271
-38.601	454.272	17.34668
-38.59856	450.378	17.3662
-38.597	447.185	17.3857
-38.5956	451.447	17.4053
-38.5944	451.456	17.4248
-38.5927	447.239	17.4443
-38.5914	449.4313	17.4639
-38.5902	452.5202	17.4834
-38.5878	449.147	17.50293
-38.5875	448.7684	17.5225
-38.5833	452.234	17.542
-38.5822	446.423	17.5615
-38.5814	448.053	17.5811
-38.5794	454.882	17.6006
-38.579	450.396	17.6201
-38.5761	443.512	17.6396
-38.5741	452.518	17.65918
-38.5728	449.5842	17.6787
-38.5715	446.918	17.6982
-38.5704	451.6102	17.7178
-38.5681	452.761	17.7373
-38.56604	442.437	17.7568
-38.5653	451.791	17.7764
-38.5626	449.15	17.7959
-38.5626	445.164	17.81543
-38.5609	448.989	17.835
-38.5593	454.201	17.8545
-38.5568	445.196	17.874
-38.5548	447.579	17.8936
-38.553	450.449	17.9131
-38.55154	447.551	17.9326
-38.5504	447.194	17.9521
-38.5489	450.949	17.97168
-38.547	446.373	17.9912
-38.5461	446.51	18.0107
-38.54319	449.0502	18.0303
-38.5412	448.925	18.0498
-38.541	445.183	18.0693
-38.5378	448.699	18.0889
-38.5368	451.766	18.1084
-38.536	445.373	18.12793
-38.535	447.548	18.1475
-38.5325	450.722	18.167
-38.5307	447.533	18.1865
-38.5281	443.065	18.2061
-38.5275	453.867	18.2256
-38.5271	444.345	18.2451
-38.5242	444.174	18.2646
-38.5234	450.795	18.28418
-38.5216	449.412	18.3037
-38.51955	440.836	18.3232
-38.5169	450.846	18.3428
-38.51635	448.445	18.3623
-38.5144	444.953	18.3818
-38.513	448.1857	18.4014
-38.5118	449.816	18.4209
-38.5097	442.102	18.44043
-38.5088	448.715	18.46
-38.5073	448.45	18.4795
-38.5051	441.895	18.499
-38.5027	444.541	18.5186
-38.5019	450.855	18.5381
-38.4992	443.348	18.5576
-38.4983	442.4263	18.5771
-38.4977	447.594	18.59668
-38.495	445.435	18.6162
-38.4927	444.163	18.6357
-38.4915	446.052	18.6553
-38.4911	446.503	18.6748
-38.489	440.09	18.6943
-38.4876	446.9433	18.7139
-38.4846	448.732	18.7334
-38.4837	443.54	18.75293
-38.4819	440.395	18.7725
-38.481	449.786	18.792
-38.4785	441.911	18.8115
-38.4764	442.445	18.8311
-38.4761	447.495	18.8506
-38.4736	447.3685	18.8701
-38.4722	438.7973	18.8896
-38.4717	449.471	18.90918
-38.4696	443.564	18.9287
-38.4665	441.051	18.9482
-38.4654	447.793	18.9678
-38.4639	445.894	18.9873
-38.4638	437.931	19.0068
-38.4616	445.501	19.0264
-38.4603	447.003	19.0459
-38.4571	442.149	19.06543
-38.4558	444.822	19.085
-38.4537	447.622	19.1045
-38.4518	439.9	19.124
-38.4513	445.299	19.1436
-38.4495	448.035	19.1631
-38.4485	441.755	19.1826
-38.4459	442.3157	19.2021
-38.4443	446.646	19.22168
-38.4425	443.261	19.2412
-38.442	438.864	19.2607
-38.4408	445.328	19.2803
-38.439	445.633	19.2998
-38.4372	442.461	19.3193
-38.435	443.472	19.3389
-38.43325	448.28	19.3584
-38.4324	438.177	19.37793
-38.4298	444.381	19.3975
-38.4279	449.681	19.417
-38.4259	442.514	19.4365
-38.4258	438.04	19.4561
-38.4243	449.303	19.4756
-38.42141	441.082	19.4951
-38.42094	440.176	19.5146
-38.4189	446.68	19.53418
-38.4164	446.042	19.5537
-38.4142	437.586	19.5732
-38.4144	446.537	19.5928
-38.4118	442.712	19.6123
-38.4103	439.046	19.6318
-38.4092	446.001	19.6514
-38.40683	445.81	19.6709
-38.4058	437.346	19.69043
-38.4042	442.714	19.71
-38.403	445.18	19.7295
-38.4013	441.055	19.749
-38.3987	440.3396	19.7686
-38.3981	444.35	19.7881
-38.3959	440.668	19.8076
-38.3943	440.351	19.8271
-38.3934	447.036	19.84668
-38.3908	441.852	19.8662
-38.389	440.341	19.8857
-38.3885	443.476	19.9053
-38.3848	445.307	19.9248
-38.3845	438.788	19.9443
-38.3846	442.508	19.9639
-38.381	444.398	19.9834
-38.3799	441.316	20.00293
-38.37862	436.355	20.0127

Data Header:			0.254_hd_dimension_typeiv_090_r0			Time:	34.5156	s	4/14/2019 12:29:49 AM
Data Acquisition:	Timed
Station Name:	ft40.cfg
Test File Name:	monotonic_0.2540_typeiv_hd_090_dimension.tst
Displacement	Force	Running Time
mm	N	s
-38.378	440.371	20.0225
-38.3763	442.345	20.0322
-38.3771	446.6871	20.042
-38.3753	446.356	20.0518
-38.3744	439.155	20.0615
-38.3742	436.494	20.0713
-38.373	442.47	20.0811
-38.3723	441.8475	20.09082
-38.37056	446.718	20.1006
-38.3711	445.124	20.1104
-38.3694	441.39	20.1201
-38.3683	437.592	20.1299
-38.3675	437.318	20.1396
-38.3672	441.3934	20.1494
-38.3678	447.453	20.15918
-38.3657	445.467	20.1689
-38.3657	442.771	20.1787
-38.36404	437.354	20.1885
-38.363	437.839	20.1982
-38.3623	440.505	20.208
-38.3616	443.9538	20.2178
-38.3616	444.423	20.2275
-38.3603	444.48	20.2373
-38.3594	440.15	20.24707
-38.3564	435.314	20.2568
-38.3566	439.148	20.2666
-38.3558	441.356	20.2764
-38.35675	446.556	20.2861
-38.3554	444.475	20.2959
-38.35405	440.22	20.3057
-38.3547	436.768	20.31543
-38.3525	440.09	20.3252
-38.3517	442.067	20.335
-38.3504	442.622	20.3447
-38.3497	444.536	20.3545
-38.3496	442.3847	20.3643
-38.3472	438.555	20.374
-38.3475	440.726	20.3838
-38.3481	439.451	20.3936
-38.3467	444.56	20.40332
-38.34544	445.767	20.4131
-38.3438	441.132	20.4229
-38.34454	439.956	20.4326
-38.342	438.7204	20.4424
-38.3423	441.274	20.4521
-38.3408	441.88	20.4619
-38.3396	440.89	20.47168
-38.3398	444.107	20.4814
-38.3393	442.352	20.4912
-38.3388	439.762	20.501
-38.3379	437.593	20.5107
-38.336	439.415	20.5205
-38.336	443.449	20.5303
-38.3349	443.033	20.54
-38.3343	442.924	20.5498
-38.33255	441.681	20.55957
-38.3321	440.426	20.5693
-38.33197	438.112	20.5791
-38.33065	440.154	20.5889
-38.3292	442.452	20.5986
-38.3296	446.5817	20.6084
-38.3286	442.196	20.6182
-38.3283	438.563	20.62793
-38.3265	436.766	20.6377
-38.3266	440.129	20.6475
-38.3258	443.287	20.6572
-38.3238	445.161	20.667
-38.3235	441.571	20.6768
-38.3226	442.175	20.6865
-38.3226	437.3063	20.6963
-38.3201	437.057	20.7061
-38.3195	440.905	20.71582
-38.3202	445.629	20.7256
-38.3177	445.897	20.7354
-38.3177	438.403	20.7451
-38.3166	435.063	20.7549
-38.3151	438.214	20.7646
-38.3151	441.796	20.7744
-38.3146	445.3515	20.78418
-38.3135	443.368	20.7939
-38.3128	440.52	20.8037
-38.3116	438.846	20.8135
-38.3105	435.546	20.8232
-38.3102	440.23	20.833
-38.3106	443.249	20.8428
-38.309	446.595	20.8525
-38.308	443.4003	20.8623
-38.30703	436.1972	20.87207
-38.3067	436.532	20.8818
-38.30526	440.154	20.8916
-38.3046	443.461	20.9014
-38.3039	443.371	20.9111
-38.3033	442.619	20.9209
-38.3012	441.533	20.9307
-38.3017	437.012	20.94043
-38.3014	436.43	20.9502
-38.3007	440.541	20.96
-38.299	443.901	20.9697
-38.2984	443.024	20.9795
-38.2973	441.542	20.9893
-38.2974	436.483	20.999
-38.2954	439.379	21.0088
-38.2952	442.2164	21.0186
-38.29443	440.092	21.02832
-38.2928	442.814	21.0381
-38.29184	442.455	21.0479
-38.2912	440.687	21.0576
-38.29	439.259	21.0674
-38.2918	434.983	21.0771
-38.2889	440.7959	21.0869
-38.28854	441.8894	21.09668
-38.28854	440.224	21.1064
-38.2864	441.24	21.1162
-38.2871	438.04	21.126
-38.28614	438.494	21.1357
-38.2847	436.744	21.1455
-38.2831	439.341	21.1553
-38.2826	443.983	21.165
-38.28162	443.502	21.1748
-38.2813	440.464	21.18457
-38.2813	434.649	21.1943
-38.2798	435.4422	21.2041
-38.2778	443.28	21.2139
-38.2779	440.8576	21.2236
-38.2766	443.621	21.2334
-38.2756	440.67	21.2432
-38.27631	438.97	21.25293
-38.2744	437.4115	21.2627
-38.27459	437.4389	21.2725
-38.2728	442.076	21.2822
-38.2714	445.527	21.292
-38.271	442.478	21.3018
-38.2708	438.237	21.3115
-38.2694	435.544	21.3213
-38.2685	437.953	21.3311
-38.2674	442.908	21.34082
-38.2673	444.493	21.3506
-38.2659	442.254	21.3604
-38.2653	439.998	21.3701
-38.2641	437.314	21.3799
-38.2634	435.757	21.3896
-38.2643	440.398	21.3994
-38.262	442.697	21.40918
-38.2607	445.215	21.4189
-38.2615	437.105	21.4287
-38.2601	435.602	21.4385
-38.2599	436.235	21.4482
-38.2588	438.62	21.458
-38.2574	442.878	21.4678
-38.2567	442.663	21.4775
-38.2563	440.142	21.4873
-38.2552	439.57	21.49707
-38.2532	433.75	21.5068
-38.2536	438.681	21.5166
-38.2521	441.609	21.5264
-38.2517	445.382	21.5361
-38.2503	443.196	21.5459
-38.2505	436.749	21.5557
-38.24958	436.1926	21.56543
-38.2494	437.556	21.5752
-38.2475	441.148	21.585
-38.2473	442.195	21.5947
-38.2466	441.74	21.6045
-38.2454	443.099	21.6143
-38.24498	438.307	21.624
-38.2442	435.972	21.6338
-38.2438	437.132	21.6436
-38.2421	441.0152	21.65332
-38.2411	442.723	21.6631
-38.2395	439.944	21.6729
-38.2405	438.138	21.6826
-38.2394	438.5079	21.6924
-38.23732	439.386	21.7021
-38.2377	437.798	21.7119
-38.23716	440.997	21.72168
-38.2349	441.585	21.7314
-38.2348	440.638	21.7412
-38.2344	438.614	21.751
-38.2327	434.638	21.7607
-38.2325	437.629	21.7705
-38.2311	441.084	21.7803
-38.2303	440.609	21.79
-38.2304	443.135	21.7998
-38.2299	438.484	21.80957
-38.229	438.535	21.8193
-38.2275	436.295	21.8291
-38.2252	437.827	21.8389
-38.2262	441.399	21.8486
-38.2258	443.762	21.8584
-38.2248	440.781	21.8682
-38.2233	435.293	21.87793
-38.2213	434.482	21.8877
-38.2224	438.399	21.8975
-38.2216	441.902	21.9072
-38.2205	444.233	21.917
-38.2188	440.715	21.9268
-38.218	439.2634	21.9365
-38.2184	437.168	21.9463
-38.217	434.061	21.9561
-38.21534	439.755	21.96582
-38.2159	444.024	21.9756
-38.2141	442.85	21.9854
-38.2137	436.2525	21.9951
-38.2125	434.081	22.0049
-38.2122	434.562	22.0146
-38.2117	439.9006	22.0244
-38.2111	442.236	22.03418
-38.2094	441.933	22.0439
-38.2084	439.799	22.0537
-38.2081	435.717	22.0635
-38.2067	434.549	22.0732
-38.2053	437.561	22.083
-38.2051	441.114	22.0928
-38.2044	445.956	22.1025
-38.2039	439.951	22.1123
-38.203	433.082	22.12207
-38.2013	434.807	22.1318
-38.2016	437.2695	22.1416
-38.20068	442.227	22.1514
-38.1994	441.427	22.1611
-38.1985	440.759	22.1709
-38.1981	440.8302	22.1807
-38.1979	435.383	22.19043
-38.1961	436.908	22.2002
-38.1955	437.96	22.21
-38.196	442.759	22.2197
-38.1934	440.974	22.2295
-38.1928	436.1	22.2393
-38.1927	436.009	22.249
-38.1926	436.465	22.2588
-38.1911	437.849	22.2686
-38.1897	440.8	22.27832
-38.1887	440.893	22.2881
-38.1872	441.441	22.2979
-38.1874	440.591	22.3076
-38.1861	435.233	22.3174
-38.1848	435.67	22.3271
-38.1841	438.877	22.3369
-38.1847	442.174	22.34668
-38.1837	440.903	22.3564
-38.1825	438.805	22.3662
-38.1817	438.067	22.376
-38.1805	437.747	22.3857
-38.1808	436.834	22.3955
-38.179	439.394	22.4053
-38.1786	440.272	22.415
-38.1781	442.57	22.4248
-38.1763	439.044	22.43457
-38.176	433.173	22.4443
-38.176	436.968	22.4541
-38.17548	438.997	22.4639
-38.1744	440.803	22.4736
-38.1734	442.966	22.4834
-38.1714	437.535	22.4932
-38.1708	437.38	22.50293
-38.1702	436.407	22.5127
-38.16954	436.635	22.5225
-38.1686	440.921	22.5322
-38.16708	443.49	22.542
-38.1681	442.396	22.5518
-38.1671	435.253	22.5615
-38.1665	432.218	22.5713
-38.1642	438.075	22.5811
-38.1647	441.063	22.59082
-38.1639	441.88	22.6006
-38.1629	440.248	22.6104
-38.1616	436.887	22.6201
-38.1598	435.36	22.6299
-38.1608	433.8671	22.6396
-38.1584	437.387	22.6494
-38.1576	442.683	22.65918
-38.1582	442.125	22.6689
-38.1573	440.334	22.6787
-38.1567	432.605	22.6885
-38.1552	433.106	22.6982
-38.1548	439.635	22.708
-38.1536	441.1174	22.7178
-38.1525	441.802	22.7275
-38.152	439.104	22.7373
-38.1508	437.471	22.74707
-38.1495	434.815	22.7568
-38.14962	437.203	22.7666
-38.1479	439.5976	22.7764
-38.1476	442.046	22.7861
-38.1469	439.525	22.7959
-38.14608	437.529	22.8057
-38.1454	435.328	22.81543
-38.1447	436.371	22.8252
-38.1448	441.304	22.835
-38.1431	438.863	22.8447
-38.142	441.0733	22.8545
-38.1407	438.942	22.8643
-38.1405	435.168	22.874
-38.1398	434.687	22.8838
-38.139	433.185	22.8936
-38.1374	439.993	22.90332
-38.1367	443.187	22.9131
-38.1369	439.148	22.9229
-38.1357	437.177	22.9326
-38.1355	435.732	22.9424
-38.1348	437.874	22.9521
-38.1335	437.5289	22.9619
-38.1326	437.9433	22.97168
-38.1301	441.824	22.9814
-38.1308	442.411	22.9912
-38.1295	435.9678	23.001
-38.12925	433.546	23.0107
-38.1273	434.635	23.0205
-38.127	440.036	23.0303
-38.1266	441.023	23.04
-38.1277	440.286	23.0498
-38.12476	437.7923	23.05957
-38.1244	435.073	23.0693
-38.1237	435.667	23.0791
-38.1212	436.5	23.0889
-38.1209	440.34	23.0986
-38.1205	442.231	23.1084
-38.1199	440.3158	23.1182
-38.11916	433.433	23.12793
-38.1186	433.576	23.1377
-38.1171	436.899	23.1475
-38.1163	440.401	23.1572
-38.1158	441.648	23.167
-38.1158	437.996	23.1768
-38.1153	437.111	23.1865
-38.1122	434.423	23.1963
-38.11298	434.256	23.2061
-38.1118	439.52	23.21582
-38.1115	440.524	23.2256
-38.1103	443.663	23.2354
-38.1092	436.491	23.2451
-38.10952	432.657	23.2549
-38.1074	434.806	23.2646
-38.1067	438.16	23.2744
-38.1062	441.638	23.28418
-38.1058	439.87	23.2939
-38.1043	438.135	23.3037
-38.1022	435.9783	23.3135
-38.1024	434.066	23.3232
-38.1026	436.722	23.333
-38.1004	439.83	23.3428
-38.1002	441.933	23.3525
-38.09893	439.5881	23.3623
-38.1002	435.359	23.37207
-38.0983	434.284	23.3818
-38.0978	439.033	23.3916
-38.0961	439.832	23.4014
-38.0958	440.795	23.4111
-38.0946	439.818	23.4209
-38.0935	437.535	23.4307
-38.0933	435.467	23.44043
-38.0921	434.726	23.4502
-38.0925	435.638	23.46
-38.0911	441.358	23.4697
-38.0901	441.307	23.4795
-38.0887	436.4585	23.4893
-38.0889	436.377	23.499
-38.08736	434.192	23.5088
-38.0859	438.259	23.5186
-38.0852	437.708	23.52832
-38.0852	438.3779	23.5381
-38.0845	439.618	23.5479
-38.0844	436.556	23.5576
-38.0818	437.383	23.5674
-38.0818	433.381	23.5771
-38.0802	437.311	23.5869
-38.0802	442.278	23.59668
-38.08	439.376	23.6064
-38.079	440.7626	23.6162
-38.0776	435.057	23.626
-38.077	437.4635	23.6357
-38.0763	437.278	23.6455
-38.0741	437.859	23.6553
-38.0734	441.447	23.665
-38.0737	441.413	23.6748
-38.0722	437.655	23.68457
-38.0716	434.045	23.6943
-38.07132	433.479	23.7041
-38.0702	439.5603	23.7139
-38.0691	441.093	23.7236
-38.0689	440.402	23.7334
-38.0677	437.571	23.7432
-38.0674	434.853	23.75293
-38.0671	434.764	23.7627
-38.0658	435.026	23.7725
-38.0654	439.518	23.7822
-38.0628	442.924	23.792
-38.0635	440.698	23.8018
-38.0614	433.448	23.8115
-38.06152	433.092	23.8213
-38.0605	434.4075	23.8311
-38.0597	439.856	23.84082
-38.0594	441.5033	23.8506
-38.0587	438.817	23.8604
-38.057	436.651	23.8701
-38.0559	434.142	23.8799
-38.0554	431.027	23.8896
-38.0547	439.618	23.8994
-38.05442	439.996	23.90918
-38.053	443.203	23.9189
-38.0514	439.156	23.9287
-38.051	432.025	23.9385
-38.05	433.412	23.9482
-38.0502	437.873	23.958
-38.0494	441.029	23.9678
-38.0482	440.941	23.9775
-38.0474	437.818	23.9873
-38.0477	437.702	23.99707
-38.0457	435.092	24.0068
-38.0461	435.201	24.0166
-38.0438	438.547	24.0264
-38.0433	441.132	24.0361
-38.0424	441.78	24.0459
-38.0413	434.637	24.0557
-38.04126	433.601	24.06543
-38.0402	436.181	24.0752
-38.039	437.496	24.085
-38.0382	438.508	24.0947
-38.0374	437.709	24.1045
-38.0371	437.852	24.1143
-38.0367	437.543	24.124
-38.0358	434.175	24.1338
-38.0352	433.365	24.1436
-38.034	439.12	24.15332
-38.03442	441.534	24.1631
-38.0321	438.307	24.1729
-38.033	436.554	24.1826
-38.0299	433.367	24.1924
-38.0291	436.641	24.2021
-38.0288	436.583	24.2119
-38.0272	438.417	24.22168
-38.0276	438.648	24.2314
-38.02689	440.875	24.2412
-38.02499	437.7	24.251
-38.02478	430.346	24.2607
-38.0233	435.2309	24.2705
-38.0223	440.856	24.2803
-38.0225	440.443	24.29
-38.0214	440.7962	24.2998
-38.02026	433.748	24.30957
-38.0202	434.5816	24.3193
-38.0192	435.607	24.3291
-38.0191	434.378	24.3389
-38.0187	440.041	24.3486
-38.0158	441.336	24.3584
-38.0158	438.222	24.3682
-38.0157	434.481	24.37793
-38.01466	430.605	24.3877
-38.0137	435.728	24.3975
-38.013	441.392	24.4072
-38.0121	441.677	24.417
-38.0107	437.031	24.4268
-38.0091	433.818	24.4365
-38.0099	434.43	24.4463
-38.0083	434.053	24.4561
-38.0084	438.765	24.46582
-38.0068	441.659	24.4756
-38.0059	439.906	24.4854
-38.0062	435.062	24.4951
-38.0039	431.188	24.5049
-38.0035	431.19	24.5146
-38.0029	438.721	24.5244
-38.0025	440.1	24.53418
-38.0013	438.585	24.5439
-38.0009	436.464	24.5537
-37.9992	433.586	24.5635
-37.9992	434.396	24.5732
-37.998	438.276	24.583
-37.9971	437.747	24.5928
-37.9964	441.5477	24.6025
-37.9959	438.081	24.6123
-37.9944	432.259	24.62207
-37.9939	433.979	24.6318
-37.9929	435.279	24.6416
-37.9931	440.858	24.6514
-37.9921	440.32	24.6611
-37.991	438.098	24.6709
-37.9893	437.859	24.6807
-37.9885	435.572	24.69043
-37.988	435.284	24.7002
-37.9857	435.002	24.71
-37.9874	438.3551	24.7197
-37.9857	441.846	24.7295
-37.9856	435.5791	24.7393
-37.9843	435.194	24.749
-37.9829	433.879	24.7588
-37.9831	435.2251	24.7686
-37.9811	438.149	24.77832
-37.9801	436.374	24.7881
-37.9807	437.877	24.7979
-37.9792	438.244	24.8076
-37.9781	433.757	24.8174
-37.9771	434.1409	24.8271
-37.97747	435.676	24.8369
-37.9765	439.145	24.84668
-37.9743	439.461	24.8564
-37.9745	437.636	24.8662
-37.9735	433.493	24.876
-37.9725	434.823	24.8857
-37.9718	434.878	24.8955
-37.9718	437.698	24.9053
-37.971	439.453	24.915
-37.9694	439.303	24.9248
-37.9685	437.181	24.93457
-37.9677	432.1312	24.9443
-37.9671	431.472	24.9541
-37.9656	437.677	24.9639
-37.9654	440.34	24.9736
-37.965	440.912	24.9834
-37.9638	435.69	24.9932
-37.9624	433.918	25.00293
-37.9611	433.397	25.0127
-37.9623	432.8013	25.0225
-37.9616	440.03	25.0322
-37.9592	440.777	25.042
-37.9596	437.906	25.0518
-37.9587	434.442	25.0615
-37.9582	429.783	25.0713
-37.9568	433.867	25.0811
-37.9558	440.404	25.09082
-37.9549	441.129	25.1006
-37.9544	437.908	25.1104
-37.9538	434.334	25.1201
-37.9532	433.569	25.1299
-37.9514	432.984	25.1396
-37.9509	436.359	25.1494
-37.9502	440.948	25.15918
-37.9494	440.169	25.1689
-37.9476	438.226	25.1787
-37.9467	432.326	25.1885
-37.947	431.056	25.1982
-37.9456	435.528	25.208
-37.9456	440.321	25.2178
-37.9439	437.233	25.2275
-37.9431	436.701	25.2373
-37.9427	433.498	25.24707
-37.9418	433.688	25.2568
-37.9407	436.989	25.2666
-37.9405	434.848	25.2764
-37.9399	439.8566	25.2861
-37.9375	439.621	25.2959
-37.9389	434.203	25.3057
-37.9377	435.172	25.31543
-37.9363	432.224	25.3252
-37.9349	439.1651	25.335
-37.9343	438.061	25.3447
-37.93388	435.862	25.3545
-37.9331	437.208	25.3643
-37.93145	434.592	25.374
-37.9307	435.057	25.3838
[...]
-37.8169	436.0614	26.751
-37.81654	432.028	26.7607
-37.8159	431.841	26.7705
-37.8156	437.42	26.7803
-37.8134	440.459	26.79
-37.8127	437.8761	26.7998
-37.812	432.747	26.80957
-37.8117	429.992	26.8193
-37.8098	434.202	26.8291
-37.8101	433.642	26.8389
-37.8089	438.896	26.8486
-37.80764	438.632	26.8584
-37.8073	434.618	26.8682
-37.8073	433.052	26.87793
-37.8062	429.032	26.8877
-37.8048	434.178	26.8975
-37.8041	439.104	26.9072
-37.8033	439.661	26.917
-37.8033	435.559	26.9268
-37.8027	431.1116	26.9365
-37.8015	430.372	26.9463
-37.80077	434.158	26.9561
-37.80061	435.365	26.96582
-37.7985	436.676	26.9756
-37.7967	438.32	26.9854
-37.797	432.987	26.9951
-37.7963	429.95	27.0049
-37.79591	431.373	27.0146
-37.79311	436.092	27.0244
-37.7942	439.284	27.03418
-37.7919	435.931	27.0439
-37.7912	432.8432	27.0537
-37.7928	431.922	27.0635
-37.7896	430.983	27.0732
-37.7907	435.734	27.083
-37.7888	433.924	27.0928
-37.7882	437.934	27.1025
-37.7879	437.484	27.1123
-37.78611	431.479	27.12207
-37.7858	433.335	27.1318
-37.7857	432.323	27.1416
-37.78281	436.879	27.1514
-37.7841	437.691	27.1611
-37.78252	435.46	27.1709
-37.7815	434.232	27.1807
-37.7807	432.882	27.19043
-37.7791	431.505	27.2002
-37.7785	433.922	27.21
-37.7776	435.352	27.2197
-37.77639	438.79	27.2295
-37.776	435.4473	27.2393
-37.7765	431.562	27.249
-37.7748	430.507	27.2588
-37.77404	433.453	27.2686
-37.7732	435.886	27.27832
-37.7717	436.344	27.2881
-37.7723	436.243	27.2979
-37.7722	435.932	27.3076
-37.77	432.949	27.3174
-37.7696	428.74	27.3271
-37.7686	433.395	27.3369
-37.7672	436.703	27.34668
-37.7666	439.818	27.3564
-37.7667	436.988	27.3662
-37.7648	431.55	27.376
-37.76458	432.611	27.3857
-37.7635	431.935	27.3955
-37.7634	434.414	27.4053
-37.7627	438.62	27.415
-37.7593	436.632	27.4248
-37.7608	434.797	27.43457
-37.7597	431.44	27.4443
-37.7588	429.0014	27.4541
-37.7576	435.154	27.4639
-37.7567	438.286	27.4736
-37.7565	438.658	27.4834
-37.7556	432.761	27.4932
-37.7536	430.273	27.50293
-37.75304	432.277	27.5127
-37.7532	432.088	27.5225
-37.7517	437.078	27.5322
-37.7514	437.25	27.542
-37.7499	437.221	27.5518
-37.7499	432.095	27.5615
-37.7501	429.178	27.5713
-37.7488	431.669	27.5811
-37.747	439.341	27.59082
-37.7462	439.674	27.6006
-37.7442	435.398	27.6104
-37.7449	432.1908	27.6201
-37.7446	430.675	27.6299
-37.7427	433.281	27.6396
-37.7436	434.984	27.6494
-37.7415	437.31	27.65918
-37.7408	437.612	27.6689
-37.7407	435.095	27.6787
-37.73909	431.4313	27.6885
-37.7396	431.09	27.6982
-37.73737	432.732	27.708
-37.7369	438.392	27.7178
-37.7365	436.567	27.7275
-37.735	433.8764	27.7373
-37.7342	431.072	27.74707
-37.7339	431.028	27.7568
-37.7327	433.547	27.7666
-37.7321	433.364	27.7764
-37.7323	437.177	27.7861
-37.7306	437.924	27.7959
-37.7298	432.466	27.8057
-37.7297	433.515	27.81543
-37.72821	429.772	27.8252
-37.7264	435.979	27.835
-37.72633	437.685	27.8447
-37.7249	434.2298	27.8545
-37.7243	434.4805	27.8643
-37.7237	433.18	27.874
-37.7226	432.617	27.8838
-37.7216	432.182	27.8936
-37.7206	432.278	27.90332
-37.7196	437.591	27.9131
-37.7204	437.494	27.9229
-37.7184	434.035	27.9326
-37.7183	430.538	27.9424
-37.7175	431.107	27.9521
-37.71645	434.044	27.9619
-37.7154	434.966	27.97168
-37.7159	436.2829	27.9814
-37.7137	435.719	27.9912
-37.7119	432.765	28.001
-37.7123	430.124	28.0107
-37.711	429.354	28.0205
-37.7098	434.14	28.0303
-37.7096	439.536	28.04
-37.7076	436.993	28.0498
-37.70787	431.0155	28.05957
-37.7067	428.918	28.0693
-37.7055	431.003	28.0791
-37.7053	434.598	28.0889
-37.7051	437.9256	28.0986
-37.704	436.605	28.1084
-37.7036	435.7421	28.1182
-37.7026	429.953	28.12793
-37.7021	427.638	28.1377
-37.7002	433.551	28.1475
-37.7	436.379	28.1572
-37.6988	438.688	28.167
-37.6986	435.0607	28.1768
-37.697	428.453	28.1865
-37.6974	431.31	28.1963
-37.6961	431.835	28.2061
-37.6951	437.379	28.21582
-37.695	436.078	28.2256
-37.6928	436.548	28.2354
-37.6943	432.844	28.2451
-37.692	428.198	28.2549
-37.6918	429.597	28.2646
-37.6908	434.121	28.2744
-37.6894	436.296	28.28418
-37.6883	437.524	28.2939
-37.6883	431.181	28.3037
-37.6869	428.307	28.3135
-37.6861	431.104	28.3232
-37.6857	433.5932	28.333
-37.6845	435.104	28.3428
-37.68309	437.964	28.3525
-37.6834	432.877	28.3623
-37.6826	433.176	28.37207
-37.68219	431.487	28.3818
-37.6808	430.262	28.3916
-37.68	436.082	28.4014
-37.679	434.99	28.4111
-37.6774	434.808	28.4209
-37.6781	432.887	28.4307
-37.6774	431.44	28.44043
-37.6749	433.562	28.4502
-37.6751	430.882	28.46
-37.6736	435.015	28.4697
-37.6728	436.596	28.4795
-37.6715	435.501	28.4893
-37.6713	433.614	28.499
-37.67	427.724	28.5088
-37.6696	433.822	28.5186
-37.668	435.143	28.52832
-37.6676	433.7149	28.5381
-37.667	435.655	28.5479
-37.66724	432.926	28.5576
-37.6656	431.097	28.5674
-37.6643	430.94	28.5771
-37.6648	428.694	28.5869
-37.6629	435.651	28.59668
-37.6633	438.527	28.6064
-37.6624	434.047	28.6162
-37.6614	428.579	28.626
-37.661	428.083	28.6357
-37.659	431.538	28.6455
-37.6578	434.159	28.6553
-37.6576	435.705	28.665
-37.6567	435.6601	28.6748
-37.6555	432.7637	28.68457
-37.6566	429.756	28.6943
-37.6552	428.389	28.7041
-37.65448	432.019	28.7139
-37.6525	438.946	28.7236
-37.6526	438.565	28.7334
-37.6501	430.926	28.7432
-37.651	429.292	28.75293
-37.6499	429.571	28.7627
-37.6491	433.714	28.7725
-37.64801	437.465	28.7822
-37.6458	434.933	28.792
-37.64677	434.003	28.8018
-37.6452	431.17	28.8115
-37.6453	427.44	28.8213
-37.64415	432.05	28.8311
-37.6436	433.857	28.84082
-37.64233	437.739	28.8506
-37.6421	433.256	28.8604
-37.6399	428.598	28.8701
-37.6394	429.93	28.8799
-37.6393	430.177	28.8896
-37.6381	434.438	28.8994
-37.6365	433.189	28.90918
-37.6361	434.441	28.9189
-37.636	434.965	28.9287
-37.6344	429.078	28.9385
-37.6345	429.478	28.9482
-37.6333	431.782	28.958
-37.6332	434.937	28.9678
-37.6324	437.014	28.9775
-37.6307	431.158	28.9873
-37.6299	429.976	28.99707
-37.6295	431.007	29.0068
-37.6287	430.011	29.0166
-37.6278	434.075	29.0264
-37.6265	434.01	29.0361
-37.6255	433.2226	29.0459
-37.6249	434.266	29.0557
-37.6229	430.599	29.06543
-37.6239	428.943	29.0752
-37.6228	431.837	29.085
-37.6209	434.249	29.0947
-37.6213	432.407	29.1045
-37.6201	433.4299	29.1143
-37.6197	430.451	29.124
-37.6199	429.855	29.1338
-37.618	427.686	29.1436
-37.6176	430.9935	29.15332
-37.6151	433.8273	29.1631
-37.61496	436.095	29.1729
-37.6152	432.694	29.1826
-37.6142	428.256	29.1924
-37.6144	429.033	29.2021
-37.6123	433.299	29.2119
-37.6129	434.874	29.22168
-37.6095	435.955	29.2314
-37.61	431.308	29.2412
-37.6093	431.398	29.251
-37.6082	428.595	29.2607
-37.6079	427.552	29.2705
-37.606	434.509	29.2803
-37.6057	437.5	29.29
-37.6049	434.484	29.2998
-37.60387	429.889	29.30957
-37.6039	425.059	29.3193
-37.6026	431.574	29.3291
-37.6017	434.585	29.3389
-37.6012	435.609	29.3486
-37.6006	435.567	29.3584
-37.5982	433.496	29.3682
-37.5978	429.843	29.37793
-37.5981	428.194	29.3877
-37.5962	431.7674	29.3975
-37.5964	436.304	29.4072
-37.5946	437.3324	29.417
-37.594	433.887	29.4268
-37.59259	428.056	29.4365
-37.5932	428.369	29.4463
-37.59148	432.38	29.4561
-37.5915	434.405	29.46582
-37.5895	435.173	29.4756
-37.5898	435.2688	29.4854
-37.5885	432.3154	29.4951
-37.58683	428.387	29.5049
-37.5864	430.019	29.5146
-37.585	432.185	29.5244
-37.5859	436.76	29.53418
-37.5841	435.679	29.5439
-37.583	430.495	29.5537
-37.5831	429.714	29.5635
-37.582	429.892	29.5732
-37.5818	433.56	29.583
-37.5809	433.258	29.5928
-37.5795	433.856	29.6025
-37.5791	434.982	29.6123
-37.5783	430.196	29.62207
-37.5766	428.9	29.6318
-37.5755	429.003	29.6416
-37.5759	432.716	29.6514
-37.57534	435.911	29.6611
-37.5738	431.8522	29.6709
-37.5725	430.357	29.6807
-37.5715	430.6438	29.69043
-37.5718	430.368	29.7002
-37.5705	431.042	29.71
-37.5701	432.622	29.7197
-37.56852	433.6666	29.7295
-37.5678	435.661	29.7393
-37.5675	431.59	29.749
-37.5661	429.987	29.7588
-37.5651	431.47	29.7686
-37.5644	433.332	29.77832
-37.5643	435.769	29.7881
-37.5644	434.49	29.7979
-37.5614	431.238	29.8076
-37.56218	430.042	29.8174
-37.5622	428.1474	29.8271
-37.5599	430.875	29.8369
-37.5587	433.906	29.84668
-37.5586	437.185	29.8564
-37.5571	434.579	29.8662
-37.55743	427.762	29.876
-37.5564	426.946	29.8857
-37.5552	431.896	29.8955
-37.5539	432.42	29.9053
-37.5533	436.278	29.915
-37.5533	432.795	29.9248
-37.55217	431.484	29.93457
-37.5512	428.968	29.9443
-37.5498	425.427	29.9541
-37.54953	433.612	29.9639
-37.54871	436.303	29.9736
-37.5483	438.65	29.9834
-37.5466	433.088	29.9932
-37.5464	425.594	30.00293
-37.5449	428.982	30.0127
-37.5448	432.942	30.0225
-37.5446	433.779	30.0322
-37.5432	434.443	30.042
-37.5425	432.892	30.0518
-37.5415	430.702	30.0615
-37.5409	427.459	30.0713
-37.539	430.579	30.0811
-37.5388	433.532	30.09082
-37.5383	436.797	30.1006
-37.5381	434.421	30.1104
-37.5362	430.134	30.1201
-37.5362	427.636	30.1299
-37.5354	430.1821	30.1396
-37.5336	434.4845	30.1494
-37.53199	433.1723	30.15918
-37.5325	434.2796	30.1689
-37.5317	432.352	30.1787
-37.5308	430.839	30.1885
-37.5298	431.312	30.1982
-37.5297	429.871	30.208
-37.5281	434.579	30.2178
-37.5285	435.689	30.2275
-37.5269	431.708	30.2373
-37.5265	430.471	30.24707
-37.52528	428.317	30.2568
-37.5248	431.519	30.2666
-37.5231	430.874	30.2764
-37.5217	431.881	30.2861
-37.5216	435.479	30.2959
-37.5204	432.209	30.3057
-37.51984	430.697	30.31543
-37.52	427.333	30.3252
-37.5197	429.985	30.335
-37.5175	435.552	30.3447
-37.5165	432.524	30.3545
-37.5147	431.985	30.3643
-37.5156	430.855	30.374
-37.5133	428.182	30.3838
-37.51437	431.705	30.3936
-37.513	429.5498	30.40332
-37.5136	433.594	30.4131
-37.5117	436.209	30.4229
-37.51	430.987	30.4326
-37.5103	426.745	30.4424
-37.5094	426.84	30.4521
-37.5078	431.117	30.4619
-37.507	434.567	30.47168
-37.5056	433.961	30.4814
-37.5054	431.185	30.4912
-37.5051	430.465	30.501
-37.5049	427.257	30.5107
-37.503	426.0658	30.5205
-37.503	431.85	30.5303
-37.5015	436.3475	30.54
-37.5004	436.12	30.5498
-37.5006	427.398	30.55957
-37.5	425.602	30.5693
-37.4977	427.524	30.5791
-37.4977	433.928	30.5889
-37.4972	436.281	30.5986
-37.495	433.571	30.6084
-37.4963	430.731	30.6182
-37.4945	429.566	30.62793
-37.4943	425.394	30.6377
-37.4924	431.795	30.6475
-37.492	434.215	30.6572
-37.49128	435.216	30.667
-37.4894	433.871	30.6768
-37.4892	426.261	30.6865
-37.4884	426.69	30.6963
-37.4874	431.19	30.7061
-37.4871	432.942	30.71582
-37.4864	435.052	30.7256
-37.4854	430.349	30.7354
-37.4848	430.51	30.7451
-37.4827	428.254	30.7549
-37.48341	427.76	30.7646
-37.4823	431.4071	30.7744
-37.48164	436.088	30.78418
-37.4798	434.657	30.7939
-37.4793	430.081	30.8037
-37.4793	427.047	30.8135
-37.4772	429.882	30.8232
-37.4768	431.544	30.833
-37.4763	432.0882	30.8428
-37.4761	433.038	30.8525
-37.4744	430.818	30.8623
-37.47448	429.396	30.87207
-37.4742	428.699	30.8818
-37.4725	426.495	30.8916
-37.4717	431.321	30.9014
-37.4706	434.221	30.9111
-37.4694	432.414	30.9209
-37.4691	429.31	30.9307
-37.4676	427.527	30.94043
-37.4655	429.976	30.9502
-37.4666	428.606	30.96
-37.4649	430.839	30.9697
-37.4644	431.758	30.9795
-37.464	433.517	30.9893
-37.463	428.773	30.999
-37.4625	425.305	31.0088
-37.4621	425.169	31.0186
-37.4604	433.494	31.02832
-37.4604	432.857	31.0381
-37.4604	433.662	31.0479
-37.4583	431.507	31.0576
-37.458	427.886	31.0674
-37.455	428.399	31.0771
-37.4565	427.849	31.0869
-37.4551	432.319	31.09668
-37.4534	436.24	31.1064
-37.4533	432.021	31.1162
-37.4525	428.13	31.126
-37.4523	423.115	31.1357
-37.4507	426.507	31.1455
-37.4502	434.136	31.1553
-37.449	433.6037	31.165
-37.449	430.581	31.1748
-37.4482	430.299	31.18457
-37.4478	426.187	31.1943
-37.4476	425.787	31.2041
-37.44651	430.469	31.2139
-37.4445	435.014	31.2236
-37.4441	435.4791	31.2334
-37.4429	429.6716	31.2432
-37.4418	424.924	31.25293
-37.4411	424.979	31.2627
-37.4401	430.2999	31.2725
-37.44	434.496	31.2822
-37.4387	431.546	31.292
-37.4383	430.643	31.3018
-37.437	428.578	31.3115
-37.4376	424.545	31.3213
-37.4353	429.195	31.3311
-37.4354	431.56	31.34082
-37.4349	435.025	31.3506
-37.4328	433.41	31.3604
-37.4313	424.294	31.3701
-37.4324	428.181	31.3799
-37.4303	428.968	31.3896
-37.43042	431.449	31.3994
-37.42815	432.101	31.40918
-37.4286	431.132	31.4189
-37.42868	429.242	31.4287
-37.42667	428.874	31.4385
-37.4255	426.474	31.4482
-37.42487	429.729	31.458
-37.4242	430.804	31.4678
-37.4235	434.21	31.4775
-37.4229	430.501	31.4873
-37.421	428.197	31.49707
-37.42244	428.515	31.5068
-37.4197	428.524	31.5166
-37.4198	431.2189	31.5264
-37.41877	431.245	31.5361
-37.4169	432.179	31.5459
-37.417	432.85	31.5557
-37.4154	428.205	31.56543
-37.4144	423.183	31.5752
-37.416	429.4545	31.585
-37.4139	431.9454	31.5947
-37.4133	431.14	31.6045
-37.4114	432.418	31.6143
-37.4117	429.197	31.624
-37.4102	428.597	31.6338
-37.41	426.937	31.6436
-37.40836	429.123	31.65332
-37.408	431.939	31.6631
-37.4075	433.697	31.6729
-37.4058	430.606	31.6826
-37.4061	426.0524	31.6924
-37.40427	425.367	31.7021
-37.4037	430.66	31.7119
-37.4028	432.683	31.72168
-37.40176	434.911	31.7314
-37.4003	429.572	31.7412
-37.4	427.059	31.751
-37.3994	428.083	31.7607
-37.3998	424.616	31.7705
-37.3977	431.172	31.7803
-37.3967	434.787	31.79
-37.3974	432.253	31.7998
-37.3958	428.501	31.80957
-37.39529	423.402	31.8193
-37.394	425.634	31.8291
-37.3931	431.864	31.8389
-37.3934	433.241	31.8486
-37.392	432.333	31.8584
-37.3911	427.641	31.8682
-37.3905	425.516	31.87793
-37.3891	426.507	31.8877
-37.3885	427.128	31.8975
-37.388	432.4238	31.9072
-37.3871	433.283	31.917
-37.3861	429.769	31.9268
-37.3853	425.888	31.9365
-37.3843	423.714	31.9463
-37.3835	429.578	31.9561
-37.3828	431.2619	31.96582
-37.3821	430.0022	31.9756
-37.3812	430.007	31.9854
-37.37986	428.111	31.9951
-37.3797	425.45	32.0049
-37.37812	426.025	32.0146
-37.3777	427.547	32.0244
-37.3771	433.082	32.03418
-37.3752	431.791	32.0439
-37.3753	426.934	32.0537
-37.3744	427.049	32.0635
-37.3732	425.094	32.0732
-37.3733	427.976	32.083
-37.3713	430.48	32.0928
-37.3716	429.639	32.1025
-37.3709	429.588	32.1123
-37.3693	430.531	32.12207
-37.3688	426.486	32.1318
-37.36755	425.87	32.1416
-37.367	428.426	32.1514
-37.3666	432.305	32.1611
-37.3661	429.328	32.1709
-37.3635	428.565	32.1807
-37.3634	426.124	32.19043
-37.36248	426.414	32.2002
-37.3616	427.195	32.21
-37.3616	429.916	32.2197
-37.3602	430.892	32.2295
-37.3585	432.198	32.2393
-37.3592	426.473	32.249
-37.3578	423.553	32.2588
-37.3577	426.956	32.2686
-37.3564	427.527	32.27832
-37.3556	433.424	32.2881
-37.3542	430.521	32.2979
-37.3544	426.993	32.3076
-37.3533	426.861	32.3174
-37.352	424.135	32.3271
-37.3521	425.519	32.3369
-37.3505	430.646	32.34668
-37.3499	431.121	32.3564
-37.3486	430.0556	32.3662
-37.348	423.488	32.376
-37.3472	422.236	32.3857
-37.3465	426.268	32.3955
-37.3455	429.917	32.4053
-37.3452	433.1123	32.415
-37.3445	428.0766	32.4248
-37.3427	423.258	32.43457
-37.3428	425.563	32.4443
-37.3419	421.402	32.4541
-37.3411	427.799	32.4639
-37.341	429.652	32.4736
-37.3408	431.326	32.4834
-37.33876	427.619	32.4932
-37.3385	420.864	32.50293
-37.3369	423.424	32.5127
-37.33675	429.7442	32.5225
-37.3365	430.685	32.5322
-37.3357	431.375	32.542
-37.3338	425.443	32.5518
-37.3337	424.278	32.5615
-37.3311	423.552	32.5713
-37.3313	425.955	32.5811
-37.3313	427.294	32.59082
-37.3292	431.425	32.6006
-37.328	429.073	32.6104
-37.3282	422.6709	32.6201
-37.3283	422.765	32.6299
-37.3261	423.7514	32.6396
-37.3255	426.765	32.6494
-37.3248	427.621	32.65918
-37.3244	428.212	32.6689
-37.32439	425.098	32.6787
-37.3226	426.855	32.6885
-37.3224	424.939	32.6982
-37.3218	422.615	32.708
-37.3197	427.837	32.7178
-37.3186	430.007	32.7275
-37.3181	427.071	32.7373
-37.31823	426.233	32.74707
-37.3173	421.663	32.7568
-37.3159	424.621	32.7666
-37.3148	425.843	32.7764
-37.3138	427.096	32.7861
-37.3136	427.181	32.7959
-37.3134	427.571	32.8057
-37.3117	424.717	32.81543
-37.3106	422.827	32.8252
-37.31	422.946	32.835
-37.3107	429.549	32.8447
-37.3086	430.737	32.8545
-37.3079	427.485	32.8643
-37.3066	423.217	32.874
-37.3067	422.336	32.8838
-37.30526	424.289	32.8936
-37.3052	423.922	32.90332
-37.3027	427.356	32.9131
-37.3033	429.246	32.9229
-37.3021	427.175	32.9326
-37.3012	421.528	32.9424
-37.30027	420.171	32.9521
-37.3003	424.89	32.9619
-37.2997	431.094	32.97168
-37.2989	429.316	32.9814
-37.2973	423.698	32.9912
-37.2965	421.968	33.001
-37.2968	421.387	33.0107
-37.2937	423.586	33.0205
-37.2947	426.075	33.0303
-37.2938	427.2486	33.04
-37.2923	428.883	33.0498
-37.2917	422.653	33.05957
-37.291	420.344	33.0693
-37.2894	420.998	33.0791
-37.28936	426.887	33.0889
-37.2884	428.702	33.0986
-37.2876	426.72	33.1084
-37.2869	422.637	33.1182
-37.2853	421.455	33.12793
-37.2839	419.604	33.1377
-37.2843	425.585	33.1475
-37.283	424.931	33.1572
-37.2823	427.926	33.167
-37.2809	426.266	33.1768
-37.2803	419.707	33.1865
-37.2804	420.495	33.1963
-37.2789	424.126	33.2061
-37.2779	425.793	33.21582
-37.2782	425.273	33.2256
-37.27652	422.947	33.2354
-37.2755	422.305	33.2451
-37.27597	421.871	33.2549
-37.27552	418.695	33.2646
-37.2732	421.837	33.2744
-37.2736	424.146	33.28418
-37.2713	425.929	33.2939
-37.2719	420.649	33.3037
-37.2702	419.515	33.3135
-37.2686	419.182	33.3232
-37.2684	422.442	33.333
-37.2684	421.799	33.3428
-37.2665	422.496	33.3525
-37.2666	421.112	33.3623
-37.26511	421.169	33.37207
-37.2646	418.969	33.3818
-37.2632	416.564	33.3916
-37.2631	420.612	33.4014
-37.26329	422.097	33.4111
-37.2609	421.391	33.4209
-37.26	418.888	33.4307
-37.2593	413.756	33.44043
-37.259	416.759	33.4502
-37.2573	414.428	33.46
-37.2576	414.897	33.4697
-37.2574	416.249	33.4795
-37.2556	409.089	33.4893
-37.2523	-5.39872	33.499
-37.25098	-26.0011	33.5088
-37.2512	-35.8865	33.5186
-37.25037	-45.8894	33.52832
-37.25066	-38.6846	33.5381
-37.2494	-33.8117	33.5479
-37.2486	-41.4976	33.5576
-37.2478	-41.4523	33.5674
-37.2469	-42.1342	33.5771
-37.2471	-41.4989	33.5869
-37.2473	-36.5829	33.59668
-37.2449	-35.2671	33.6064
-37.2454	-39.453	33.6162
-37.2442	-42.8178	33.626
-37.2441	-44.1518	33.6357
-37.2417	-42.0514	33.6455
-37.2416	-35.363	33.6553
-37.2399	-35.1455	33.665
-37.2397	-39.1545	33.6748
-37.2392	-41.39352	33.68457
-37.2377	-43.8646	33.6943
-37.2376	-42.299	33.7041
-37.2369	-37.52449	33.7139
-37.2357	-37.03286	33.7236
-37.2353	-34.63472	33.7334
-37.2343	-40.1607	33.7432
-37.233	-44.8013	33.75293
-37.2326	-42.3144	33.7627
-37.2323	-40.3259	33.7725
-37.2312	-35.7283	33.7822
-37.2294	-38.4457	33.792
-37.2291	-37.69133	33.8018
-37.2282	-41.33432	33.8115
-37.228	-43.0668	33.8213
-37.228	-39.10104	33.8311
-37.2274	-38.8369	33.84082
-37.226	-36.493	33.8506
-37.2248	-35.945	33.8604
-37.2239	-41.3709	33.8701
-37.2233	-40.6427	33.8799
-37.2215	-42.2795	33.8896
-37.2213	-38.3042	33.8994
-37.2201	-37.6029	33.90918
-37.21965	-38.9855	33.9189
-37.2175	-40.6336	33.9287
-37.219	-41.9569	33.9385
-37.2186	-42.7748	33.9482
-37.216	-41.2117	33.958
-37.2151	-39.3647	33.9678
-37.2145	-36.1457	33.9775
-37.2134	-37.7076	33.9873
-37.2122	-40.464	33.99707
-37.2132	-41.771	34.0068
-37.2119	-40.3829	34.0166
-37.2107	-39.7025	34.0264
-37.2104	-37.7603	34.0361
-37.2096	-38.2316	34.0459
-37.2084	-37.4246	34.0557
-37.2091	-40.6289	34.06543
-37.207	-44.1275	34.0752
-37.2071	-42.349	34.085
-37.2052	-37.9845	34.0947
-37.2047	-34.1898	34.1045
-37.2029	-38.0378	34.1143
-37.2022	-41.7302	34.124
-37.20216	-42.0595	34.1338
-37.2006	-40.7159	34.1436
-37.2005	-41.2343	34.15332
-37.1989	-34.55114	34.1631
-37.1982	-37.9516	34.1729
-37.1986	-37.3135	34.1826
-37.19669	-43.9299	34.1924
-37.1965	-44.0993	34.2021
-37.1955	-38.6093	34.2119
-37.1952	-36.5643	34.22168
-37.1942	-36.0577	34.2314
-37.1926	-39.6929	34.2412
-37.1918	-43.492	34.251
-37.1913	-41.7442	34.2607
-37.191	-41.1293	34.2705
-37.1892	-36.88995	34.2803
-37.1888	-36.1951	34.29
-37.1884	-38.7478	34.2998
-37.1868	-39.1005	34.30957
-37.1869	-45.0154	34.3193
-37.185	-43.0035	34.3291
-37.1845	-37.1885	34.3389
-37.1839	-36.1973	34.3486
-37.1831	-38.0985	34.3584
-37.1828	-41.33313	34.3682
-37.1808	-43.317	34.37793
-37.18008	-42.1096	34.3877
-37.1784	-38.0169	34.3975
-37.179	-38.2341	34.4072
-37.1787	-35.1054	34.417
-37.1784	-37.9045	34.4268
-37.1752	-42.6037	34.4365
-37.17511	-43.2668	34.4463
-37.1751	-42.0033	34.4561
-37.1742	-35.4293	34.46582
-37.1738	-37.4111	34.4756
-37.1731	-38.6189	34.4854
-37.1733	-40.1319	34.4951
-37.1706	-42.6619	34.5049