File: data/processed_data_files/tensile/0.254_hd_dimension_typeiv_4545_r(1).dat
MTS793|BTW|ENU|1|2|.|/|:|1|0|0|A

Data Header:			0.254_hd_dimension_typeiv_4545_r0			Time:	20.0178	s	4/13/2019 8:11:27 PM
Data Acquisition:	Timed
Station Name:	ft40.cfg
Test File Name:	monotonic_0.2540_typeiv_hd_4545_dimension.tst
Displacement	Force	Running Time
mm	N	s
-40.0337	-52.1828	0.0227051
-40.03418	-56.7798	0.0422363
-40.0347	-54.6352	0.0617676
-40.0341	-53.3485	0.0812988
-40.0326	-54.6283	0.10083
-40.0316	-53.585	0.120361
-40.0301	-50.7988	0.139893
-40.0291	-50.1244	0.159424
-40.0263	-53.1364	0.178955
-40.0258	-47.0878	0.198486
-40.0233	-48.6363	0.218018
-40.0209	-51.1495	0.237549
-40.0189	-44.8145	0.25708
-40.0178	-40.7282	0.276611
-40.01696	-49.8819	0.296143
-40.0142	-42.622	0.315674
-40.0131	-41.7757	0.335205
-40.012	-43.2447	0.354736
-40.0103	-41.2118	0.374268
-40.00758	-36.2859	0.393799
-40.0068	-43.5471	0.41333
-40.0059	-38.7292	0.432861
-40.0046	-34.4202	0.452393
-40.0015	-35.6143	0.471924
-40.0005	-37.9561	0.491455
-39.9997	-31.8455	0.510986
-39.9969	-34.8806	0.530518
-39.99477	-34.1467	0.550049
-39.99419	-30.5372	0.56958
-39.9921	-29.0135	0.589111
-39.9893	-31.6614	0.608643
-39.988	-29.5186	0.628174
-39.9877	-26.6637	0.647705
-39.9861	-28.7375	0.667236
-39.984	-27.5795	0.686768
-39.982	-22.9137	0.706299
-39.9806	-23.2269	0.72583
-39.9787	-26.7	0.745361
-39.9785	-20.6121	0.764893
-39.9763	-20.8501	0.784424
-39.9748	-22.0261	0.803955
-39.9727	-17.8719	0.823486
-39.9704	-17.7533	0.843018
-39.97	-23.26	0.862549
-39.968	-15.4597	0.88208
-39.9662	-13.79672	0.901611
-39.9641	-17.4473	0.921143
-39.9628	-15.4617	0.940674
-39.9619	-10.20922	0.960205
-39.959	-17.5002	0.979736
-39.9577	-11.9604	0.999268
-39.9566	-10.377	1.0188
-39.954	-11.0102	1.03833
-39.95332	-10.2839	1.05786
-39.9509	-2.79847	1.07739
-39.9506	-9.69594	1.09692
-39.9483	-8.93658	1.11646
-39.9482	-4.55649	1.13599
-39.9451	-3.327991	1.15552
-39.942	-5.92925	1.17505
-39.9415	-2.638993	1.19458
-39.9403	-0.480103	1.21411
-39.9385	-2.1918	1.23364
-39.9358	-0.400863	1.25317
-39.9349	2.42686	1.27271
-39.9332	0.1998328	1.29224
-39.9325	1.58554	1.31177
-39.9303	6.95698	1.3313
-39.9288	4.18347	1.35083
-39.92627	2.30259	1.37036
-39.9251	10.3857	1.38989
-39.9236	10.10368	1.40942
-39.9227	4.50922	1.42896
-39.9205	11.21536	1.44849
-39.9192	10.638	1.46802
-39.9164	9.10172	1.48755
-39.9161	14.4051	1.50708
-39.914	16.44058	1.52661
-39.912	8.97882	1.54614
-39.9111	17.4938	1.56567
-39.9088	19.7161	1.58521
-39.9087	17.2842	1.60474
-39.90546	16.22974	1.62427
-39.9034	23.5237	1.6438
-39.9025	18.4266	1.66333
-39.9007	21.1051	1.68286
-39.8991	22.6924	1.70239
-39.8985	22.9753	1.72192
-39.8958	22.8827	1.74146
-39.8942	28.2256	1.76099
-39.8922	25.6576	1.78052
-39.8912	23.6038	1.80005
-39.8899	30.281	1.81958
-39.8888	30.1955	1.83911
-39.8864	27.4615	1.85864
-39.8844	29.1534	1.87817
-39.8823	34.7505	1.89771
-39.8815	31.6628	1.91724
-39.8794	33.1583	1.93677
-39.878	35.1217	1.9563
-39.8767	35.039	1.97583
-39.8751	32.4502	1.99536
-39.8722	42.4653	2.01489
-39.8713	37.2066	2.03442
-39.8705	36.7481	2.05396
-39.8677	41.74831	2.07349
-39.8657	44.35841	2.09302
-39.8658	36.6351	2.11255
-39.8631	45.4035	2.13208
-39.8629	45.82	2.15161
-39.8615	43.9256	2.17114
-39.8594	47.1164	2.19067
-39.8577	50.3626	2.21021
-39.8556	43.0086	2.22974
-39.8541	49.3251	2.24927
-39.8519	52.4318	2.2688
-39.8505	50.4371	2.28833
-39.8492	49.1105	2.30786
-39.8474	53.8393	2.32739
-39.8458	50.4503	2.34692
-39.8436	52.8236	2.36646
-39.84354	57.2122	2.38599
-39.84124	55.402	2.40552
-39.8393	54.741	2.42505
-39.8378	58.5739	2.44458
-39.8372	59.574	2.46411
-39.8346	55.0716	2.48364
-39.8328	59.79517	2.50317
-39.8314	63.2873	2.52271
-39.8294	61.77824	2.54224
-39.8271	59.7797	2.56177
-39.826	67.6413	2.5813
-39.8245	64.2014	2.60083
-39.8237	65.0198	2.62036
-39.82077	70.12793	2.63989
-39.8197	69.7936	2.65942
-39.8177	63.75172	2.67896
-39.8163	73.90612	2.69849
-39.815	70.4693	2.71802
-39.81292	68.0588	2.73755
-39.8122	73.8346	2.75708
-39.8098	77.9882	2.77661
-39.8065	68.7426	2.79614
-39.8073	75.9834	2.81567
-39.8043	78.2101	2.83521
-39.8033	75.442	2.85474
-39.8014	78.3458	2.87427
-39.7997	83.252	2.8938
-39.7979	77.4575	2.91333
-39.7969	80.6796	2.93286
-39.7954	84.1902	2.95239
-39.7944	81.5895	2.97192
-39.7927	80.8312	2.99146
-39.7899	85.9585	3.01099
-39.78912	84.561	3.03052
-39.7871	84.9094	3.05005
-39.7855	87.3642	3.06958
-39.7853	88.3741	3.08911
-39.7819	88.5171	3.10864
-39.7816	89.4284	3.12817
-39.7797	93.1053	3.14771
-39.7776	88.09214	3.16724
-39.7761	91.1177	3.18677
-39.7744	96.8365	3.2063
-39.7723	95.6746	3.22583
-39.7696	89.0583	3.24536
-39.7697	99.7853	3.26489
-39.7678	94.9119	3.28442
-39.7653	95.1581	3.30396
-39.7646	102.045	3.32349
-39.7621	102.961	3.34302
-39.7609	95.018	3.36255
-39.7588	105.051	3.38208
-39.7591	104.518	3.40161
-39.7553	101.922	3.42114
-39.755	103.967	3.44067
-39.7528	108.558	3.46021
-39.7523	103.1048	3.47974
-39.7488	106.942	3.49927
-39.7477	109.7207	3.5188
-39.7453	107.0256	3.53833
-39.7447	109.012	3.55786
-39.7434	113.131	3.57739
-39.7425	109.595	3.59692
-39.7403	110.541	3.61646
-39.7383	114.897	3.63599
-39.7369	115.0291	3.65552
-39.7349	112.349	3.67505
-39.73312	115.406	3.69458
-39.7313	119.683	3.71411
-39.7301	116.479	3.73364
-39.7286	119.635	3.75317
-39.7268	122.418	3.77271
-39.7256	120.011	3.79224
-39.7249	119.948	3.81177
-39.7224	127.584	3.8313
-39.7206	121.532	3.85083
-39.7196	121.954	3.87036
-39.7181	128.4144	3.88989
-39.7149	128.5143	3.90942
-39.7141	122.3817	3.92896
-39.7122	130.652	3.94849
-39.7094	128.917	3.96802
-39.7077	127.837	3.98755
-39.7071	132.808	4.00708
-39.7057	134.8855	4.02661
-39.7039	127.75	4.04614
-39.7022	134.375	4.06567
-39.7012	138.621	4.08521
-39.6997	132.5555	4.10474
-39.6971	135.94	4.12427
-39.6948	140.334	4.1438
-39.69376	134.903	4.16333
-39.693	136.814	4.18286
-39.6917	141.308	4.20239
-39.6892	137.993	4.22192
-39.6877	140.463	4.24146
-39.6873	145.3614	4.26099
-39.6836	144.547	4.28052
-39.6827	140.364	4.30005
-39.6814	147.279	4.31958
-39.6805	148.241	4.33911
-39.6783	144.776	4.35864
-39.67601	145.802	4.37817
-39.6757	152.135	4.39771
-39.6727	147.963	4.41724
-39.6712	150.7007	4.43677
-39.67094	154.492	4.4563
-39.6688	153.292	4.47583
-39.6668	149.219	4.49536
-39.6659	158.986	4.51489
-39.6635	154.825	4.53442
-39.6614	152.196	4.55396
-39.66	160.6	4.57349
-39.6588	161.481	4.59302
-39.6563	153.216	4.61255
-39.6559	162.074	4.63208
-39.6534	162.858	4.65161
-39.6526	158.899	4.67114
-39.6507	163.439	4.69067
-39.64859	166.983	4.71021
-39.6469	158.578	4.72974
-39.6452	165.252	4.74927
-39.6439	168.6954	4.7688
-39.642	163.7662	4.78833
-39.63987	166.074	4.80786
-39.64	171.393	4.82739
-39.6376	169.102	4.84692
-39.6347	169.334	4.86646
-39.6341	172.023	4.88599
-39.6327	171.549	4.90552
-39.6301	172.964	4.92505
-39.6282	174.2471	4.94458
-39.6269	178.215	4.96411
-39.62656	172.221	4.98364
-39.625	176.348	5.00317
-39.6231	181.577	5.02271
-39.6211	178.38	5.04224
-39.6188	176.295	5.06177
-39.61858	184.48	5.0813
-39.6162	178.979	5.10083
-39.6153	181.6097	5.12036
-39.61261	186.088	5.13989
-39.611	184.032	5.15942
-39.6101	178.997	5.17896
-39.6081	189.8721	5.19849
-39.6056	187.45	5.21802
-39.6036	182.526	5.23755
-39.6035	188.482	5.25708
-39.6007	193.154	5.27661
-39.6003	183.315	5.29614
-39.5988	191.144	5.31567
-39.5959	192.578	5.33521
-39.5955	189.473	5.35474
-39.5935	193.268	5.37427
-39.5927	197.1664	5.3938
-39.5899	191.505	5.41333
-39.5874	192.724	5.43286
-39.5871	201.448	5.45239
-39.5852	198.328	5.47192
-39.5831	196.789	5.49146
-39.5817	198.494	5.51099
-39.5806	201.98	5.53052
-39.5784	198.375	5.55005
-39.5764	203.441	5.56958
-39.575	204.622	5.58911
-39.5739	203.341	5.60864
-39.5718	201.8721	5.62817
-39.5708	211.344	5.64771
-39.569	202.333	5.66724
-39.5677	205.691	5.68677
-39.566	212.143	5.7063
-39.5645	209.158	5.72583
-39.5634	202.713	5.74536
-39.5619	214.648	5.76489
-39.55975	210.422	5.78442
-39.5576	210.873	5.80396
-39.556	215.696	5.82349
-39.554	216.448	5.84302
-39.5535	209.722	5.86255
-39.5504	219.861	5.88208
-39.5498	219.723	5.90161
-39.5467	214.62	5.92114
-39.5459	217.893	5.94067
-39.545	221.937	5.96021
-39.5438	216.366	5.97974
-39.5429	220.082	5.99927
-39.53941	223.961	6.0188
-39.5377	218.807	6.03833
-39.5363	223.607	6.05786
-39.535	226.87	6.07739
-39.5328	223.541	6.09692
-39.532	221.517	6.11646
-39.5287	228.188	6.13599
-39.5284	229.53	6.15552
-39.5265	227.929	6.17505
-39.526	226.4527	6.19458
-39.5239	233.298	6.21411
-39.522	228.421	6.23364
-39.5205	231.652	6.25317
-39.5181	234.002	6.27271
-39.5168	232.843	6.29224
-39.5162	229.572	6.31177
-39.513	241.602	6.3313
-39.512	233.214	6.35083
-39.5112	234.902	6.37036
-39.50848	239.765	6.38989
-39.5073	241.694	6.40942
-39.5068	235.213	6.42896
-39.5034	244.34	6.44849
-39.5022	242.5466	6.46802
-39.4998	238.748	6.48755
-39.4993	244.375	6.50708
-39.4972	246.443	6.52661
-39.4963	239.6042	6.54614
-39.4941	246.392	6.56567
-39.4929	249.3325	6.58521
-39.4907	242.52	6.60474
-39.4896	247.055	6.62427
-39.4874	250.767	6.6438
-39.48605	248.383	6.66333
-39.4846	248.4342	6.68286
-39.4825	254.207	6.70239
-39.4817	250.52	6.72192
-39.4799	252.057	6.74146
-39.4783	255.335	6.76099
-39.4757	256.753	6.78052
-39.4746	252.169	6.80005
-39.4721	257.752	6.81958
-39.4728	260.827	6.83911
-39.4694	257.3681	6.85864
-39.469	254.356	6.87817
-39.466	263.801	6.89771
-39.4658	257.522	6.91724
-39.464	260.725	6.93677
-39.462	266.361	6.9563
-39.4602	262.75	6.97583
-39.4579	259.176	6.99536
-39.4579	270.447	7.01489
-39.4547	265.0072	7.03442
-39.45277	262.517	7.05396
-39.4525	269.939	7.07349
-39.4493	270.752	7.09302
-39.4495	264.0065	7.11255
-39.4467	272.141	7.13208
-39.4455	272.757	7.15161
-39.44381	268.476	7.17114
-39.4422	274.82	7.19067
-39.4403	276.4071	7.21021
-39.43877	270.864	7.22974
-39.43668	274.066	7.24927
-39.4358	280.282	7.2688
-39.4349	274.5072	7.28833
-39.4319	276.042	7.30786
-39.432	278.543	7.32739
-39.4289	279.974	7.34692
-39.428	277.603	7.36646
-39.4263	284.484	7.38599
-39.4242	282.218	7.40552
-39.4232	281.087	7.42505
-39.4211	282.477	7.44458
-39.41843	288.616	7.46411
-39.4176	279.499	7.48364
-39.4171	286.7739	7.50317
-39.4153	292.318	7.52271
-39.41283	287.127	7.54224
-39.4119	285.491	7.56177
-39.4105	294.168	7.5813
-39.4078	288.809	7.60083
-39.4061	289.777	7.62036
-39.4045	296.501	7.63989
-39.4025	293.0751	7.65942
-39.4035	288.023	7.67896
-39.3999	298.304	7.69849
-39.3978	297.573	7.71802
-39.3964	292.2301	7.73755
-39.3945	298.297	7.75708
-39.3933	301.261	7.77661
-39.391	295.226	7.79614
-39.3909	299.14	7.81567
-39.3871	302.775	7.83521
-39.386	297.7124	7.85474
-39.3852	303.232	7.87427
-39.3828	304.877	7.8938
-39.3819	301.9913	7.91333
-39.3805	300.259	7.93286
-39.3782	308.158	7.95239
-39.3774	307.478	7.97192
-39.3757	303.61	7.99146
-39.3746	304.634	8.01099
-39.3731	311.516	8.03052
-39.3707	304.943	8.05005
-39.3688	310.2901	8.06958
-39.3679	312.481	8.08911
-39.3661	309.032	8.10864
-39.3644	310.045	8.12817
-39.3626	318.079	8.14771
-39.3616	309.659	8.16724
-39.3579	312.322	8.18677
-39.3571	319.4581	8.2063
-39.3563	316.159	8.22583
-39.3549	313.213	8.24536
-39.35331	321.445	8.26489
-39.3515	317.73	8.28442
-39.3503	316.308	8.30396
-39.3482	322.1311	8.32349
-39.3454	320.244	8.34302
-39.3444	316.862	8.36255
-39.3428	324.214	8.38208
-39.3414	326.81	8.40161
-39.3398	319.219	8.42114
-39.3371	324.8121	8.44067
-39.3356	328.345	8.46021
-39.3348	323.709	8.47974
-39.33276	324.064	8.49927
-39.3324	330.08	8.5188
-39.329	326.956	8.53833
-39.3284	327.576	8.55786
-39.3276	329.287	8.57739
-39.326	330.35	8.59692
-39.3245	326.311	8.61646
-39.32169	335.24	8.63599
-39.3204	333.879	8.65552
-39.3183	331.449	8.67505
-39.3176	332.58	8.69458
-39.3157	339.59	8.71411
-39.3133	332.447	8.73364
-39.3117	336.241	8.75317
-39.31076	340.161	8.77271
-39.3089	336.229	8.79224
-39.3076	336.112	8.81177
-39.3061	345.083	8.8313
-39.3035	338.592	8.85083
-39.3033	339.26	8.87036
-39.30032	345.5686	8.88989
-39.2988	343.825	8.90942
-39.2967	338.843	8.92896
-39.2962	344.64	8.94849
-39.2943	346.098	8.96802
-39.2921	340.906	8.98755
-39.2925	349.3541	9.00708
-39.2893	349.327	9.02661
-39.2868	344.38	9.04614
-39.2859	348.791	9.06567
-39.284	353.687	9.08521
-39.2836	346.788	9.10474
-39.2815	350.83	9.12427
-39.2796	353.382	9.1438
-39.2773	353.46	9.16333
-39.2765	349.698	9.18286
-39.2742	358.034	9.20239
-39.2728	354.752	9.22192
-39.27108	354.676	9.24146
-39.2699	356.867	9.26099
-39.2683	361.039	9.28052
-39.2656	351.9971	9.30005
-39.266	359.326	9.31958
-39.2629	363.3476	9.33911
-39.2623	358.012	9.35864
-39.2602	357.318	9.37817
-39.2585	365.804	9.39771
-39.2561	359.795	9.41724
-39.2561	362.252	9.43677
-39.2534	367.246	9.4563
-39.2524	362.3718	9.47583
-39.2514	360.066	9.49536
-39.2488	370.071	9.51489
-39.24667	366.176	9.53442
-39.2452	361.804	9.55396
-39.2435	371.159	9.57349
-39.2431	368.541	9.59302
-39.2395	366.224	9.61255
-39.2398	370.54	9.63208
-39.237	373.27	9.65161
-39.2361	367.6868	9.67114
-39.2342	373.989	9.69067
-39.2336	374.5072	9.71021
-39.2319	372.563	9.72974
-39.229	372.038	9.74927
-39.2272	380.7218	9.7688
-39.2266	376.8309	9.78833
-39.2235	375.838	9.80786
-39.2231	376.006	9.82739
-39.2208	380.427	9.84692
-39.2185	375.148	9.86646
-39.21693	381.371	9.88599
-39.2166	381.3139	9.90552
-39.2145	378.154	9.92505
-39.2127	381.1	9.94458
-39.2127	386.448	9.96411
-39.2098	378.922	9.98364
-39.2085	383.659	10.0032
-39.206	388.512	10.0227
-39.2059	384.997	10.0422
-39.203	382.379	10.0618
-39.2018	390.736	10.0813
-39.199	385.541	10.10083
-39.1992	384.658	10.1204
-39.1954	393.243	10.1399
-39.1956	387.202	10.1594
-39.1932	385.474	10.179
-39.19149	393.563	10.1985
-39.1899	393.372	10.218
-39.1894	387.9176	10.2375
-39.1876	395.35	10.25708
-39.1854	393.919	10.2766
-39.1843	392.663	10.2961
-39.1828	394.499	10.3157
-39.1807	399.125	10.3352
-39.179	393.582	10.3547
-39.1764	397.684	10.3743
-39.1761	398.959	10.3938
-39.17337	398.23	10.41333
-39.172	395.383	10.4329
-39.171	403.497	10.4524
-39.16917	401.6803	10.4719
-39.16732	397.342	10.4915
-39.1649	400.265	10.511
-39.1641	406.345	10.5305
-39.163	399.2814	10.55
-39.1605	404.113	10.56958
-39.1574	406.67	10.5891
-39.1575	400.5701	10.6086
-39.1569	403.2594	10.6282
-39.1546	410.493	10.6477
-39.152	404.05	10.6672
-39.1514	404.027	10.6868
-39.1489	412.64	10.7063
-39.147	406.829	10.72583
-39.1461	404.877	10.7454
-39.1443	412.606	10.7649
-39.143	411.264	10.7844
-39.141	407.215	10.804
-39.1395	416.817	10.8235
-39.1384	412.796	10.843
-39.1371	409.097	10.8625
-39.13575	414.848	10.88208
-39.1328	419.467	10.9016
-39.1327	412.7973	10.9211
-39.1303	416.255	10.9407
-39.1277	418.049	10.9602
-39.1268	416.587	10.9797
-39.1261	415.828	10.9993
-39.124	421.826	11.0188
-39.1222	418.809	11.03833
-39.1196	419.527	11.0579
-39.11797	421.509	11.0774
-39.11758	423.021	11.0969
-39.115	417.139	11.1165
-39.114	424.7926	11.136
-39.1125	426.67	11.1555
-39.1114	421.936	11.175
-39.10981	422.854	11.19458
-39.1076	427.739	11.2141
-39.1059	421.896	11.2336
-39.1026	425.076	11.2532
-39.102	430.031	11.2727
-39.1004	423.771	11.2922
-39.0997	425.84	11.3118
-39.0978	432.621	11.3313
-39.0952	427.174	11.35083
-39.0948	425.833	11.3704
-39.0935	434.408	11.3899
-39.0908	429.8869	11.4094
-39.0896	427.599	11.429
-39.0889	433.517	11.4485
-39.0852	433.7	11.468
-39.08263	429.913	11.4875
-39.0827	437.528	11.50708
-39.08131	433.5033	11.5266
-39.0794	431	11.5461
-39.0781	434.725	11.5657
-39.0762	439.884	11.5852
-39.0739	433.987	11.6047
-39.073	436.231	11.6243
-39.0699	437.415	11.6438
-39.0703	437.819	11.66333
-39.0686	435.383	11.6829
-39.0653	442.183	11.7024
-39.06535	440.105	11.7219
-39.0643	438.287	11.7415
-39.0628	441.761	11.761
-39.0597	443.093	11.7805
-39.0578	435.527	11.8
-39.0574	441.912	11.81958
-39.0553	446.791	11.8391
-39.0532	439.149	11.8586
-39.0524	441.6109	11.8782
-39.0506	447.991	11.8977
-39.048	442.157	11.9172
-39.0466	444.147	11.9368
-39.0456	451.0881	11.9563
-39.0443	443.741	11.97583
-39.0427	443.532	11.9954
-39.0404	451.881	12.0149
-39.039	448.034	12.0344
-39.0386	445.362	12.054
-39.0354	453.561	12.0735
-39.034	449.056	12.093
-39.0332	446.775	12.1125
-39.0318	449.348	12.13208
-39.0283	452.557	12.1516
-39.0275	448.193	12.1711
-39.0261	452.5463	12.1907
-39.025	452.36	12.2102
-39.0233	451.113	12.2297
-39.0201	450.819	12.2493
-39.01976	456.508	12.2688
-39.018	452.555	12.28833
-39.017	452.358	12.3079
-39.014	455.233	12.3274
-39.0123	456.554	12.3469
-39.0112	451.45	12.3665
-39.0097	458.125	12.386
-39.0079	457.872	12.4055
-39.0075	453.744	12.425
-39.0038	458.891	12.44458
-39.0028	460.138	12.4641
-39.002	455.611	12.4836
-39.0006	456.065	12.5032
-38.9984	463.439	12.5227
-38.9972	455.833	12.5422
-38.9947	459.144	12.5618
-38.9933	463.152	12.5813
-38.9919	458.822	12.60083
-38.9905	457.89	12.6204
-38.98901	467.095	12.6399
-38.9868	458.364	12.6594
-38.9855	460.3707	12.679
-38.9838	465.201	12.6985
-38.9822	465.625	12.718
-38.9803	460.421	12.7375
-38.9787	465.613	12.75708
-38.9759	463.632	12.7766
-38.9754	464.507	12.7961
-38.9742	463.145	12.8157
-38.973	467.967	12.8352
-38.9695	462.123	12.8547
-38.9687	465.302	12.8743
-38.9672	466.731	12.8938
-38.965	466.93	12.91333
-38.9644	462.699	12.9329
-38.9625	469.918	12.9524
-38.9614	469.487	12.9719
-38.9593	463.703	12.9915
-38.9572	467.429	13.011
-38.9557	470.729	13.0305
-38.9544	465.932	13.05
-38.9533	470.028	13.06958
-38.951	473.287	13.0891
-38.9496	464.998	13.1086
-38.9476	470.6398	13.1282
-38.94622	472.747	13.1477
-38.9454	468.809	13.1672
-38.9426	469.152	13.1868
-38.9409	476.366	13.2063
-38.9404	468.692	13.22583
-38.9376	470.372	13.2454
-38.9356	473.662	13.2649
-38.9339	473.271	13.2844
-38.9337	470.147	13.304
-38.931	478.57	13.3235
-38.9311	472.071	13.343
-38.928	471.076	13.3625
-38.9266	474.149	13.38208
-38.9241	478.3725	13.4016
-38.9237	472.235	13.4211
-38.922	474.517	13.4407
-38.9204	474.417	13.4602
-38.9198	474.758	13.4797
-38.917	472.972	13.4993
-38.9157	477.886	13.5188
-38.9132	473.932	13.53833
-38.9125	473.655	13.5579
-38.9094	478.48	13.5774
-38.9085	478.066	13.5969
-38.9063	471.832	13.6165
-38.9052	476.973	13.636
-38.9039	479.551	13.6555
-38.9019	472.44	13.675
-38.901	476.8649	13.69458
-38.8986	480.732	13.7141
-38.8981	475.065	13.7336
-38.8956	476.987	13.7532
-38.8942	482.437	13.7727
-38.8928	474.1496	13.7922
-38.8906	478.4505	13.8118
-38.8901	482.584	13.8313
-38.888	479.923	13.85083
-38.8874	473.396	13.8704
-38.8844	483.526	13.8899
-38.8828	478.294	13.9094
-38.88097	478.577	13.929
-38.8795	480.803	13.9485
-38.87809	480.031	13.968
-38.8753	477.8187	13.9875
-38.87439	482.809	14.00708
-38.8733	482.266	14.0266
-38.8714	477.208	14.0461
-38.86953	478.465	14.0657
-38.86953	483.678	14.0852
-38.8666	479.784	14.1047
-38.8646	479.765	14.1243
-38.8628	481.037	14.1438
-38.8616	481.124	14.16333
-38.8599	477.427	14.1829
-38.85767	483.7	14.2024
-38.8568	481.215	14.2219
-38.8558	476.887	14.2415
-38.8533	483.564	14.261
-38.8513	483.351	14.2805
-38.8492	477.168	14.3
-38.8486	483.134	14.31958
-38.8465	485.495	14.3391
-38.846	477.517	14.3586
-38.8435	481.953	14.3782
-38.8419	482.913	14.3977
-38.8408	479.971	14.4172
-38.8396	481.349	14.4368
-38.8361	488.043	14.4563
-38.8358	479.071	14.47583
-38.8339	481.7948	14.4954
-38.83139	485.848	14.5149
-38.8291	484.609	14.5344
-38.8289	480.338	14.554
-38.8281	486.292	14.5735
-38.8253	481.112	14.593
-38.824	482.082	14.6125
-38.8224	481.913	14.63208
-38.8211	484.895	14.6516
-38.8199	480.507	14.6711
-38.8182	484.502	14.6907
-38.8162	485.151	14.7102
-38.8145	480.442	14.7297
-38.8135	481.0054	14.7493
-38.8115	486.07	14.7688
-38.8102	484.075	14.78833
-38.8081	480.275	14.8079
-38.8064	483.228	14.8274
-38.8043	484.779	14.8469
-38.8025	479.754	14.8665
-38.8	483.954	14.886
-38.8002	485.7836	14.9055
-38.7978	480.374	14.925
-38.7962	485.766	14.94458
-38.7948	487.281	14.9641
-38.7931	481.126	14.9836
-38.7909	482.033	15.0032
-38.7893	488.729	15.0227
-38.7896	480.343	15.0422
-38.7858	483.291	15.0618
-38.7866	484.757	15.0813
-38.7833	483.923	15.10083
-38.7831	484.08	15.1204
-38.7806	489.303	15.1399
-38.779	480.364	15.1594
-38.7774	481.6864	15.179
-38.7763	485.695	15.1985
-38.7739	487.942	15.218
-38.772	480.427	15.2375
-38.7716	486.236	15.25708
-38.7697	484.1622	15.2766
-38.76738	482.625	15.2961
-38.7662	483.442	15.3157
-38.7637	486.863	15.3352
-38.7626	482.586	15.3547
-38.7605	482.792	15.3743
-38.7593	485.764	15.3938
-38.7573	481.852	15.41333
-38.7565	480.867	15.4329
-38.7538	486.855	15.4524
-38.7528	487.242	15.4719
-38.7515	480.739	15.4915
-38.7491	485.878	15.511
-38.7475	485.525	15.5305
-38.7461	481.504	15.55
-38.7438	485.117	15.56958
-38.7432	487.043	15.5891
-38.74094	477.759	15.6086
-38.7405	484.887	15.6282
-38.7376	486.88	15.6477
-38.7366	483.169	15.6672
-38.7351	483.282	15.6868
-38.7332	490.2	15.7063
-38.7313	480.689	15.72583
-38.7303	483.857	15.7454
-38.728	487.017	15.7649
-38.7259	484.508	15.7844
-38.72525	482.198	15.804
-38.7244	487.953	15.8235
-38.72086	482.41	15.843
-38.7201	481.468	15.8625
-38.7184	484.91	15.88208
-38.717	486.216	15.9016
-38.71582	483.035	15.9211
-38.7135	483.723	15.9407
-38.712	485.358	15.9602
-38.7092	483.736	15.9797
-38.7081	482.547	15.9993
-38.7061	486.769	16.0188
-38.7055	482.509	16.03833
-38.70285	479.589	16.0579
-38.7018	487.4989	16.0774
-38.7011	484.275	16.0969
-38.6998	479.942	16.1165
-38.69717	485.303	16.136
-38.6959	487.68	16.1555
-38.6939	478.341	16.175
-38.6925	487.475	16.19458
-38.6919	484.35	16.2141
-38.6888	481.623	16.2336
-38.6873	484.96	16.2532
-38.6852	489.278	16.2727
-38.6851	478.244	16.2922
-38.6825	484.025	16.3118
-38.6808	487.976	16.3313
-38.679	484.575	16.35083
-38.6767	482.212	16.3704
-38.6762	488.301	16.3899
-38.6734	482.704	16.4094
-38.6738	482.972	16.429
-38.672	484.888	16.4485
-38.6685	484.841	16.468
-38.66758	482.542	16.4875
-38.6661	485.765	16.50708
-38.6641	484.617	16.5266
-38.6617	479.971	16.5461
-38.6609	483.247	16.5657
-38.66	486.577	16.5852
-38.6581	483.571	16.6047
-38.65588	480.068	16.6243
-38.6542	485.172	16.6438
-38.6533	483.401	16.66333
-38.65213	482.227	16.6829
-38.6506	486.32	16.7024
-38.6481	483.125	16.7219
-38.6465	479.155	16.7415
-38.6454	487.269	16.761
-38.64296	484.446	16.7805
-38.6408	479.729	16.8
-38.6399	485.2	16.81958
-38.6399	489.313	16.8391
-38.6367	476.887	16.8586
-38.6348	486.603	16.8782
-38.633	485.965	16.8977
-38.6319	482.327	16.9172
-38.63031	483.1478	16.9368
-38.6288	489.808	16.9563
-38.6272	480.249	16.97583
-38.62627	481.962	16.9954
-38.624	488.148	17.0149
-38.6231	484.816	17.0344
-38.6202	482.097	17.054
-38.6193	486.209	17.0735
-38.6168	484	17.093
-38.6163	482.492	17.1125
-38.6152	484.904	17.13208
-38.6131	486.144	17.1516
-38.612	482.068	17.1711
-38.609	483.688	17.1907
-38.6067	487.969	17.2102
-38.605	481.43	17.2297
-38.6035	481.284	17.2493
-38.6031	485.748	17.2688
-38.601	484.43	17.28833
-38.6005	479.182	17.3079
-38.5983	486.2438	17.3274
-38.5954	484.05	17.3469
-38.5945	480.469	17.3665
-38.5919	485.399	17.386
-38.5915	486.067	17.4055
-38.58876	476.877	17.425
-38.5883	486.953	17.44458
-38.5857	486.1738	17.4641
-38.5842	480.692	17.4836
-38.5829	483.235	17.5032
-38.5794	489.077	17.5227
-38.5797	479.132	17.5422
-38.579	483.453	17.5618
-38.5767	485.2377	17.5813
-38.5746	481.419	17.60083
-38.573	482.973	17.6204
-38.5723	487.023	17.6399
-38.5713	479.674	17.6594
-38.5691	480.199	17.679
-38.5676	484.872	17.6985
-38.5649	483.916	17.718
-38.5645	481.34	17.7375
-38.5613	483.816	17.75708
-38.56081	484.02	17.7766
-38.5582	480.124	17.7961
-38.5579	482.285	17.8157
-38.5552	484.704	17.8352
-38.5531	482.692	17.8547
-38.5519	481.983	17.8743
-38.5518	487.473	17.8938
-38.5495	481.343	17.91333
-38.5475	480.126	17.9329
-38.5455	487.257	17.9524
-38.5448	485.274	17.9719
-38.543	478.201	17.9915
-38.5412	486.486	18.011
-38.5392	482.958	18.0305
-38.53756	481.457	18.05
-38.5366	484.354	18.06958
-38.5344	487.677	18.0891
-38.5325	476.984	18.1086
-38.5317	484.391	18.1282
-38.5296	484.987	18.1477
-38.52869	480.215	18.1672
-38.5269	481.394	18.1868
-38.5252	488.822	18.2063
-38.5234	480.6442	18.22583
-38.5225	481.395	18.2454
-38.5191	484.535	18.2649
-38.5187	483.528	18.2844
-38.5167	480.641	18.304
-38.5148	485.186	18.3235
-38.513	482.908	18.343
-38.51186	481.287	18.3625
-38.5092	486.056	18.38208
-38.508	485.249	18.4016
-38.5058	482.715	18.4211
-38.5056	479.522	18.4407
-38.5038	487.117	18.4602
-38.5016	479.647	18.4797
-38.499	482.73	18.4993
-38.50008	484.94	18.5188
-38.497	482.674	18.53833
-38.4954	477.674	18.5579
-38.49369	487.677	18.5774
-38.49176	481.994	18.5969
-38.4909	478.5824	18.6165
-38.4885	485.871	18.636
-38.4869	486.549	18.6555
-38.4856	476.404	18.675
-38.4833	485.485	18.69458
-38.4821	484.7644	18.7141
-38.4801	480.171	18.7336
-38.4776	483.619	18.7532
-38.4774	486.6474	18.7727
-38.4766	477.148	18.7922
-38.4745	482.532	18.8118
-38.4732	486.395	18.8313
-38.471	481.1774	18.85083
-38.4693	480.5943	18.8704
-38.4676	485.054	18.8899
-38.4659	482.316	18.9094
-38.4639	480.075	18.929
-38.4627	484.872	18.9485
-38.4606	480.408	18.968
-38.4585	480.7464	18.9875
-38.45908	482.285	19.00708
-38.4562	484.847	19.0266
-38.454	477.62	19.0461
-38.4531	481.213	19.0657
-38.4515	485.481	19.0852
-38.4501	481.55	19.1047
-38.4484	479.3389	19.1243
-38.44775	485.614	19.1438
-38.4455	479.87	19.16333
-38.4438	482.072	19.1829
-38.4423	485.119	19.2024
-38.44	482.827	19.2219
-38.4387	476.256	19.2415
-38.4373	487.147	19.261
-38.4359	482.7421	19.2805
-38.4333	478.613	19.3
-38.4318	484.155	19.31958
-38.4313	486.021	19.3391
-38.4279	476.902	19.3586
-38.4255	483.809	19.3782
-38.4259	485.0513	19.3977
-38.423	479.998	19.4172
-38.4225	482.243	19.4368
-38.4208	486.266	19.4563
-38.4192	479.779	19.47583
-38.4171	480.365	19.4954
-38.41526	485.037	19.5149
-38.4138	481.442	19.5344
-38.4124	480.512	19.554
-38.4109	482.898	19.5735
-38.4084	484.646	19.593
-38.4068	479.556	19.6125
-38.405	483.28	19.63208
-38.4041	483.535	19.6516
-38.4016	481.34	19.6711
-38.3999	481.864	19.6907
-38.3983	486.607	19.7102
-38.3969	478.092	19.7297
-38.3957	478.926	19.7493
-38.395	486.901	19.7688
-38.3928	482.116	19.78833
-38.3907	476.639	19.8079
-38.3894	486.5	19.8274
-38.3878	481.475	19.8469
-38.3859	479.0499	19.8665
-38.3838	484.839	19.886
-38.3826	485.186	19.9055
-38.3813	476.081	19.925
-38.3796	486.381	19.94458
-38.3787	484.729	19.9641
-38.3761	478.562	19.9836
-38.3748	482.404	20.0032
-38.3745	484.78	20.0129

Data Header:			0.254_hd_dimension_typeiv_4545_r0			Time:	40.0183	s	4/13/2019 8:11:47 PM
Data Acquisition:	Timed
Station Name:	ft40.cfg
Test File Name:	monotonic_0.2540_typeiv_hd_4545_dimension.tst
Displacement	Force	Running Time
mm	N	s
-38.37286	486.1655	20.0227
-38.3716	479.084	20.0422
-38.3699	482.829	20.0618
-38.36813	485.166	20.0813
-38.3679	480.682	20.10083
-38.36414	481.748	20.1204
-38.3639	485.266	20.1399
-38.3625	480.528	20.1594
-38.3604	478.36	20.179
-38.35733	485.869	20.1985
-38.3571	482.789	20.218
-38.35535	478.958	20.2375
-38.3536	479.924	20.25708
-38.3509	484.7695	20.2766
-38.35006	478.612	20.2961
-38.3485	483.3526	20.3157
-38.3468	483.141	20.3352
-38.3457	481.839	20.3547
-38.344	478.929	20.3743
-38.3415	488.386	20.3938
-38.3408	478.9791	20.41333
-38.3389	480.723	20.4329
-38.3371	485.2218	20.4524
-38.3356	483.982	20.4719
-38.33313	476.625	20.4915
-38.3323	485.411	20.511
-38.3315	483.867	20.5305
-38.3288	479.233	20.55
-38.32708	484.032	20.56958
-38.3266	484.387	20.5891
-38.3245	476.487	20.6086
-38.3222	483.497	20.6282
-38.321	485.86	20.6477
-38.3185	479.47	20.6672
-38.3183	481.714	20.6868
-38.3169	484.367	20.7063
-38.3146	479.616	20.72583
-38.3125	480.89	20.7454
-38.3126	483.481	20.7649
-38.3102	479.6622	20.7844
-38.3079	478.673	20.804
-38.3064	482.576	20.8235
-38.3048	483.326	20.843
-38.3039	476.028	20.8625
-38.3024	482.392	20.88208
-38.2999	483.942	20.9016
-38.2985	480.4935	20.9211
-38.2969	478.276	20.9407
-38.2952	485.789	20.9602
-38.2924	478.8	20.9797
-38.2914	479.747	20.9993
-38.2907	484.4924	21.0188
-38.2886	481.631	21.03833
-38.2875	477.56	21.0579
-38.285	487.548	21.0774
-38.2834	480.215	21.0969
-38.2826	477.762	21.1165
-38.2806	484.745	21.136
-38.2777	485.361	21.1555
-38.2774	474.613	21.175
-38.2758	483.222	21.19458
-38.2741	483.68	21.2141
-38.2722	478.568	21.2336
-38.2705	483.578	21.2532
-38.2689	484.271	21.2727
-38.2677	476.244	21.2922
-38.2663	479.9429	21.3118
-38.2642	486.046	21.3313
-38.2623	479.06	21.35083
-38.2607	479.778	21.3704
-38.2586	481.888	21.3899
-38.2581	482.058	21.4094
-38.256	478.62	21.429
-38.2542	485.149	21.4485
-38.252	481.978	21.468
-38.252	480.4697	21.4875
-38.2492	479.981	21.50708
-38.247	485.3338	21.5266
-38.2453	476.959	21.5461
-38.2444	481.555	21.5657
-38.2428	485.522	21.5852
-38.2418	481.107	21.6047
-38.2389	477.281	21.6243
-38.238	484.536	21.6438
-38.2377	479.415	21.66333
-38.2355	479.442	21.6829
-38.2336	485.603	21.7024
-38.2319	481.122	21.7219
-38.2303	474.723	21.7415
-38.2285	485.78	21.761
-38.2261	483.589	21.7805
-38.2248	476.429	21.8
-38.2233	482.314	21.81958
-38.2222	483.736	21.8391
-38.2203	477.126	21.8586
-38.2187	481.474	21.8782
-38.2172	483.478	21.8977
-38.21608	476.779	21.9172
-38.2144	481.048	21.9368
-38.2121	482.664	21.9563
-38.2098	478.746	21.97583
-38.20948	476.444	21.9954
-38.207	483.913	22.0149
-38.2044	481.03	22.0344
-38.204	477.876	22.054
-38.2014	481.075	22.0735
-38.2013	483.647	22.093
-38.1988	476.291	22.1125
-38.1975	482.46	22.13208
-38.1961	483.115	22.1516
-38.1945	479.597	22.1711
-38.193	479.525	22.1907
-38.19	486.248	22.2102
-38.1893	476.94	22.2297
-38.1879	478.427	22.2493
-38.1866	485.1387	22.2688
-38.1838	480.201	22.28833
-38.1829	474.461	22.3079
-38.1807	485.521	22.3274
-38.1799	479.413	22.3469
-38.1777	477.822	22.3665
-38.1777	483.201	22.386
-38.1745	480.363	22.4055
-38.1728	475.135	22.425
-38.1707	483.171	22.44458
-38.16988	483.858	22.4641
-38.1687	475.12	22.4836
-38.1674	479.947	22.5032
-38.1648	483.625	22.5227
-38.1626	478.957	22.5422
-38.1605	479.3508	22.5618
-38.1593	484.312	22.5813
-38.1579	478.828	22.60083
-38.1561	480.3	22.6204
-38.154	482.0715	22.6399
-38.1538	483.3273	22.6594
-38.1524	476.472	22.679
-38.15	482.235	22.6985
-38.1483	481.8465	22.718
-38.1474	479.241	22.7375
-38.1448	477.42	22.75708
-38.1433	483.701	22.7766
-38.1418	476.394	22.7961
-38.1416	480.816	22.8157
-38.1392	484.571	22.8352
-38.1362	478.771	22.8547
-38.1358	476.479	22.8743
-38.1343	486.098	22.8938
-38.1331	476.117	22.91333
-38.13063	477.254	22.9329
-38.1291	483.215	22.9524
-38.1287	482.143	22.9719
-38.1263	474.424	22.9915
-38.1241	482.057	23.011
-38.1222	479.629	23.0305
-38.1217	476.618	23.05
-38.1191	483.322	23.06958
-38.1185	480.869	23.0891
-38.1172	475.322	23.1086
-38.1154	480.625	23.1282
-38.113	483.91	23.1477
-38.1109	475.326	23.1672
-38.1096	479.656	23.1868
-38.1069	481.344	23.2063
-38.1065	480.391	23.22583
-38.1051	477.723	23.2454
-38.1027	483.669	23.2649
-38.1012	479.68	23.2844
-38.0991	478.488	23.304
-38.0991	478.997	23.3235
-38.0964	482.918	23.343
-38.0956	474.284	23.3625
-38.0938	480.222	23.38208
-38.0923	483.8609	23.4016
-38.0903	476.448	23.4211
-38.0879	475.533	23.4407
-38.0871	483.792	23.4602
-38.0857	476.48	23.4797
-38.083	478.784	23.4993
-38.0814	482.347	23.5188
-38.0798	478.363	23.53833
-38.0779	475.385	23.5579
-38.0764	484.879	23.5774
-38.07436	480.745	23.5969
-38.07341	474.386	23.6165
-38.0728	482.43	23.636
-38.0699	480.762	23.6555
-38.0685	475.378	23.675
-38.0671	479.243	23.69458
-38.0654	481.026	23.7141
-38.0646	475.564	23.7336
-38.06176	481.72	23.7532
-38.0618	481.914	23.7727
-38.0598	477.892	23.7922
-38.0575	477.818	23.8118
-38.0563	484.652	23.8313
-38.0542	479.274	23.85083
-38.0516	476.55	23.8704
-38.0512	480.6243	23.8899
-38.04974	481.061	23.9094
-38.0473	475.34	23.929
-38.0454	482.117	23.9485
-38.0442	480.305	23.968
-38.0434	477.08	23.9875
-38.042	478.59	24.00708
-38.0399	483.134	24.0266
-38.0379	473.784	24.0461
-38.0358	478.447	24.0657
-38.03537	483.162	24.0852
-38.0341	477.253	24.1047
-38.0315	475.204	24.1243
-38.0297	483.2132	24.1438
-38.0277	477.234	24.16333
-38.0262	475.948	24.1829
-38.0261	484.04	24.2024
-38.0233	477.397	24.2219
-38.0222	474.335	24.2415
-38.0199	482.158	24.261
-38.0182	482.099	24.2805
-38.017	472.91	24.3
-38.0155	481.663	24.31958
-38.01326	481.742	24.3391
-38.0132	476.276	24.3586
-38.0105	478.346	24.3782
-38.0087	482.767	24.3977
-38.0068	475.466	24.4172
-38.0059	480.894	24.4368
-38.00412	480.827	24.4563
-38.00296	479.134	24.47583
-38.0001	473.223	24.4954
-37.9991	482.72	24.5149
-37.9961	480.245	24.5344
-37.9958	475.882	24.554
-37.9931	477.626	24.5735
-37.9931	483.214	24.593
-37.9914	474.281	24.6125
-37.9893	481.599	24.63208
-37.988	482.175	24.6516
-37.9854	475.745	24.6711
-37.9852	476.9303	24.6907
-37.9818	482.974	24.7102
-37.9812	475.7381	24.7297
-37.9787	476.17	24.7493
-37.978	484.382	24.7688
-37.9759	478.663	24.78833
-37.97504	473.008	24.8079
-37.97266	481.4472	24.8274
-37.9723	479.534	24.8469
-37.9697	474.866	24.8665
-37.968	482.223	24.886
-37.9662	480.014	24.9055
-37.9643	474.097	24.925
-37.9631	480.827	24.94458
-37.9609	481.403	24.9641
-37.95908	475.239	24.9836
-37.9577	479.581	25.0032
-37.95702	480.423	25.0227
-37.9555	478.3056	25.0422
-37.9537	476.701	25.0618
-37.9516	481.764	25.0813
-37.9509	478.207	25.10083
-37.948	478.1972	25.1204
-37.9462	481.532	25.1399
-37.94619	480.235	25.1594
-37.9435	473.365	25.179
-37.9422	482.646	25.1985
-37.9406	480.92	25.218
-37.9394	475.909	25.2375
-37.9378	479.058	25.25708
-37.9338	480.955	25.2766
-37.9336	475.443	25.2961
-37.9312	478.568	25.3157
-37.9316	483.873	25.3352
-37.9286	475.49	25.3547
-37.9272	475.656	25.3743
-37.9267	482.964	25.3938
-37.9245	476.482	25.41333
-37.9224	475.331	25.4329
-37.9207	482.619	25.4524
-37.9194	478.462	25.4719
-37.9182	475.038	25.4915
-37.9166	480.764	25.511
-37.914	480.652	25.5305
-37.9128	475.169	25.55
-37.9111	482.328	25.56958
-37.9092	479.2128	25.5891
-37.9085	475.636	25.6086
-37.9061	477.481	25.6282
-37.9053	482.809	25.6477
-37.9029	477.769	25.6672
-37.90078	478.313	25.6868
-37.8999	481.048	25.7063
-37.8977	480.4	25.72583
-37.897	477.331	25.7454
-37.89468	483.237	25.7649
-37.8937	478.577	25.7844
-37.8913	477.801	25.804
-37.8887	479.3385	25.8235
-37.8889	481.703	25.843
-37.88599	472.94	25.8625
-37.8849	480.358	25.88208
-37.8839	483.855	25.9016
-37.8817	476.761	25.9211
-37.88026	476.4968	25.9407
-37.8791	482.578	25.9602
-37.8768	476.565	25.9797
-37.8751	476.936	25.9993
-37.8732	483.069	26.0188
-37.8732	476.623	26.03833
-37.8704	475.495	26.0579
-37.86858	483.877	26.0774
-37.86779	480.029	26.0969
-37.8657	474.22	26.1165
-37.8641	480.985	26.136
-37.8619	478.4942	26.1555
-37.8603	476.415	26.175
-37.8585	479.349	26.19458
-37.8579	480.235	26.2141
-37.8559	475.895	26.2336
-37.85405	480.579	26.2532
-37.8518	480.783	26.2727
-37.8496	477.07	26.2922
-37.8492	474.873	26.3118
-37.8466	483.523	26.3313
-37.84544	477.423	26.35083
-37.8446	475.753	26.3704
-37.8423	478.933	26.3899
-37.8413	480.632	26.4094
-37.8393	475.7142	26.429
-37.838	480.446	26.4485
-37.8359	481.138	26.468
-37.8354	473.99	26.4875
-37.833	478.658	26.50708
-37.83218	482.324	26.5266
-37.829	474.797	26.5461
-37.8281	477.277	26.5657
-37.8257	483.432	26.5852
-37.8252	475.774	26.6047
-37.823	475.302	26.6243
-37.8212	481.233	26.6438
-37.82	476.1915	26.66333
-37.81739	475.035	26.6829
-37.8165	482.914	26.7024
-37.8162	476.6185	26.7219
-37.8127	474.448	26.7415
-37.8118	480.084	26.761
-37.8109	480.288	26.7805
-37.8092	473.339	26.8
-37.8068	480.108	26.81958
-37.8058	479.054	26.8391
-37.80349	477.888	26.8586
-37.8024	476.495	26.8782
-37.8012	481.5372	26.8977
-37.7987	475.132	26.9172
-37.79697	479.749	26.9368
-37.7951	479.572	26.9563
-37.793	479.082	26.97583
-37.7922	473.961	26.9954
-37.7898	482.812	27.0149
-37.7891	478.259	27.0344
-37.7872	474.58	27.054
-37.7853	479.053	27.0735
-37.7838	480.154	27.093
-37.7819	475.323	27.1125
-37.7796	480.554	27.13208
-37.7798	481.737	27.1516
-37.77832	475.5191	27.1711
-37.7757	476.581	27.1907
-37.7744	483.397	27.2102
-37.7726	475.909	27.2297
-37.7715	474.872	27.2493
-37.7693	483.617	27.2688
-37.7678	478.0708	27.28833
-37.7665	475.461	27.3079
-37.7652	480.551	27.3274
-37.7632	479.061	27.3469
-37.76144	476.535	27.3665
-37.7597	482.662	27.386
-37.7587	478.0127	27.4055
-37.7574	476.587	27.425
-37.755	479.93	27.44458
-37.7524	483.082	27.4641
-37.7512	476.8	27.4836
-37.7502	479.5	27.5032
-37.74744	479.34	27.5227
-37.7469	477.192	27.5422
-37.74543	475.784	27.5618
-37.7442	482.501	27.5813
-37.7426	477.3558	27.60083
-37.73988	477.27	27.6204
-37.73888	481.009	27.6399
-37.7367	479.725	27.6594
-37.7351	472.955	27.679
-37.7334	481.791	27.6985
-37.7323	482.6553	27.718
-37.7298	476.409	27.7375
-37.7282	478.136	27.75708
-37.7266	481.3988	27.7766
-37.72554	475.2576	27.7961
-37.7238	478.42	27.8157
-37.7222	483.118	27.8352
-37.7206	474.986	27.8547
-37.7187	476.374	27.8743
-37.7169	481.565	27.8938
-37.7151	477.442	27.91333
-37.7148	474.495	27.9329
-37.712	482.927	27.9524
-37.7123	478.468	27.9719
-37.7092	476.0925	27.9915
-37.7074	479.906	28.011
-37.7053	480.114	28.0305
-37.7035	475.713	28.05
-37.7021	482.183	28.06958
-37.7009	479.372	28.0891
-37.6998	475.987	28.1086
-37.697	476.735	28.1282
-37.6952	483.847	28.1477
-37.6949	475.8526	28.1672
-37.6933	478.901	28.1868
-37.6903	479.202	28.2063
-37.6894	479.835	28.22583
-37.6882	474.571	28.2454
-37.6866	480.651	28.2649
-37.6847	477.569	28.2844
-37.6834	475.669	28.304
-37.6817	479.803	28.3235
-37.6792	481.392	28.343
-37.6786	472.812	28.3625
-37.6767	477.316	28.38208
-37.6743	482.327	28.4016
-37.6738	475.939	28.4211
-37.6712	478.862	28.4407
-37.6695	480.565	28.4602
-37.6686	476.5419	28.4797
-37.6671	474.713	28.4993
-37.6653	484.93	28.5188
-37.6637	475.336	28.53833
-37.6616	477.084	28.5579
-37.6603	480.474	28.5774
-37.6585	478.458	28.5969
-37.6575	474.1	28.6165
-37.6554	482.715	28.636
-37.6542	476.515	28.6555
-37.65229	476.341	28.675
-37.6509	478.735	28.69458
-37.6486	482.098	28.7141
-37.6467	476.241	28.7336
-37.64529	480.358	28.7532
-37.644	479.466	28.7727
-37.6428	477.254	28.7922
-37.6407	475.04	28.8118
-37.6395	482.317	28.8313
-37.6371	478.477	28.85083
-37.6358	475.658	28.8704
-37.6337	479.249	28.8899
-37.6315	479.428	28.9094
-37.6309	475.493	28.929
-37.62952	480.008	28.9485
-37.6283	480.848	28.968
-37.6263	474.269	28.9875
-37.6256	477.904	29.00708
-37.6233	481.3222	29.0266
-37.6222	474.324	29.0461
-37.6198	476.773	29.0657
-37.6187	483.705	29.0852
-37.6154	473.918	29.1047
-37.6143	475.819	29.1243
-37.6125	479.503	29.1438
-37.6108	477.401	29.16333
-37.6109	474.972	29.1829
-37.60841	483.458	29.2024
-37.6079	475.828	29.2219
-37.6039	475.412	29.2415
-37.6028	478.737	29.261
-37.6021	481.3	29.2805
-37.6007	475.58	29.3
-37.5988	480.6228	29.31958
-37.5977	478.519	29.3391
-37.59407	478.077	29.3586
-37.5935	476.609	29.3782
-37.5927	481	29.3977
-37.5898	475.243	29.4172
-37.5883	478.7435	29.4368
-37.5874	479.8399	29.4563
-37.5854	477.799	29.47583
-37.5839	473.747	29.4954
-37.5831	481.113	29.5149
-37.5806	480.023	29.5344
-37.5785	476.177	29.554
-37.5771	476.948	29.5735
-37.5752	480.148	29.593
-37.5743	474.27	29.6125
-37.5724	478.67	29.63208
-37.5719	482.507	29.6516
-37.5691	472.738	29.6711
-37.5673	476.916	29.6907
-37.5653	481.719	29.7102
-37.5646	475.545	29.7297
-37.5624	474.28	29.7493
-37.5606	483.298	29.7688
-37.55891	474.555	29.78833
-37.5574	476.035	29.8079
-37.5557	479.514	29.8274
-37.5548	478.318	29.8469
-37.5521	473.6524	29.8665
-37.5498	483.32	29.886
-37.5505	477.74	29.9055
-37.5476	474.103	29.925
-37.5468	476.666	29.94458
-37.5447	480.514	29.9641
-37.543	474.776	29.9836
-37.5405	476.475	30.0032
-37.53949	478.61	30.0227
-37.5382	476.689	30.0422
-37.5368	474.972	30.0618
-37.5354	479.315	30.0813
-37.5344	476.048	30.10083
-37.53215	474.249	30.1204
-37.5312	478.74	30.1399
-37.5282	478.15	30.1594
-37.5272	472.833	30.179
-37.5255	478.846	30.1985
-37.5245	479.852	30.218
-37.5216	473.906	30.2375
-37.521	477.088	30.25708
-37.5182	479.7424	30.2766
-37.5186	474.472	30.2961
-37.51532	477.285	30.3157
-37.5133	481.208	30.3352
-37.51173	472.58	30.3547
-37.5103	477.108	30.3743
-37.5097	481.113	30.3938
-37.5079	476.802	30.41333
-37.5055	474.304	30.4329
-37.5049	481.558	30.4524
-37.5033	474.7543	30.4719
-37.5013	476.83	30.4915
-37.4996	478.878	30.511
-37.49815	478.706	30.5305
-37.4959	474.929	30.55
-37.4947	481.725	30.56958
-37.4922	477.4837	30.5891
-37.4906	474.591	30.6086
-37.4892	475.103	30.6282
-37.4876	479.741	30.6477
-37.4855	476.338	30.6672
-37.48365	476.8024	30.6868
-37.4825	477.309	30.7063
-37.48074	477.601	30.72583
-37.4792	474.049	30.7454
-37.4779	479.506	30.7649
-37.477	479.31	30.7844
-37.4745	474.421	30.804
[...]
-36.8023	470.092	38.8704
-36.8016	477.409	38.8899
-36.7997	471.08	38.9094
-36.7978	469.935	38.929
-36.7963	475.097	38.9485
-36.7942	477.8309	38.968
-36.7925	467.649	38.9875
-36.792	475.8	39.00708
-36.7907	476.521	39.0266
-36.7876	470.8392	39.0461
-36.7859	475.077	39.0657
-36.7847	477.529	39.0852
-36.7828	468.55	39.1047
-36.7813	473.524	39.1243
-36.7795	477.703	39.1438
-36.7785	472.579	39.16333
-36.7766	470.003	39.1829
-36.7741	477.144	39.2024
-36.7734	473.935	39.2219
-36.7715	471.73	39.2415
-36.7706	475.881	39.261
-36.7673	473.1741	39.2805
-36.7671	471.253	39.3
-36.76498	474.461	39.31958
-36.7636	475.162	39.3391
-36.7625	470.817	39.3586
-36.7594	473.277	39.3782
-36.7586	475.467	39.3977
-36.758	470.907	39.4172
-36.7564	469.2919	39.4368
-36.7542	477.633	39.4563
-36.7522	471.465	39.47583
-36.7508	469.467	39.4954
-36.749	475.063	39.5149
-36.7467	473.981	39.5344
-36.7449	467.815	39.554
-36.7431	476.752	39.5735
-36.74213	475.428	39.593
-36.7415	469.461	39.6125
-36.7386	473.843	39.63208
-36.7376	477.633	39.6516
-36.7362	467.437	39.6711
-36.7346	473.679	39.6907
-36.7321	474.552	39.7102
-36.7301	471.032	39.7297
-36.7289	472.504	39.7493
-36.7282	478.165	39.7688
-36.72583	468.807	39.78833
-36.7239	471.647	39.8079
-36.7224	475.2695	39.8274
-36.7213	472.958	39.8469
-36.7208	470.195	39.8665
-36.7171	475.635	39.886
-36.716	474.421	39.9055
-36.7153	470.755	39.925
-36.7127	474.136	39.94458
-36.7117	473.931	39.9641
-36.7101	470.615	39.9836
-36.7079	472.596	40.0032
-36.7056	475.5817	40.0129

Data Header:			0.254_hd_dimension_typeiv_4545_r0			Time:	47.0332	s	4/13/2019 8:11:54 PM
Data Acquisition:	Timed
Station Name:	ft40.cfg
Test File Name:	monotonic_0.2540_typeiv_hd_4545_dimension.tst
Displacement	Force	Running Time
mm	N	s
-36.7071	476.228	40.0227
-36.7055	474.619	40.0325
-36.7048	469.102	40.0422
-36.7038	470.412	40.052
-36.7033	471.497	40.0618
-36.7023	472.362	40.0715
-36.701	474.615	40.0813
-36.7005	475.476	40.0911
-36.7	472.895	40.10083
-36.6996	468.549	40.1106
-36.6975	467.027	40.1204
-36.6979	473.376	40.1301
-36.6962	477.097	40.1399
-36.6946	477.6282	40.1497
-36.6953	472.696	40.1594
-36.69495	470.1424	40.1692
-36.6938	469.891	40.179
-36.6928	470.371	40.1887
-36.6918	476.032	40.1985
-36.6908	477.244	40.2083
-36.691	474.5863	40.218
-36.6886	471.703	40.2278
-36.6897	466.063	40.2375
-36.6878	468.571	40.2473
-36.6878	477.149	40.25708
-36.6863	476.813	40.2668
-36.68549	475.193	40.2766
-36.6844	470.733	40.2864
-36.6841	470.5177	40.2961
-36.6833	471.058	40.3059
-36.682	473.873	40.3157
-36.6807	476.409	40.3254
-36.6801	477.919	40.3352
-36.67971	472.814	40.345
-36.6786	468.918	40.3547
-36.6771	467.952	40.3645
-36.6763	472.374	40.3743
-36.6766	476.259	40.384
-36.6761	472.5506	40.3938
-36.6744	474.131	40.4036
-36.6741	470.922	40.41333
-36.6737	470.391	40.4231
-36.6726	471.88	40.4329
-36.6715	470.777	40.4426
-36.6707	475.509	40.4524
-36.6697	475.307	40.4622
-36.6691	469	40.4719
-36.6681	470.482	40.4817
-36.6665	468.873	40.4915
-36.6669	473.756	40.5012
-36.6645	475.006	40.511
-36.6645	471.421	40.5208
-36.6642	473.9183	40.5305
-36.6637	472.383	40.5403
-36.66346	469.391	40.55
-36.661	469.224	40.5598
-36.6605	471.928	40.56958
-36.6605	475.758	40.5793
-36.65871	474.946	40.5891
-36.6586	473.401	40.5989
-36.6578	469.168	40.6086
-36.6565	469.769	40.6184
-36.6566	472.844	40.6282
-36.6558	474.321	40.6379
-36.65464	474.142	40.6477
-36.6539	475.553	40.6575
-36.6528	472.248	40.6672
-36.6514	468.404	40.677
-36.6512	469.459	40.6868
-36.6495	472.769	40.6965
-36.64938	477.251	40.7063
-36.6492	475.676	40.7161
-36.6479	470.022	40.72583
-36.6472	469.596	40.7356
-36.6462	469.374	40.7454
-36.6456	471.135	40.7551
-36.6454	475.177	40.7649
-36.644	476.362	40.7747
-36.6433	474.107	40.7844
-36.6417	469.203	40.7942
-36.6425	465.75	40.804
-36.6405	470.051	40.8137
-36.6392	477.549	40.8235
-36.6382	477.426	40.8333
-36.63792	473.695	40.843
-36.6374	470.748	40.8528
-36.6355	470.5723	40.8625
-36.6354	469.489	40.8723
-36.6352	472.901	40.88208
-36.6328	474.099	40.8918
-36.6325	476.227	40.9016
-36.6315	473.065	40.9114
-36.6312	465.646	40.9211
-36.6306	468.5899	40.9309
-36.6305	473.989	40.9407
-36.6284	476.459	40.9504
-36.6282	475.049	40.9602
-36.6271	470.81	40.97
-36.6266	469.595	40.9797
-36.6261	470.278	40.9895
-36.62495	468.762	40.9993
-36.6248	472.392	41.009
-36.6239	475.848	41.0188
-36.6214	475.08	41.0286
-36.6225	469.859	41.03833
-36.6207	468.141	41.0481
-36.6199	470.997	41.0579
-36.619	473.932	41.0676
-36.6183	473.768	41.0774
-36.6176	473.188	41.0872
-36.61684	469.863	41.0969
-36.6167	470.051	41.1067
-36.6157	469.812	41.1165
-36.6144	468.106	41.1262
-36.6136	473.8334	41.136
-36.6131	476.882	41.1458
-36.61298	472.534	41.1555
-36.6109	470.046	41.1653
-36.60994	465.837	41.175
-36.6101	469.696	41.1848
-36.60928	472.533	41.19458
-36.6082	470.784	41.2043
-36.6067	473.999	41.2141
-36.606	473.369	41.2239
-36.6056	470.965	41.2336
-36.6046	468.647	41.2434
-36.6032	469.146	41.2532
-36.603	474.423	41.2629
-36.6017	474.764	41.2727
-36.60178	473.055	41.2825
-36.6014	467.717	41.2922
-36.6002	466.703	41.302
-36.5987	469.663	41.3118
-36.5984	468.604	41.3215
-36.59774	473.892	41.3313
-36.5966	474.933	41.3411
-36.5953	468.852	41.35083
-36.5952	467.095	41.3606
-36.5941	465.088	41.3704
-36.5929	469.189	41.3801
-36.5927	475.2504	41.3899
-36.5914	473.643	41.3997
-36.5916	469.2626	41.4094
-36.59	466.5238	41.4192
-36.5888	465.784	41.429
-36.5884	468.15	41.4387
-36.5874	473.566	41.4485
-36.5869	475.916	41.4583
-36.5859	473.404	41.468
-36.5851	466.753	41.4778
-36.584	465.529	41.4875
-36.5833	466.713	41.4973
-36.5826	472.475	41.50708
-36.5814	476.629	41.5168
-36.5806	471.759	41.5266
-36.5813	468.5423	41.5364
-36.58028	468.046	41.5461
-36.5795	467.698	41.5559
-36.5778	470.695	41.5657
-36.5759	473.29	41.5754
-36.5763	473.167	41.5852
-36.5757	472.673	41.595
-36.5749	464.872	41.6047
-36.5736	466.147	41.6145
-36.5731	469.981	41.6243
-36.5727	471.169	41.634
-36.5712	473.674	41.6438
-36.5709	469.96	41.6536
-36.5687	468.841	41.66333
-36.5692	468.309	41.6731
-36.5682	467.408	41.6829
-36.5684	470.893	41.6926
-36.5669	473.025	41.7024
-36.5655	474.501	41.7122
-36.5648	468.191	41.7219
-36.5633	466.951	41.7317
-36.5629	468.2442	41.7415
-36.5621	470.5405	41.7512
-36.5604	473.102	41.761
-36.5607	471.292	41.7708
-36.5604	470.063	41.7805
-36.5599	470.828	41.7903
-36.5593	468.13	41.8
-36.5577	466.476	41.8098
-36.55777	470.427	41.81958
-36.55587	472.9429	41.8293
-36.5557	473.913	41.8391
-36.5539	470.984	41.8489
-36.5536	465.358	41.8586
-36.5517	468.64	41.8684
-36.5523	468.067	41.8782
-36.5505	469.455	41.8879
-36.5504	473.387	41.8977
-36.5489	471.257	41.9075
-36.5488	470.462	41.9172
-36.5478	464.278	41.927
-36.5467	464.587	41.9368
-36.5461	470.836	41.9465
-36.544	472.854	41.9563
-36.545	472.098	41.9661
-36.5426	467.672	41.97583
-36.54311	464.022	41.9856
-36.5429	467.39	41.9954
-36.54174	467.475	42.0051
-36.5405	473.206	42.0149
-36.5398	473.422	42.0247
-36.5389	470.438	42.0344
-36.5375	466.665	42.0442
-36.5367	462.03	42.054
-36.5375	466.876	42.0637
-36.5358	471.76	42.0735
-36.5341	473.135	42.0833
-36.53384	469.821	42.093
-36.5333	465.711	42.1028
-36.53244	464.744	42.1125
-36.5318	466.86	42.1223
-36.5303	469.6438	42.13208
-36.5289	473.085	42.1418
-36.5292	470.825	42.1516
-36.5279	466.948	42.1614
-36.5272	463.478	42.1711
-36.5259	463.437	42.1809
-36.5265	469.034	42.1907
-36.5242	473.348	42.2004
-36.5233	470.56	42.2102
-36.5237	467.185	42.22
-36.5235	465.083	42.2297
-36.5212	466.384	42.2395
-36.5208	467.884	42.2493
-36.5195	469.553	42.259
-36.51936	472.699	42.2688
-36.519	471.174	42.2786
-36.5175	466.344	42.28833
-36.5171	466.208	42.2981
-36.5161	466.253	42.3079
-36.516	470.965	42.3176
-36.5136	471.299	42.3274
-36.5129	469.483	42.3372
-36.513	467.1611	42.3469
-36.5108	467.282	42.3567
-36.5114	465.961	42.3665
-36.5113	465.56	42.3762
-36.5089	467.5459	42.386
-36.5089	472.201	42.3958
-36.50787	469.981	42.4055
-36.5069	465.259	42.4153
-36.5061	465.476	42.425
-36.50613	467.5174	42.4348
-36.5049	469.022	42.44458
-36.5035	469.976	42.4543
-36.5039	469.952	42.4641
-36.503	469.5415	42.4739
-36.5018	464.7171	42.4836
-36.5011	463.192	42.4934
-36.5	466.344	42.5032
-36.4983	469.3252	42.5129
-36.4988	472.136	42.5227
-36.4976	468.251	42.5325
-36.4968	461.967	42.5422
-36.4956	464.392	42.552
-36.495	466.34	42.5618
-36.4953	467.838	42.5715
-36.4937	471.5163	42.5813
-36.4913	469.07	42.5911
-36.4904	468.669	42.60083
-36.4898	463.203	42.6106
-36.4894	462.107	42.6204
-36.4898	465.295	42.6301
-36.48822	471.496	42.6399
-36.4871	473.294	42.6497
-36.4863	465.301	42.6594
-36.4855	461.768	42.6692
-36.4854	465.426	42.679
-36.4846	463.6243	42.6887
-36.4828	468.9332	42.6985
-36.4832	469.458	42.7083
-36.48204	468.801	42.718
-36.4815	464.878	42.7278
-36.4818	459.805	42.7375
-36.479	463.489	42.7473
-36.4777	468.873	42.75708
-36.4772	470.484	42.7668
-36.4763	467.737	42.7766
-36.4755	461.514	42.7864
-36.4751	464.155	42.7961
-36.4757	462.23	42.8059
-36.4739	465.52	42.8157
-36.4726	468.196	42.8254
-36.4715	469.008	42.8352
-36.4708	466.0621	42.845
-36.4705	460.774	42.8547
-36.4699	460.185	42.8645
-36.4684	465.255	42.8743
-36.4672	468.181	42.884
-36.4675	466.766	42.8938
-36.467	467.002	42.9036
-36.4659	461.567	42.91333
-36.465	462.691	42.9231
-36.4638	461.552	42.9329
-36.4633	463.3674	42.9426
-36.4628	465.204	42.9524
-36.4615	467.389	42.9622
-36.4606	462.632	42.9719
-36.4597	462.146	42.9817
-36.4595	460.184	42.9915
-36.4585	463.977	43.0012
-36.4574	466.565	43.011
-36.4567	464.1236	43.0208
-36.4565	465.177	43.0305
-36.4546	463.514	43.0403
-36.4543	462.641	43.05
-36.4533	460.855	43.0598
-36.4528	461.292	43.06958
-36.4515	466.455	43.0793
-36.4512	466.3786	43.0891
-36.4502	463.2413	43.0989
-36.4492	459.21	43.1086
-36.4483	458.577	43.1184
-36.4475	462.2	43.1282
-36.4468	461.912	43.1379
-36.4456	464.57	43.1477
-36.44516	463.366	43.1575
-36.4449	460.121	43.1672
-36.4437	456.573	43.177
-36.443	458.701	43.1868
-36.4419	461.97	43.1965
-36.4404	467.122	43.2063
-36.4396	463.23	43.2161
-36.4391	457.065	43.22583
-36.4394	457.482	43.2356
-36.4378	456.241	43.2454
-36.4364	458.838	43.2551
-36.4359	462.711	43.2649
-36.4358	462.459	43.2747
-36.4344	458.645	43.2844
-36.43314	452.4162	43.2942
-36.4334	451.333	43.304
-36.4329	452.973	43.3137
-36.4302	455.804	43.3235
-36.4308	457.602	43.3333
-36.4296	450.556	43.343
-36.4287	444.485	43.3528
-36.4241	30.6627	43.3625
-36.424	-23.053	43.3723
-36.4231	-43.6322	43.38208
-36.4233	-51.1971	43.3918
-36.4233	-35.29	43.4016
-36.4221	-35.7927	43.4114
-36.4214	-46.1561	43.4211
-36.4208	-41.2027	43.4309
-36.4206	-39.3111	43.4407
-36.4206	-37.0644	43.4504
-36.4197	-38.0826	43.4602
-36.4195	-42.6604	43.47
-36.4176	-43.3882	43.4797
-36.417	-42.7278	43.4895
-36.416	-41.877	43.4993
-36.4156	-38.6036	43.509
-36.4152	-38.3807	43.5188
-36.41375	-37.89053	43.5286
-36.4137	-43.4945	43.53833
-36.4126	-45.0901	43.5481
-36.4106	-43.3437	43.5579
-36.4099	-39.0074	43.5676
-36.4094	-37.7808	43.5774
-36.4088	-40.0228	43.5872
-36.4082	-43.6801	43.5969
-36.40839	-40.7674	43.6067
-36.4062	-42.4795	43.6165
-36.4057	-44.0116	43.6262
-36.4049	-40.2864	43.636
-36.4046	-37.9541	43.6458
-36.40284	-39.1771	43.6555
-36.40136	-42.1857	43.6653
-36.4015	-45.2455	43.675
-36.4008	-42.322	43.6848
-36.4005	-40.9816	43.69458
-36.3978	-40.882	43.7043
-36.39782	-38.557	43.7141
-36.3972	-41.2336	43.7239
-36.3963	-41.6385	43.7336
-36.3963	-45.384	43.7434
-36.3946	-44.0594	43.7532
-36.3947	-38.3191	43.7629
-36.3937	-37.088	43.7727
-36.3932	-38.5139	43.7825
-36.3929	-44.5877	43.7922
-36.3914	-44.6495	43.802
-36.3898	-42.6864	43.8118
-36.3894	-41.4985	43.8215
-36.3887	-36.6039	43.8313
-36.3871	-39.85136	43.8411
-36.3872	-39.9729	43.85083
-36.3862	-43.9185	43.8606
-36.3851	-45.8273	43.8704
-36.3844	-42.9777	43.8801
-36.384	-36.2621	43.8899
-36.3839	-37.3101	43.8997
-36.3826	-42.0015	43.9094
-36.38097	-44.8013	43.9192
-36.381	-43.7766	43.929
-36.3801	-42.357	43.9387
-36.3789	-38.6395	43.9485
-36.3783	-38.5105	43.9583
-36.3778	-37.982	43.968
-36.3761	-43.5077	43.9778
-36.37571	-45.6925	43.9875
-36.374	-44.0967	43.9973
-36.3736	-38.436	44.00708
-36.373	-36.9815	44.0168
-36.3717	-40.0445	44.0266
-36.373	-43.46508	44.0364
-36.3717	-43.5503	44.0461
-36.3698	-44.1567	44.0559
-36.3695	-38.2137	44.0657
-36.3692	-40.2036	44.0754
-36.3669	-37.4595	44.0852
-36.3673	-41.008	44.095
-36.3654	-46.3901	44.1047
-36.3651	-44.2434	44.1145
-36.3645	-42.53017	44.1243
-36.3629	-37.85392	44.134
-36.3625	-38.4804	44.1438
-36.3611	-43.0999	44.1536
-36.3601	-42.5136	44.16333
-36.36002	-43.561	44.1731
-36.3593	-44.0289	44.1829
-36.3591	-43.2288	44.1926
-36.3578	-41.098	44.2024
-36.3576	-37.8291	44.2122
-36.3563	-41.3545	44.2219
-36.3555	-43.6254	44.2317
-36.3536	-44.6636	44.2415
-36.3541	-42.7287	44.2512
-36.3536	-38.911	44.261
-36.3523	-38.9535	44.2708
-36.3504	-41.56823	44.2805
-36.3507	-39.29443	44.2903
-36.34903	-41.8465	44.3
-36.3487	-44.6989	44.3098
-36.3483	-41.71011	44.31958
-36.3471	-39.2843	44.3293
-36.3468	-37.1736	44.3391
-36.3456	-41.0674	44.3489
-36.345	-44.2332	44.3586
-36.3437	-45.74725	44.3684
-36.3424	-41.9418	44.3782
-36.3425	-40.3553	44.3879
-36.3416	-37.4875	44.3977
-36.34063	-39.9702	44.4075
-36.3406	-41.1353	44.4172
-36.3392	-46.3862	44.427
-36.3394	-46.0847	44.4368
-36.3376	-40.2563	44.4465
-36.3368	-36.0672	44.4563
-36.3363	-38.6187	44.4661
-36.3348	-43.591	44.47583
-36.3354	-44.7329	44.4856
-36.33358	-43.3575	44.4954
-36.3322	-43.2909	44.5051
-36.3317	-37.3521	44.5149
-36.3316	-38.8008	44.5247
-36.3303	-39.6085	44.5344
-36.3286	-43.8031	44.5442
-36.3288	-47.28997	44.554
-36.3281	-41.7295	44.5637
-36.328	-36.7236	44.5735
-36.3263	-35.2445	44.5833
-36.3257	-38.618	44.593
-36.3246	-45.3881	44.6028
-36.3233	-44.4399	44.6125
-36.3227	-41.3412	44.6223
-36.3224	-40.2562	44.63208
-36.3207	-39.0386	44.6418
-36.3202	-37.562	44.6516
-36.3191	-39.7888	44.6614
-36.3182	-45.9807	44.6711
-36.3187	-44.5854	44.6809
-36.3172	-39.858	44.6907
-36.3168	-37.3241	44.7004
-36.3154	-39.3007	44.7102
-36.3155	-42.5617	44.72
-36.3133	-45.5999	44.7297
-36.3135	-43.9409	44.7395
-36.313	-41.1744	44.7493
-36.3119	-41.503	44.759
-36.31073	-36.0641	44.7688
-36.3098	-39.1631	44.7786
-36.3086	-42.8485	44.78833
-36.3076	-43.412	44.7981
-36.308	-43.6687	44.8079
-36.307	-39.6109	44.8176
-36.3054	-39.0687	44.8274
-36.3044	-40.469	44.8372
-36.303	-40.9974	44.8469
-36.3041	-44.1455	44.8567
-36.3018	-42.65118	44.8665
-36.302	-41.9036	44.8762
-36.3008	-42.18161	44.886
-36.2999	-36.6496	44.8958
-36.2997	-39.545	44.9055
-36.299	-41.7711	44.9153
-36.29792	-44.7313	44.925
-36.2964	-42.3184	44.9348
-36.2954	-38.8329	44.94458
-36.2952	-41.2531	44.9543
-36.2942	-38.9206	44.9641
-36.2937	-40.5446	44.9739
-36.2945	-42.8412	44.9836
-36.292	-44.6025	44.9934
-36.2903	-44.2812	45.0032
-36.29	-39.7048	45.0129
-36.2897	-35.7079	45.0227
-36.289	-41.2097	45.0325
-36.2878	-43.5007	45.0422
-36.2867	-44.739	45.052
-36.28709	-43.0604	45.0618
-36.2854	-39.9452	45.0715
-36.2841	-38.30806	45.0813
-36.2841	-40.5359	45.0911
-36.2828	-41.0195	45.10083
-36.282	-45.7503	45.1106
-36.282	-44.1639	45.1204
-36.2802	-42.726	45.1301
-36.2801	-36.1373	45.1399
-36.27924	-35.9615	45.1497
-36.2788	-42.8058	45.1594
-36.2763	-44.0767	45.1692
-36.2784	-43.9766	45.179
-36.276	-42.2699	45.1887
-36.275	-38.4834	45.1985
-36.2741	-39.1311	45.2083
-36.2726	-38.7622	45.218
-36.2725	-42.9252	45.2278
-36.2713	-48.4553	45.2375
-36.2702	-42.9744	45.2473
-36.2703	-39.0014	45.25708
-36.27	-36.1106	45.2668
-36.2684	-38.6571	45.2766
-36.2675	-43.8906	45.2864
-36.2676	-43.567	45.2961
-36.26524	-43.1726	45.3059
-36.2644	-41.8921	45.3157
-36.2637	-37.9626	45.3254
-36.26347	-38.4213	45.3352
-36.2627	-38.7361	45.345
-36.2616	-45.9623	45.3547
-36.2612	-45.14526	45.3645
-36.2593	-42.4041	45.3743
-36.2593	-40.0357	45.384
-36.25819	-38.5105	45.3938
-36.25853	-39.9214	45.4036
-36.25769	-44.0407	45.41333
-36.2555	-42.0351	45.4231
-36.25526	-42.0608	45.4329
-36.2542	-44.1558	45.4426
-36.2536	-39.4432	45.4524
-36.2523	-38.1828	45.4622
-36.2516	-40.1848	45.4719
-36.2503	-43.0353	45.4817
-36.2497	-44.8425	45.4915
-36.2499	-40.0966	45.5012
-36.2489	-38.6474	45.511
-36.248	-40.1311	45.5208
-36.24728	-40.2681	45.5305
-36.2467	-43.0558	45.5403
-36.2452	-43.8662	45.55
-36.2446	-44.4665	45.5598
-36.2446	-41.011	45.56958
-36.2436	-36.5392	45.5793
-36.2427	-38.3144	45.5891
-36.2414	-39.6257	45.5989
-36.24102	-45.0135	45.6086
-36.2394	-44.4758	45.6184
-36.2394	-39.2404	45.6282
-36.2385	-39.3887	45.6379
-36.2383	-37.4067	45.6477
-36.2377	-38.4313	45.6575
-36.2366	-41.0349	45.6672
-36.2355	-43.222	45.677
-36.2347	-45.4289	45.6868
-36.2341	-39.454	45.6965
-36.2324	-35.9342	45.7063
-36.2319	-39.5123	45.7161
-36.2312	-41.9764	45.72583
-36.2314	-46.1709	45.7356
-36.2293	-43.7556	45.7454
-36.22842	-40.7242	45.7551
-36.2282	-37.6843	45.7649
-36.2267	-36.6444	45.7747
-36.2254	-40.3204	45.7844
-36.2257	-43.391	45.7942
-36.2251	-46.9615	45.804
-36.2245	-42.837	45.8137
-36.2225	-38.46167	45.8235
-36.2212	-35.5055	45.8333
-36.2222	-40.6143	45.843
-36.2196	-42.96225	45.8528
-36.2218	-44.6861	45.8625
-36.2185	-42.8005	45.8723
-36.2179	-38.0276	45.88208
-36.2171	-39.71994	45.8918
-36.21616	-38.0988	45.9016
-36.2155	-39.5141	45.9114
-36.21582	-45.6914	45.9211
-36.2137	-43.50655	45.9309
-36.21286	-42.3516	45.9407
-36.2125	-36.3931	45.9504
-36.2105	-38.8211	45.9602
-36.2102	-43.3416	45.97
-36.2109	-43.3746	45.9797
-36.2084	-43.0559	45.9895
-36.2088	-38.5521	45.9993
-36.2065	-40.068	46.009
-36.2063	-39.1297	46.0188
-36.2055	-38.134	46.0286
-36.2046	-43.5013	46.03833
-36.2029	-45.2389	46.0481
-36.2029	-42.9348	46.0579
-36.2027	-40.9953	46.0676
-36.202	-35.9435	46.0774
-36.1994	-39.0639	46.0872
-36.2002	-41.4281	46.0969
-36.1987	-40.1764	46.1067
-36.1983	-44.352	46.1165
-36.1964	-42.5241	46.1262
-36.196	-39.7509	46.136
-36.1958	-38.5334	46.1458
-36.1954	-37.49052	46.1555
-36.1947	-41.6749	46.1653
-36.1936	-45.9599	46.175
-36.19342	-41.3301	46.1848
-36.1921	-41.3759	46.19458
-36.1903	-39.8386	46.2043
-36.1899	-40.6103	46.2141
-36.1896	-40.6544	46.2239
-36.1889	-41.975	46.2336
-36.1883	-45.2668	46.2434
-36.1872	-44.1173	46.2532
-36.1868	-39.5965	46.2629
-36.1846	-37.1362	46.2727
-36.18512	-37.5017	46.2825
-36.1836	-44.02578	46.2922
-36.1838	-44.9539	46.302
-36.1827	-42.3045	46.3118
-36.1812	-41.8765	46.3215
-36.1813	-36.0688	46.3313
-36.18	-38.2473	46.3411
-36.1786	-39.5866	46.35083
-36.17786	-44.026	46.3606
-36.176	-46.2715	46.3704
-36.1759	-41.6929	46.3801
-36.1763	-36.8903	46.3899
-36.1745	-37.19936	46.3997
-36.17308	-41.403	46.4094
-36.173	-46.5028	46.4192
-36.1724	-44.1514	46.429
-36.1708	-41.7325	46.4387
-36.1702	-39.28	46.4485
-36.16864	-37.2606	46.4583
-36.1698	-40.3805	46.468
-36.1675	-43.4198	46.4778
-36.1681	-46.6956	46.4875
-36.1657	-45.256	46.4973
-36.1649	-39.116	46.50708
-36.1648	-36.14806	46.5168
-36.1637	-39.6378	46.5266
-36.1629	-42.6389	46.5364
-36.16254	-46.3984	46.5461
-36.1617	-43.9574	46.5559
-36.1623	-40.491	46.5657
-36.1596	-41.1029	46.5754
-36.1591	-37.3916	46.5852
-36.1581	-40.2504	46.595
-36.15712	-45.7515	46.6047
-36.1568	-45.2525	46.6145
-36.156	-43.2025	46.6243
-36.1563	-38.0369	46.634
-36.1548	-38.72641	46.6438
-36.1535	-41.7562	46.6536
-36.1521	-42.983	46.66333
-36.1518	-43.5568	46.6731
-36.1509	-41.6996	46.6829
-36.1511	-42.385	46.6926
-36.1494	-40.06097	46.7024
-36.1483	-36.3498	46.7122
-36.1482	-41.4882	46.7219
-36.147	-42.6037	46.7317
-36.1459	-44.6368	46.7415
-36.1447	-42.6319	46.7512
-36.1453	-38.7392	46.761
-36.1437	-41.3663	46.7708
-36.1434	-40.6236	46.7805
-36.1432	-41.6337	46.7903
-36.14098	-44.1182	46.8
-36.141	-42.3495	46.8098
-36.1406	-41.918	46.81958
-36.1399	-38.5354	46.8293
-36.139	-36.5523	46.8391
-36.138	-41.0229	46.8489
-36.1371	-45.0438	46.8586
-36.1358	-44.41555	46.8684
-36.1359	-41.0231	46.8782
-36.1337	-38.7732	46.8879
-36.1334	-39.6658	46.8977
-36.1327	-39.8522	46.9075
-36.13131	-41.3692	46.9172
-36.1311	-46.2698	46.927
-36.1301	-45.5733	46.9368
-36.1289	-40.2267	46.9465
-36.1287	-35.92374	46.9563
-36.1278	-37.1029	46.9661
-36.12672	-44.7173	46.97583
-36.1261	-45.5115	46.9856
-36.1257	-43.26207	46.9954
-36.12394	-41.4651	47.0051
-36.1237	-35.7099	47.0149
-36.1231	-39.2198	47.0247