File: data/processed_data_files/tensile/0.254_hd_dimension_typeiv_4545_r(5).dat
MTS793|BTW|ENU|1|2|.|/|:|1|0|0|A

Data Header:			0.254_hd_dimension_typeiv_4545_r0			Time:	20.0168	s	4/13/2019 8:23:06 PM
Data Acquisition:	Timed
Station Name:	ft40.cfg
Test File Name:	monotonic_0.2540_typeiv_hd_4545_dimension.tst
Displacement	Force	Running Time
mm	N	s
-40.0342	-162.094	0.0222168
-40.03434	-162.886	0.041748
-40.0347	-166.346	0.0612793
-40.0337	-164.395	0.0808105
-40.0334	-160.1624	0.1003418
-40.0334	-166.129	0.119873
-40.0291	-163.619	0.1394043
-40.0286	-161.31	0.158936
-40.0258	-158.972	0.1784668
-40.0246	-161.396	0.197998
-40.0232	-156.097	0.2175293
-40.02187	-157.3756	0.237061
-40.02	-158.721	0.2565918
-40.0186	-156.855	0.276123
-40.0164	-151.571	0.2956543
-40.0149	-156.766	0.315186
-40.0125	-155.456	0.3347168
-40.0118	-150.734	0.354248
-40.0104	-151.887	0.3737793
-40.0077	-153.64	0.393311
-40.0065	-148.435	0.4128418
-40.0053	-147.016	0.432373
-40.0026	-150.24	0.4519043
-40.0016	-145.923	0.471436
-40.0005	-146.406	0.4909668
-39.99781	-150.0276	0.510498
-39.9968	-144.108	0.5300293
-39.9954	-138.184	0.549561
-39.9939	-146.492	0.5690918
-39.9923	-141.36	0.588623
-39.9899	-139.875	0.6081543
-39.9891	-140.417	0.627686
-39.9882	-139.807	0.6472168
-39.9851	-133.631	0.666748
-39.9853	-140.618	0.6862793
-39.9805	-136.524	0.705811
-39.9813	-132.397	0.7253418
-39.9795	-132.995	0.744873
-39.9789	-135.48	0.7644043
-39.9765	-128.437	0.783936
-39.9746	-131.066	0.8034668
-39.9719	-130.166	0.822998
-39.9714	-130.0191	0.8425293
-39.9688	-125.969	0.862061
-39.9675	-129.39	0.8815918
-39.9664	-124.872	0.901123
-39.9636	-124.851	0.9206543
-39.9636	-125.289	0.940186
-39.96064	-125.799	0.9597168
-39.9591	-119.6203	0.979248
-39.9578	-121.013	0.9987793
-39.9562	-123.802	1.01831
-39.955	-118.963	1.03784
-39.9537	-118.268	1.057373
-39.9513	-119.851	1.0769
-39.9506	-116.521	1.09644
-39.948	-113.3427	1.11597
-39.9466	-120.519	1.135498
-39.9446	-113.374	1.15503
-39.9433	-112.645	1.17456
-39.9417	-114.545	1.19409
-39.9404	-112.301	1.213623
-39.9391	-107.464	1.23315
-39.9361	-114.486	1.25269
-39.9346	-108.384	1.27222
-39.9328	-105.525	1.291748
-39.9322	-107.695	1.31128
-39.9303	-106.672	1.33081
-39.9297	-100.796	1.35034
-39.9262	-107.122	1.369873
-39.9249	-103.843	1.3894
-39.9243	-100.85	1.40894
-39.9227	-101.926	1.42847
-39.9215	-102.753	1.447998
-39.9183	-98.6909	1.46753
-39.9171	-98.749	1.48706
-39.9155	-98.61248	1.50659
-39.91407	-99.4724	1.526123
-39.9128	-94.117	1.54565
-39.9107	-96.7168	1.56519
-39.9089	-95.4984	1.58472
-39.9083	-92.0517	1.604248
-39.905	-94.1025	1.62378
-39.9038	-92.75293	1.64331
-39.9027	-87.80735	1.66284
-39.9021	-86.979	1.682373
-39.8983	-92.2581	1.7019
-39.8982	-86.7827	1.72144
-39.8962	-85.1791	1.74097
-39.8939	-89.4952	1.760498
-39.8932	-85.13047	1.78003
-39.89109	-81.7139	1.79956
-39.8897	-88.1053	1.81909
-39.8876	-81.8917	1.838623
-39.8873	-78.8596	1.85815
-39.8845	-82.861	1.87769
-39.8833	-80.9935	1.89722
-39.8807	-73.8515	1.916748
-39.8794	-80.3877	1.93628
-39.8781	-77.6368	1.95581
-39.8769	-73.6334	1.97534
-39.8752	-74.9519	1.994873
-39.8724	-75.37413	2.0144
-39.8718	-69.2805	2.03394
-39.8705	-73.9326	2.05347
-39.8689	-73.4723	2.072998
-39.8667	-69.7915	2.09253
-39.8645	-68.1387	2.11206
-39.8632	-70.5595	2.13159
-39.8628	-69.3237	2.151123
-39.8593	-64.1983	2.17065
-39.85894	-66.3894	2.19019
-39.8579	-65.32399	2.20972
-39.8553	-61.8988	2.229248
-39.8545	-63.4978	2.24878
-39.8538	-63.3815	2.26831
-39.84985	-57.7847	2.28784
-39.8495	-59.9087	2.307373
-39.8477	-63.1174	2.3269
-39.8464	-56.4688	2.34644
-39.84399	-53.3987	2.36597
-39.8428	-60.9293	2.385498
-39.8405	-54.7841	2.40503
-39.8381	-52.5548	2.42456
-39.8378	-54.5914	2.44409
-39.8369	-52.3057	2.463623
-39.8339	-48.616	2.48315
-39.83223	-55.7292	2.50269
-39.83	-49.4805	2.52222
-39.83	-46.90559	2.541748
-39.8265	-48.7749	2.56128
-39.826	-48.9422	2.58081
-39.8236	-41.9538	2.60034
-39.823	-47.824	2.619873
-39.8216	-45.6038	2.6394
-39.81913	-43.0102	2.65894
-39.8185	-43.1348	2.67847
-39.8165	-43.4615	2.697998
-39.81461	-38.6708	2.71753
-39.8136	-39.7028	2.73706
-39.812	-42.0593	2.75659
-39.8092	-39.94315	2.776123
-39.8086	-34.6041	2.79565
-39.8061	-37.2607	2.81519
-39.8047	-38.4201	2.83472
-39.80315	-33.1851	2.854248
-39.8015	-34.4667	2.87378
-39.8004	-34.3631	2.89331
-39.799	-30.5002	2.91284
-39.798	-30.0933	2.932373
-39.7965	-33.7915	2.9519
-39.7941	-27.2865	2.97144
-39.792	-27.5345	2.99097
-39.7907	-30.31954	3.010498
-39.7883	-26.6219	3.03003
-39.7869	-20.7154	3.04956
-39.7851	-29.1427	3.06909
-39.7845	-22.7976	3.088623
-39.782	-21.6077	3.10815
-39.7803	-22.5281	3.12769
-39.7793	-21.9363	3.14722
-39.7789	-15.1522	3.166748
-39.7758	-21.9008	3.18628
-39.774	-17.8506	3.20581
-39.772	-14.5396	3.22534
-39.7707	-14.2531	3.244873
-39.7694	-17.5698	3.2644
-39.7665	-12.1268	3.28394
-39.7661	-15.6284	3.30347
-39.7646	-13.4022	3.322998
-39.7626	-10.3833	3.34253
-39.761	-9.09244	3.36206
-39.7594	-11.3459	3.38159
-39.7578	-9.315	3.401123
-39.7566	-6.41469	3.42065
-39.7553	-9.28326	3.44019
-39.752	-7.80268	3.45972
-39.7515	-3.86385	3.479248
-39.7502	-4.41856	3.49878
-39.74741	-6.9315	3.51831
-39.7462	-2.20227	3.53784
-39.7449	-1.55286	3.557373
-39.7435	-4.14968	3.5769
-39.7423	2.21617	3.59644
-39.7404	2.09262	3.61597
-39.7382	-5.357069	3.635498
-39.737	3.92357	3.65503
-39.7347	5.31558	3.67456
-39.7335	1.34507	3.69409
-39.7315	6.28392	3.713623
-39.7301	10.6371	3.73315
-39.7291	3.54953	3.75269
-39.7275	7.52568	3.77222
-39.7245	11.7791	3.791748
-39.7233	9.63495	3.81128
-39.722	9.53859	3.83081
-39.7206	15.9531	3.85034
-39.7185	11.0998	3.869873
-39.7169	12.4961	3.8894
-39.7155	16.4705	3.90894
-39.7132	20.19	3.92847
-39.7126	15.0768	3.947998
-39.7105	18.9788	3.96753
-39.7091	19.5366	3.98706
-39.7072	17.6734	4.00659
-39.706	19.6605	4.026123
-39.7051	22.8748	4.04565
-39.7025	20.1134	4.06519
-39.7014	23.2018	4.08472
-39.6995	26.7416	4.104248
-39.698	22.2326	4.12378
-39.69598	22.2441	4.14331
-39.6945	27.5091	4.16284
-39.69173	31.7274	4.182373
-39.6915	24.66688	4.2019
-39.6883	31.13834	4.22144
-39.6879	29.013	4.24097
-39.6865	29.1709	4.260498
-39.684	32.8168	4.28003
-39.6835	35.9209	4.29956
-39.6816	28.4728	4.31909
-39.6804	35.0963	4.338623
-39.6781	39.126	4.35815
-39.6765	36.0869	4.37769
-39.6751	37.3015	4.39722
-39.6736	43.068	4.416748
-39.6716	37.3186	4.43628
-39.6701	40.77018	4.45581
-39.6688	42.3022	4.47534
-39.6664	40.3763	4.494873
-39.6658	40.4004	4.5144
-39.6633	47.8682	4.53394
-39.6618	43.9734	4.55347
-39.6603	43.1173	4.572998
-39.65892	47.0685	4.59253
-39.657	50.4196	4.61206
-39.6553	47.9583	4.63159
-39.6534	49.1782	4.651123
-39.652	52.0819	4.67065
-39.6504	50.2144	4.69019
-39.6499	51.40807	4.70972
-39.6471	56.8467	4.729248
-39.646	53.8742	4.74878
-39.6446	52.03727	4.76831
-39.6424	60.1399	4.78784
-39.6405	58.8603	4.807373
-39.6391	54.9733	4.8269
-39.6367	60.4088	4.84644
-39.6345	63.0844	4.86597
-39.6343	56.214	4.885498
-39.6327	64.4515	4.90503
-39.6312	64.15596	4.92456
-39.6296	61.3598	4.94409
-39.62804	65.75	4.963623
-39.6263	70.7108	4.98315
-39.6242	60.971	5.00269
-39.6223	66.1982	5.02222
-39.6207	70.5381	5.041748
-39.6186	67.8106	5.06128
-39.6181	68.6139	5.08081
-39.6161	74.701	5.10034
-39.6143	70.2489	5.119873
-39.6146	71.3672	5.1394
-39.611	74.6204	5.15894
-39.6102	74.655	5.17847
-39.6086	73.05661	5.197998
-39.6063	77.871	5.21753
-39.6041	77.588	5.23706
-39.6035	76.15683	5.25659
-39.602	77.4017	5.276123
-39.6011	81.1054	5.29565
-39.5985	81.3584	5.31519
-39.5966	77.8046	5.33472
-39.5954	83.49279	5.354248
-39.5933	81.6385	5.37378
-39.5922	81.2101	5.39331
-39.5898	87.0454	5.41284
-39.5882	86.7243	5.432373
-39.5872	81.5846	5.4519
-39.5849	90.5296	5.47144
-39.5826	90.1944	5.49097
-39.5824	87.8971	5.510498
-39.58054	91.3305	5.53003
-39.58009	96.2957	5.54956
-39.5766	87.7632	5.56909
-39.5768	94.4523	5.588623
-39.57375	95.0574	5.60815
-39.5727	93.6507	5.62769
-39.5718	96.6577	5.64722
-39.5695	102.0386	5.666748
-39.56657	93.4716	5.68628
-39.5667	97.6213	5.70581
-39.5648	99.6748	5.72534
-39.5607	101.722	5.744873
-39.5611	99.8585	5.7644
-39.55946	104.081	5.78394
-39.55727	101.607	5.80347
-39.5561	102.298	5.822998
-39.5539	106.09	5.84253
-39.553	107.237	5.86206
-39.551	104.683	5.88159
-39.5488	107.029	5.901123
-39.5486	110.993	5.92065
-39.5454	108.314	5.94019
-39.54549	108.23	5.95972
-39.5429	112.731	5.979248
-39.5417	112.084	5.99878
-39.5399	109.909	6.01831
-39.5373	117.481	6.03784
-39.5358	115.256	6.057373
-39.5347	113.031	6.0769
-39.5324	118.891	6.09644
-39.5316	120.523	6.11597
-39.5299	113.23	6.135498
-39.529	122.693	6.15503
-39.527	123.707	6.17456
-39.5242	119.256	6.19409
-39.5238	122.91	6.213623
-39.52161	127.479	6.23315
-39.51886	120.669	6.25269
-39.5183	125.435	6.27222
-39.517	127.917	6.291748
-39.5145	126.909	6.31128
-39.5123	124.972	6.33081
-39.5116	132.559	6.35034
-39.51	127.074	6.369873
-39.50864	128.2249	6.3894
-39.5064	131.111	6.40894
-39.5054	134.596	6.42847
-39.5049	131.755	6.447998
-39.5031	134.016	6.46753
-39.5013	135.623	6.48706
-39.5	133.25	6.50659
-39.4986	137.378	6.526123
-39.496	139.667	6.54565
-39.4947	137.756	6.56519
-39.4926	137.2384	6.58472
-39.4908	143.598	6.604248
-39.4892	139.2433	6.62378
-39.48848	138.796	6.64331
-39.4866	144.431	6.66284
-39.4844	145.186	6.682373
-39.4837	140.284	6.7019
-39.4797	148.967	6.72144
-39.4797	145.77	6.74097
-39.4783	142.834	6.760498
-39.4773	150.587	6.78003
-39.47438	153.046	6.79956
-39.4728	143.171	6.81909
-39.4718	150.954	6.838623
-39.4702	152.22	6.85815
-39.46833	150.018	6.87769
-39.46629	152.323	6.89722
-39.4648	157.588	6.916748
-39.4634	151.325	6.93628
-39.4609	157.044	6.95581
-39.4597	158.661	6.97534
-39.4583	155.479	6.994873
-39.45715	155.909	7.0144
-39.455	162.3	7.03394
-39.4539	160.014	7.05347
-39.4527	159.576	7.072998
-39.4504	161.106	7.09253
-39.4488	165.033	7.11206
-39.4463	162.811	7.13159
-39.4441	163.0137	7.151123
-39.4435	166.871	7.17065
-39.442	162.605	7.19019
-39.4406	165.823	7.20972
-39.4382	171.036	7.229248
-39.4377	169.947	7.24878
-39.4361	164.733	7.26831
-39.4333	173.885	7.28784
-39.4331	170.486	7.307373
-39.4308	170.439	7.3269
-39.4294	175.299	7.34644
-39.4266	176.118	7.36597
-39.4256	169.881	7.385498
-39.4248	178.926	7.40503
-39.4217	177.912	7.42456
-39.4212	174.707	7.44409
-39.4194	178.092	7.463623
-39.4176	183.997	7.48315
-39.4158	175.234	7.50269
-39.415	179.537	7.52222
-39.4123	183.875	7.541748
-39.4116	182.728	7.56128
-39.4098	182.5607	7.58081
-39.4086	186.755	7.60034
-39.4068	181.472	7.619873
-39.4048	185.337	7.6394
-39.403	188.941	7.65894
-39.4015	188.451	7.67847
-39.3998	184.928	7.697998
-39.3978	190.601	7.71753
-39.3963	191.172	7.73706
-39.3952	189.146	7.75659
-39.3935	191.227	7.776123
-39.3912	195.7515	7.79565
-39.3901	192.339	7.81519
-39.388	191.764	7.83472
-39.3861	197.6293	7.854248
-39.38501	194.586	7.87378
-39.3838	195.662	7.89331
-39.3817	201.273	7.91284
-39.3803	201.732	7.932373
-39.37965	193.93	7.9519
-39.3779	202.772	7.97144
-39.3764	202.13	7.99097
-39.37352	199.887	8.010498
-39.3717	202.6109	8.03003
-39.3707	208.274	8.04956
-39.3685	198.207	8.06909
-39.3679	207.261	8.088623
-39.3661	208.318	8.10815
-39.3643	204.969	8.12769
-39.36161	207.0636	8.14722
-39.3618	214.41	8.166748
-39.3587	206.5527	8.18628
-39.3574	209.447	8.20581
-39.3559	212.749	8.22534
-39.3549	211.865	8.244873
-39.3532	211.069	8.2644
-39.351	215.939	8.28394
-39.3487	215.068	8.30347
-39.3485	212.756	8.322998
-39.3467	216.538	8.34253
-39.3437	219.174	8.36206
-39.342	215.661	8.38159
-39.3428	218.433	8.401123
-39.3397	223.6628	8.42065
-39.33802	219.437	8.44019
-39.3357	220.194	8.45972
-39.3347	224.457	8.479248
-39.3328	224.505	8.49878
-39.33226	220.325	8.51831
-39.3303	228.815	8.53784
-39.328	225.521	8.557373
-39.3267	223.71	8.5769
-39.3246	231.6033	8.59644
-39.3232	233.691	8.61597
-39.3224	223.738	8.635498
-39.3193	233.156	8.65503
-39.3189	231.4978	8.67456
-39.3172	228.859	8.69409
-39.3153	233.047	8.713623
-39.3142	237.838	8.73315
-39.3125	230.752	8.75269
-39.311	236.597	8.77222
-39.3084	239.057	8.791748
-39.30648	235.26	8.81128
-39.3053	235.024	8.83081
-39.3044	241.272	8.85034
-39.3032	237.516	8.869873
-39.3007	239.1572	8.8894
-39.2987	242.6944	8.90894
-39.2971	243.016	8.92847
-39.2953	243.028	8.947998
-39.2947	245.442	8.96753
-39.2927	246.164	8.98706
-39.2902	241.61	9.00659
-39.289	246.212	9.026123
-39.2879	249.382	9.04565
-39.2867	246.178	9.06519
-39.2835	245.325	9.08472
-39.283	254.225	9.104248
-39.2809	249.0303	9.12378
-39.28017	247.9612	9.14331
-39.278	255.17	9.16284
-39.2761	255.777	9.182373
-39.275	249.169	9.2019
-39.2729	259.217	9.22144
-39.2716	256.685	9.24097
-39.27	252.077	9.260498
-39.2677	258.144	9.28003
-39.2659	263.514	9.29956
-39.2643	253.93	9.31909
-39.26215	260.634	9.338623
-39.2614	263.146	9.35815
-39.2606	260.388	9.37769
-39.2583	261.242	9.39722
-39.2561	268.057	9.416748
-39.2556	259.668	9.43628
-39.2533	263.0257	9.45581
-39.2512	268.27	9.47534
-39.2503	266.69	9.494873
-39.2485	263.511	9.5144
-39.2458	271.146	9.53394
-39.2439	269.9826	9.55347
-39.2439	266.436	9.572998
-39.2422	270.957	9.59253
-39.24176	272.302	9.61206
-39.2395	269.399	9.63159
-39.2374	273.675	9.651123
-39.2357	276.453	9.67065
-39.2323	271.188	9.69019
-39.2319	273.62	9.70972
-39.2302	280.1431	9.729248
-39.2287	277.5264	9.74878
-39.22805	273.16	9.76831
-39.22591	281.938	9.78784
-39.2236	278.123	9.807373
-39.2224	278.281	9.8269
-39.2201	281.97	9.84644
-39.2194	285.699	9.86597
-39.218	277.527	9.885498
-39.2162	287.246	9.90503
-39.2147	286.014	9.92456
-39.2132	282.969	9.94409
-39.211	286.2377	9.963623
-39.2099	292.108	9.98315
-39.2077	282.342	10.0027
-39.2071	287.746	10.0222
-39.2047	290.867	10.0417
-39.2019	288.864	10.0613
-39.2013	289.865	10.0808
-39.1997	295.776	10.1003
-39.1973	290.221	10.1199
-39.1951	290.329	10.1394
-39.1956	297.08	10.1589
-39.1922	296.868	10.1785
-39.192	292.752	10.198
-39.19	295.857	10.2175
-39.1895	298.067	10.2371
-39.1872	295.645	10.2566
-39.1851	299.312	10.2761
-39.1831	301.573	10.2957
-39.1819	298.621	10.3152
-39.1794	299.26	10.3347
-39.1791	306.46	10.3542
-39.1772	299.988	10.3738
-39.1749	300.461	10.3933
-39.1743	307.847	10.4128
-39.172	307.835	10.4324
-39.1705	301.11	10.4519
-39.1686	309.311	10.4714
-39.1677	307.251	10.491
-39.1662	305.811	10.5105
-39.16563	310.733	10.53
-39.163	312.776	10.5496
-39.1613	304.87	10.5691
-39.1586	313.575	10.5886
-39.1576	313.915	10.6082
-39.1555	311.448	10.6277
-39.155	312.794	10.6472
-39.1528	318.628	10.6667
-39.15134	311.669	10.6863
-39.1496	314.331	10.7058
-39.1477	317.603	10.7253
-39.1459	316.908	10.7449
-39.1442	315.945	10.7644
-39.1429	321.558	10.7839
-39.14	319.359	10.8035
-39.1396	317.117	10.823
-39.1379	322.676	10.8425
-39.1364	324.808	10.8621
-39.1351	321.039	10.8816
-39.13422	321.548	10.9011
-39.1303	326.006	10.9207
-39.1307	322.14	10.9402
-39.1277	326.173	10.9597
-39.12645	328.274	10.9792
-39.125	327.044	10.9988
-39.1239	323.243	11.0183
-39.1207	333.129	11.0378
-39.1199	329.0079	11.0574
-39.11816	325.566	11.0769
-39.1158	332.68	11.0964
-39.1147	335.172	11.116
-39.1145	325.837	11.1355
-39.1128	334.686	11.155
-39.11	335.046	11.1746
-39.1085	331.894	11.1941
-39.1068	336.035	11.2136
-39.1049	341.168	11.2332
-39.1033	331.328	11.2527
-39.1022	338.311	11.2722
-39.1007	342.277	11.2917
-39.0987	338.7522	11.3113
-39.0977	337.022	11.3308
-39.0954	344.961	11.3503
-39.0945	340.413	11.3699
-39.0921	340.498	11.3894
-39.0907	344.1	11.4089
-39.0889	342.178	11.4285
-39.0874	341.942	11.448
-39.086	346.757	11.4675
-39.0848	347.805	11.4871
-39.0828	342.065	11.5066
-39.0799	346.8674	11.5261
-39.0798	350.441	11.5457
-39.07856	348.724	11.5652
-39.0762	345.76	11.5847
-39.0752	353.698	11.6042
-39.0729	349	11.6238
-39.0708	350.003	11.6433
-39.0693	355.241	11.6628
-39.0674	353.282	11.6824
-39.0662	347.945	11.7019
-39.06525	358.624	11.7214
-39.0631	354.65	11.741
-39.0618	352.903	11.7605
-39.05904	359.116	11.78
-39.0582	362.41	11.7996
-39.0569	353.52	11.8191
-39.0548	361.385	11.8386
-39.0536	362.5379	11.8582
-39.05138	357.222	11.8777
-39.05	361.123	11.8972
-39.0479	366.186	11.9167
-39.0471	358.12	11.9363
-39.045	361.927	11.9558
-39.04332	367.213	11.9753
-39.0414	366.003	11.9949
-39.0404	363.897	12.0144
-39.03841	366.8743	12.0339
-39.0369	367.814	12.0535
-39.0356	365.457	12.073
-39.0341	369.645	12.0925
-39.0326	369.276	12.1121
-39.0303	367.187	12.1316
-39.02895	370.381	12.1511
-39.0278	375.648	12.1707
-39.0251	368.951	12.1902
-39.0244	371.673	12.2097
-39.0229	377.892	12.2292
-39.0212	375.347	12.2488
-39.0187	370.1347	12.2683
-39.0178	379.395	12.2878
-39.0162	374.702	12.3074
-39.0144	374.033	12.3269
-39.0121	381.3074	12.3464
-39.01112	380.0336	12.366
-39.0104	370.78	12.3855
-39.0071	382.477	12.405
-39.00737	382.544	12.4246
-39.00478	378.928	12.4441
-39.0029	381.563	12.4636
-39.0021	385.66	12.4832
-38.999	378.814	12.5027
-38.9989	382.916	12.5222
-38.9964	386.074	12.5417
-38.9942	382.9707	12.5613
-38.9927	385.368	12.5808
-38.9916	390.783	12.6003
-38.9898	386.049	12.6199
-38.988	386.335	12.6394
-38.9879	389.7876	12.6589
-38.9857	390.173	12.6785
-38.9827	388.973	12.698
-38.9818	389.264	12.7175
-38.98	394.181	12.7371
-38.9783	389.333	12.7566
-38.9768	392.018	12.7761
-38.9752	394.935	12.7957
-38.9738	392.903	12.8152
-38.9721	391.39	12.8347
-38.97	401.163	12.8542
-38.9679	393.468	12.8738
-38.96756	392.345	12.8933
-38.96489	399.601	12.9128
-38.9638	399.748	12.9324
-38.9621	394.028	12.9519
-38.9619	401.87	12.9714
-38.959	400.112	12.991
-38.958	396.686	13.0105
-38.956	402.957	13.03
-38.95443	405.603	13.0496
-38.9518	394.085	13.0691
-38.9507	403.871	13.0886
-38.9498	406.713	13.1082
-38.94791	401.935	13.1277
-38.9462	402.6	13.1472
-38.94429	408.554	13.1667
-38.9424	402.875	13.1863
-38.9403	404.864	13.2058
-38.9399	408.621	13.2253
-38.9377	405.992	13.2449
-38.935	406.632	13.2644
-38.9338	411.704	13.2839
-38.9319	409.877	13.3035
-38.9316	405.976	13.323
-38.9296	410.973	13.3425
-38.9269	414.012	13.3621
-38.9265	410.523	13.3816
-38.9254	408.902	13.4011
-38.9227	414.28	13.4207
-38.9214	409.996	13.4402
-38.9195	413.045	13.4597
-38.9185	416.201	13.4792
-38.9174	414.894	13.4988
-38.91486	410.311	13.5183
-38.9134	420.487	13.5378
-38.9132	416.013	13.5574
-38.91	413.884	13.5769
-38.9075	420.856	13.5964
-38.90694	421.409	13.616
-38.905	413.826	13.6355
-38.90416	421.926	13.655
-38.9012	419.748	13.6746
-38.9019	417.8735	13.6941
-38.8978	423.842	13.7136
-38.8977	426.235	13.7332
-38.8947	418.196	13.7527
-38.8948	421.0676	13.7722
-38.8915	428.081	13.7917
-38.8898	421.751	13.8113
-38.8896	422.2778	13.8308
-38.8881	424.966	13.8503
-38.8859	425.459	13.8699
-38.8841	424.328	13.8894
-38.8833	429.101	13.9089
-38.8802	427.064	13.9285
-38.8798	425.411	13.948
-38.8775	429.553	13.9675
-38.87606	433.891	13.9871
-38.87442	426.123	14.0066
-38.8728	429.497	14.0261
-38.8712	433.515	14.0457
-38.8695	430.035	14.0652
-38.8681	428.983	14.0847
-38.8663	435.755	14.1042
-38.8644	430.6012	14.1238
-38.8622	430.488	14.1433
-38.861	437.544	14.1628
-38.8592	435.174	14.1824
-38.8588	426.743	14.2019
-38.8559	439.644	14.2214
-38.855	436.012	14.241
-38.8549	432.754	14.2605
-38.85144	438.036	14.28
-38.8498	440.6091	14.2996
-38.8492	433.923	14.3191
-38.8469	440.13	14.3386
-38.8452	441.48	14.3582
-38.8437	435.771	14.3777
-38.843	439.139	14.3972
-38.8397	446.2937	14.4167
-38.8392	437.591	14.4363
-38.8356	437.869	14.4558
-38.8358	444.445	14.4753
-38.8337	441.338	14.4949
-38.8323	440.362	14.5144
-38.8311	443.673	14.5339
-38.829	445.426	14.5535
-38.8276	440.7731	14.573
-38.82687	444.603	14.5925
-38.82465	445.66	14.6121
-38.8229	443.415	14.6316
-38.8213	441.8952	14.6511
-38.819	451.456	14.6707
-38.8184	445.635	14.6902
-38.8156	445.433	14.7097
-38.816	451.073	14.7292
-38.8119	449.615	14.7488
-38.81065	444.2	14.7683
-38.8083	452.757	14.7878
-38.808	447.156	14.8074
-38.8071	446.837	14.8269
-38.8049	454.883	14.8464
-38.8033	453.959	14.866
-38.8011	443.953	14.8855
-38.79818	453.5484	14.905
-38.798	454.044	14.9246
-38.7966	448.7431	14.9441
-38.79504	451.078	14.9636
-38.7925	455.898	14.9832
-38.7912	449.894	15.0027
-38.7891	453.321	15.0222
-38.7886	456.635	15.0417
-38.7862	451.22	15.0613
-38.7847	453.219	15.0808
-38.7837	456.6496	15.1003
-38.78183	454.774	15.1199
-38.7794	452.152	15.1394
-38.7783	456.9707	15.1589
-38.7763	457.572	15.1785
-38.7757	456.064	15.198
-38.7729	456.599	15.2175
-38.7714	460.819	15.2371
-38.77058	454.472	15.2566
-38.7677	459.674	15.2761
-38.7663	462.0195	15.2957
-38.76445	458.518	15.3152
-38.7642	455.654	15.3347
-38.7609	464.957	15.3542
-38.7606	457.227	15.3738
-38.7592	458.905	15.3933
-38.7572	463.709	15.4128
-38.7566	463.178	15.4324
-38.75481	455.431	15.4519
-38.7524	466.128	15.4714
-38.75032	460.977	15.491
-38.751	458.86	15.5105
-38.7481	465.1185	15.53
-38.7442	466.368	15.5496
-38.74334	457.964	15.5691
-38.7437	463.537	15.5886
-38.7412	465.911	15.6082
-38.7393	461.871	15.6277
-38.738	462.222	15.6472
-38.73563	468.093	15.6667
-38.7359	463.222	15.6863
-38.7334	464.367	15.7058
-38.7311	470.654	15.7253
-38.7298	465.538	15.7449
-38.7271	463.514	15.7644
-38.7271	465.824	15.7839
-38.7228	469.547	15.8035
-38.7228	463.147	15.823
-38.7205	467.167	15.8425
-38.7192	468.154	15.8621
-38.7184	466.144	15.8816
-38.716	465.426	15.9011
-38.7163	471.413	15.9207
-38.7146	463.807	15.9402
-38.7121	466.82	15.9597
-38.70961	473.588	15.9792
-38.7094	469.598	15.9988
-38.7075	463.684	16.0183
-38.7052	473.34	16.0378
-38.70351	469.078	16.0574
-38.7015	466.535	16.0769
-38.7004	472.144	16.0964
-38.6988	471.537	16.116
-38.6969	465.193	16.1355
-38.6946	474.7207	16.155
-38.6934	472.1203	16.1746
-38.6913	466.5874	16.1941
-38.68956	471.67	16.2136
-38.6908	475.823	16.2332
-38.6872	466.239	16.2527
-38.6859	469.495	16.2722
-38.6843	473.744	16.2917
-38.6817	470.443	16.3113
-38.6802	470.759	16.3308
-38.6783	472.897	16.3503
-38.6776	471.437	16.3699
-38.6755	469.935	16.3894
-38.6746	474.535	16.4089
-38.672	474.938	16.4285
-38.6696	470.933	16.448
-38.6698	471.942	16.4675
-38.6675	477.833	16.4871
-38.66613	469.001	16.5066
-38.6637	472.232	16.5261
-38.663	475.015	16.5457
-38.6615	473.549	16.5652
-38.6602	469.086	16.5847
-38.6586	478.077	16.6042
-38.6566	471.029	16.6238
-38.6531	472.468	16.6433
-38.6524	478.057	16.6628
-38.6511	474.93	16.6824
-38.6489	467.657	16.7019
-38.6468	477.618	16.7214
-38.6469	475.023	16.741
-38.6449	471.895	16.7605
-38.6437	475.305	16.78
-38.64151	478.315	16.7996
-38.6403	468.596	16.8191
-38.6388	475.404	16.8386
-38.6368	477.16	16.8582
-38.6358	469.488	16.8777
-38.6333	475.0871	16.8972
-38.6312	478.334	16.9167
-38.6307	474.24	16.9363
-38.6288	472.183	16.9558
-38.6272	476.886	16.9753
-38.6254	474.98	16.9949
-38.6237	473.4115	17.0144
-38.6224	475.8175	17.0339
-38.6204	476.536	17.0535
-38.6186	471.285	17.073
-38.6184	475.9812	17.0925
-38.6161	477.453	17.1121
-38.6139	472.709	17.1316
-38.6121	471.881	17.1511
-38.6107	481.201	17.1707
-38.6088	471.951	17.1902
-38.6067	474.194	17.2097
-38.6065	478.08	17.2292
-38.6052	475.997	17.2488
-38.6017	470.955	17.2683
-38.6002	478.295	17.2878
-38.5991	474.651	17.3074
-38.5983	470.807	17.3269
-38.5967	477.726	17.3464
-38.5951	476.973	17.366
-38.5932	469.1767	17.3855
-38.5913	477.976	17.405
-38.5903	478.611	17.4246
-38.5878	472.753	17.4441
-38.5848	476.34	17.4636
-38.5853	475.678	17.4832
-38.5813	470.754	17.5027
-38.5823	475.361	17.5222
-38.5811	478.97	17.5417
-38.5783	471.426	17.5613
-38.576	473.571	17.5808
-38.5754	478.105	17.6003
-38.5734	475.751	17.6199
-38.5713	471.501	17.6394
-38.5697	477.425	17.6589
-38.5688	475.158	17.6785
-38.5671	473.137	17.698
-38.5666	473.914	17.7175
-38.564	477.669	17.7371
-38.5617	469.288	17.7566
-38.561	477.293	17.7761
-38.5587	480.161	17.7957
-38.5568	473.782	17.8152
-38.5564	471.012	17.8347
-38.5543	480.476	17.8542
-38.5514	474.058	17.8738
-38.5506	473.012	17.8933
-38.5489	480.204	17.9128
-38.5482	477.0676	17.9324
-38.5461	470.851	17.9519
-38.5435	479.708	17.9714
-38.54147	476.997	17.991
-38.5397	470.361	18.0105
-38.5387	478.022	18.03
-38.5374	480.705	18.0496
-38.5355	471.183	18.0691
-38.5338	474.685	18.0886
-38.5336	478.627	18.1082
-38.5304	474.378	18.1277
-38.5294	477.105	18.1472
-38.5282	479.325	18.1667
-38.5269	473.409	18.1863
-38.5236	474.952	18.2058
-38.5226	480.355	18.2253
-38.5213	475.5202	18.2449
-38.5195	475.122	18.2644
-38.5186	475.187	18.2839
-38.5161	479.605	18.3035
-38.5148	471.746	18.323
-38.5122	477.993	18.3425
-38.5105	479.141	18.3621
-38.5111	474.89	18.3816
-38.5088	473.093	18.4011
-38.50634	479.969	18.4207
-38.5043	472.538	18.4402
-38.5041	474.779	18.4597
-38.5019	481.442	18.4792
-38.50079	475.696	18.4988
-38.4989	468.612	18.5183
-38.4959	479.624	18.5378
-38.4952	476.079	18.5574
-38.4932	473.49	18.5769
-38.4919	478.8783	18.5964
-38.4911	476.5004	18.616
-38.4893	471.718	18.6355
-38.4864	479.065	18.655
-38.4866	478.713	18.6746
-38.4842	470.014	18.6941
-38.4814	476.266	18.7136
-38.4794	478.98	18.7332
-38.4794	473.679	18.7527
-38.4776	473.717	18.7722
-38.47477	479.291	18.7917
-38.4741	474.111	18.8113
-38.4728	477.5148	18.8308
-38.46962	477.63	18.8503
-38.4693	476.858	18.8699
-38.4683	472.936	18.8894
-38.4651	479.01	18.9089
-38.4638	479.6481	18.9285
-38.4631	473.892	18.948
-38.46117	473.42	18.9675
-38.4605	481.529	18.9871
-38.4569	470.974	19.0066
-38.4569	476.112	19.0261
-38.45409	479.836	19.0457
-38.4529	474.035	19.0652
-38.4504	472.534	19.0847
-38.4487	481.148	19.1042
-38.44833	473.385	19.1238
-38.4463	472.984	19.1433
-38.4446	481.361	19.1628
-38.4438	477.643	19.1824
-38.4409	471.524	19.2019
-38.4409	478.289	19.2214
-38.43811	476.326	19.241
-38.4359	473.074	19.2605
-38.4338	477.948	19.28
-38.4339	478.1951	19.2996
-38.4313	472.0871	19.3191
-38.4305	477.92	19.3386
-38.4287	479.3418	19.3582
-38.4273	473.029	19.3777
-38.4254	475.554	19.3972
-38.424	478.151	19.4167
-38.4229	476.812	19.4363
-38.4199	473.354	19.4558
-38.4177	480.033	19.4753
-38.4169	475.672	19.4949
-38.4152	475.801	19.5144
-38.41404	475.541	19.5339
-38.41095	477.773	19.5535
-38.4106	470.834	19.573
-38.4089	477.654	19.5925
-38.4073	478.971	19.6121
-38.4047	473.648	19.6316
-38.4036	472.953	19.6511
-38.40192	480.9054	19.6707
-38.401	473.427	19.6902
-38.3996	474.557	19.7097
-38.39698	480.528	19.7292
-38.3952	475.823	19.7488
-38.3942	472.627	19.7683
-38.3916	479.691	19.7878
-38.3912	474.976	19.8074
-38.38929	470.589	19.8269
-38.3878	479.6051	19.8464
-38.3856	477.346	19.866
-38.3845	470.14	19.8855
-38.3841	476.731	19.905
-38.3818	477.6868	19.9246
-38.379	470.927	19.9441
-38.3773	476.095	19.9636
-38.3767	478.49	19.9832
-38.3753	471.547	20.0027
-38.3744	472.528	20.0125

Data Header:			0.254_hd_dimension_typeiv_4545_r0			Time:	40.01709	s	4/13/2019 8:23:26 PM
Data Acquisition:	Timed
Station Name:	ft40.cfg
Test File Name:	monotonic_0.2540_typeiv_hd_4545_dimension.tst
Displacement	Force	Running Time
mm	N	s
-38.3731	474.036	20.0222
-38.3701	480.804	20.0417
-38.3697	474.336	20.0613
-38.3679	474.986	20.0808
-38.3661	477.22	20.1003
-38.3642	477.488	20.1199
-38.3639	472.403	20.1394
-38.3626	477.611	20.1589
-38.3613	476.658	20.1785
-38.3586	474.413	20.198
-38.3553	474.472	20.2175
-38.3551	480.086	20.2371
-38.3535	471.261	20.2566
-38.3532	475.1062	20.2761
-38.3508	480.415	20.2957
-38.3481	474.081	20.3152
-38.3464	470.496	20.3347
-38.3455	479.542	20.3542
-38.343	472.805	20.3738
-38.3409	473.629	20.3933
-38.3402	479.522	20.4128
-38.3388	475.9277	20.4324
-38.3384	471.18	20.4519
-38.3362	478.454	20.4714
-38.3342	477.605	20.491
-38.3329	470.747	20.5105
-38.3298	477.658	20.53
-38.3297	479.004	20.5496
-38.32576	471.1217	20.5691
-38.32563	474.272	20.5886
-38.3243	479.198	20.6082
-38.3227	474.334	20.6277
-38.3208	476.462	20.6472
-38.3188	475.964	20.6667
-38.3178	472.967	20.6863
-38.3165	471.9447	20.7058
-38.3154	478.825	20.7253
-38.3133	475.779	20.7449
-38.3124	472.277	20.7644
-38.3103	475.333	20.7839
-38.30851	477.756	20.8035
-38.3075	470.9455	20.823
-38.3046	475.1777	20.8425
-38.3031	477.364	20.8621
-38.3015	473.617	20.8816
-38.30011	473.35	20.9011
-38.2969	479.963	20.9207
-38.2973	470.444	20.9402
-38.2959	473.736	20.9597
-38.2928	479.594	20.9792
-38.2911	474.623	20.9988
-38.2904	469.452	21.0183
-38.2882	479.292	21.0378
-38.2865	475.282	21.0574
-38.2861	471.448	21.0769
-38.2836	479.01	21.0964
-38.2815	474.334	21.116
-38.2789	468.8837	21.1355
-38.2793	475.457	21.155
-38.2773	477.777	21.1746
-38.275	470.991	21.1941
-38.2737	475.256	21.2136
-38.2715	477.248	21.2332
-38.2704	473.206	21.2527
-38.269	473.917	21.2722
-38.267	478.107	21.2917
-38.2663	473.597	21.3113
-38.2636	475.3353	21.3308
-38.2622	475.403	21.3503
-38.2611	476.915	21.3699
-38.2588	470.137	21.3894
-38.25745	478.759	21.4089
-38.2563	477.078	21.4285
-38.2544	472.922	21.448
-38.2527	473.218	21.4675
-38.25156	479.244	21.4871
-38.2496	471.875	21.5066
-38.2484	474.721	21.5261
-38.24778	477.174	21.5457
-38.2447	472.673	21.5652
-38.2431	472.115	21.5847
-38.2417	479.05	21.6042
-38.24	472.509	21.6238
-38.2384	470.309	21.6433
-38.2364	479.312	21.6628
-38.2359	476.009	21.6824
-38.2324	470.958	21.7019
-38.23082	475.476	21.7214
-38.2296	475.989	21.741
-38.2277	471.261	21.7605
-38.2266	476.938	21.78
-38.2244	475.614	21.7996
-38.2235	469.842	21.8191
-38.2216	474.148	21.8386
-38.2212	479.31	21.8582
-38.219	472.612	21.8777
-38.2178	474.244	21.8972
-38.21566	477.3949	21.9167
-38.21344	475.015	21.9363
-38.2124	472.046	21.9558
-38.2099	477.1449	21.9753
-38.2087	475.0441	21.9949
-38.2079	474.385	22.0144
-38.20541	475.662	22.0339
-38.2042	477.908	22.0535
-38.202	468.5827	22.073
-38.2011	474.596	22.0925
-38.1978	478.892	22.1121
-38.1971	471.716	22.1316
-38.1953	471.994	22.1511
-38.1941	478.588	22.1707
-38.1926	471.412	22.1902
-38.19149	473.471	22.2097
-38.189	478.119	22.2292
-38.188	473.722	22.2488
-38.1856	469.378	22.2683
-38.1838	479.526	22.2878
-38.1827	473.458	22.3074
-38.1811	469.465	22.3269
-38.1789	477.831	22.3464
-38.1771	475.538	22.366
-38.1765	469.974	22.3855
-38.1749	474.028	22.405
-38.173	476.071	22.4246
-38.17178	470.466	22.4441
-38.1705	477.519	22.4636
-38.1685	475.554	22.4832
-38.1669	472.556	22.5027
-38.1648	472.822	22.5222
-38.16362	479.25	22.5417
-38.1613	473.555	22.5613
-38.1598	473.442	22.5808
-38.159	475.358	22.6003
-38.1565	476.848	22.6199
-38.15432	469.049	22.6394
-38.15274	478.138	22.6589
-38.1516	476.199	22.6785
-38.1496	471.779	22.698
-38.14851	473.708	22.7175
-38.1464	479.357	22.7371
-38.1447	469.323	22.7566
-38.1437	473.468	22.7761
-38.1412	478.566	22.7957
-38.1411	473.593	22.8152
-38.1389	469.56	22.8347
-38.13744	478.774	22.8542
-38.135	472.072	22.8738
-38.1332	470.732	22.8933
-38.1316	477.12	22.9128
-38.13068	473.97	22.9324
-38.1284	469.4324	22.9519
-38.1281	476.954	22.9714
-38.1265	476.986	22.991
-38.1249	468.8371	23.0105
-38.1226	476.5502	23.03
-38.1202	477.0188	23.0496
-38.1191	472.478	23.0691
-38.117	473.85	23.0886
-38.117	477.9223	23.1082
-38.1142	472.701	23.1277
-38.1123	475.522	23.1472
-38.111	475.225	23.1667
-38.1091	473.508	23.1863
-38.10767	469.96	23.2058
-38.10516	477.6774	23.2253
-38.10461	475.548	23.2449
-38.10239	473.504	23.2644
-38.1005	473.441	23.2839
-38.1007	477.28	23.3035
-38.0974	469.966	23.323
-38.0976	475.735	23.3425
-38.09565	476.737	23.3621
-38.0924	471.287	23.3816
-38.091	472.235	23.4011
-38.0901	480.371	23.4207
-38.0883	470.672	23.4402
-38.0873	472.722	23.4597
-38.0847	479.446	23.4792
-38.0832	474.324	23.4988
-38.0816	471.1235	23.5183
-38.0794	476.834	23.5378
-38.0783	474.1861	23.5574
-38.07663	469.424	23.5769
-38.0758	478.512	23.5964
-38.0743	474.345	23.616
-38.0719	470.086	23.6355
-38.0699	475.438	23.655
-38.0679	477.5206	23.6746
-38.0668	470.634	23.6941
-38.066	474.248	23.7136
-38.064	475.253	23.7332
-38.0626	474.133	23.7527
-38.0607	471.684	23.7722
-38.059	476.944	23.7917
-38.05838	472.556	23.8113
-38.05529	473.604	23.8308
-38.0534	474.512	23.8503
-38.0526	475.959	23.8699
-38.0505	468.371	23.8894
-38.0482	476.355	23.9089
-38.0467	477.134	23.9285
-38.0457	471.552	23.948
-38.0449	471.718	23.9675
-38.0428	478.724	23.9871
-38.04195	468.642	24.0066
-38.0393	474.543	24.0261
-38.0378	477.189	24.0457
-38.0362	471.344	24.0652
-38.0347	470.286	24.0847
-38.0328	478.326	24.1042
-38.032	471.537	24.1238
-38.0294	469.377	24.1433
-38.02726	478.201	24.1628
-38.026	472.681	24.1824
-38.0247	471.397	24.2019
-38.0234	474.563	24.2214
-38.0215	474.192	24.241
-38.0205	469.362	24.2605
-38.0185	476.968	24.28
-38.0169	474.684	24.2996
-38.015	468.3692	24.3191
-38.0136	471.586	24.3386
-38.0122	477.067	24.3582
-38.0102	471.592	24.3777
-38.0085	472.429	24.3972
-38.0072	473.731	24.4167
-38.0053	474.46	24.4363
-38.0034	469.302	24.4558
-38.0019	474.345	24.4753
-38.0004	473.348	24.4949
-37.9986	470.705	24.5144
-37.9972	474.215	24.5339
-37.9954	475.733	24.5535
-37.9928	467.272	24.573
-37.9926	472.552	24.5925
-37.99054	475.908	24.6121
-37.9884	471.867	24.6316
-37.9857	470.542	24.6511
-37.9863	475.802	24.6707
-37.98476	469.814	24.6902
-37.9826	470.421	24.7097
-37.9809	476.598	24.7292
-37.9795	470.524	24.7488
-37.9769	469.569	24.7683
-37.9761	477.04	24.7878
-37.9736	473.832	24.8074
-37.9733	468.561	24.8269
-37.9714	476.791	24.8464
-37.9689	473.609	24.866
-37.9681	469.784	24.8855
-37.9662	473.443	24.905
-37.9656	474.611	24.9246
-37.9621	470.62	24.9441
-37.9619	475.149	24.9636
-37.9592	473.407	24.9832
-37.9581	472.102	25.0027
-37.9556	469.466	25.0222
-37.955	476.015	25.0417
-37.9537	474.543	25.0613
-37.951	471.249	25.0808
-37.9508	472.615	25.1003
-37.9479	474.44	25.1199
-37.9463	468.099	25.1394
-37.9447	476.83	25.1589
-37.9437	473.317	25.1785
-37.9422	470.0036	25.198
-37.9394	472.685	25.2175
-37.9381	478.121	25.2371
-37.9365	468.111	25.2566
-37.9363	470.463	25.2761
-37.93372	477.91	25.2957
-37.9322	470.945	25.3152
-37.9309	469.688	25.3347
-37.9291	476.725	25.3542
-37.9281	471.865	25.3738
-37.9254	469.759	25.3933
-37.9235	477.25	25.4128
-37.9224	471.993	25.4324
-37.921	468.8	25.4519
-37.9195	474.055	25.4714
-37.9161	474.664	25.491
-37.9152	468.342	25.5105
-37.9146	475.127	25.53
-37.9124	473.402	25.5496
-37.9102	471.317	25.5691
-37.9092	472.3671	25.5886
-37.9072	476.094	25.6082
-37.90596	469.783	25.6277
-37.9056	473.206	25.6472
-37.90337	473.657	25.6667
-37.9013	472.8765	25.6863
-37.9	468.563	25.7058
-37.8975	476.86	25.7253
-37.8964	474.977	25.7449
-37.8947	471.248	25.7644
-37.8923	471.739	25.7839
-37.8914	475.649	25.8035
-37.8899	468.676	25.823
-37.8886	474.064	25.8425
-37.8864	475.687	25.8621
-37.8853	469.441	25.8816
-37.8826	471.49	25.9011
-37.8819	477.304	25.9207
-37.88	469.25	25.9402
-37.8784	468.986	25.9597
-37.8778	476.798	25.9792
-37.8744	471.277	25.9988
-37.8726	468.767	26.0183
-37.8718	472.517	26.0378
-37.8709	471.837	26.0574
-37.8679	468.4	26.0769
-37.8673	476.852	26.0964
-37.8648	472.863	26.116
-37.8644	470.349	26.1355
-37.8624	472.567	26.155
-37.8614	476.143	26.1746
-37.8592	468.958	26.1941
-37.8574	474.835	26.2136
-37.85453	473.211	26.2332
-37.8542	472.513	26.2527
-37.8526	470.758	26.2722
-37.8509	477.227	26.2917
-37.8478	471.772	26.3113
-37.8468	470.071	26.3308
-37.8463	474.1749	26.3503
-37.84388	473.479	26.3699
-37.842	466.389	26.3894
-37.8407	472.665	26.4089
-37.8382	475.041	26.4285
-37.83865	469.6	26.448
-37.8364	470.742	26.4675
-37.8347	475.0625	26.4871
-37.833	468.637	26.5066
-37.832	471.341	26.5261
-37.8297	477.027	26.5457
-37.82774	469.029	26.5652
-37.8265	469.26	26.5847
-37.8246	477.5452	26.6042
-37.8228	471.755	26.6238
-37.8203	468.861	26.6433
-37.819	475.767	26.6628
-37.8179	469.76	26.6824
-37.8165	469.714	26.7019
-37.815	473.778	26.7214
-37.8138	472.964	26.741
-37.8117	467.384	26.7605
-37.8095	474.638	26.78
-37.8093	472.7919	26.7996
-37.80706	469.784	26.8191
-37.8051	469.2467	26.8386
-37.8031	475.677	26.8582
-37.80138	471.062	26.8777
-37.8002	471.575	26.8972
-37.7991	472.189	26.9167
-37.7969	473.1821	26.9363
-37.79578	468.7485	26.9558
-37.7932	475.34	26.9753
-37.7912	471.098	26.9949
-37.7901	467.6449	27.0144
-37.7885	471.147	27.0339
-37.7872	474.698	27.0535
-37.7847	466.465	27.073
-37.7836	472.127	27.0925
-37.78244	477.226	27.1121
-37.7809	468.567	27.1316
-37.7783	470.872	27.1511
-37.7766	474.875	27.1707
-37.7765	469.1333	27.1902
-37.775	469.276	27.2097
-37.7725	477.626	27.2292
-37.7704	470.312	27.2488
-37.7688	469.9682	27.2683
-37.7683	475.254	27.2878
-37.7659	473.1376	27.3074
-37.76474	469.018	27.3269
-37.7636	476.325	27.3464
-37.7617	472.4816	27.366
-37.759	469.995	27.3855
-37.7575	473.084	27.405
-37.7571	474.639	27.4246
-37.7548	468.769	27.4441
-37.7528	472.16	27.4636
-37.7515	473.132	27.4832
-37.74963	470.093	27.5027
-37.74791	468.668	27.5222
-37.7476	474.851	27.5417
-37.7453	472.83	27.5613
-37.7432	472.037	27.5808
-37.7412	472.777	27.6003
-37.7403	473.061	27.6199
-37.7397	467.216	27.6394
-37.7372	474.191	27.6589
-37.7361	475.697	27.6785
-37.734	469.817	27.698
-37.7324	473.315	27.7175
-37.7299	477.06	27.7371
-37.7287	470.02	27.7566
-37.7281	469.314	27.7761
-37.7251	476.476	27.7957
-37.7236	471.504	27.8152
-37.7218	469.209	27.8347
-37.7202	474.822	27.8542
-37.7187	470.519	27.8738
-37.7177	468.205	27.8933
-37.7157	477.337	27.9128
-37.7137	471.6778	27.9324
-37.7135	470.454	27.9519
-37.7115	473.468	27.9714
-37.7084	475.011	27.991
-37.7072	468.633	28.0105
-37.7057	473.603	28.03
-37.704	471.478	28.0496
-37.7023	471.644	28.0691
-37.70055	470.146	28.0886
-37.6995	476.096	28.1082
-37.6977	469.331	28.1277
-37.6961	472.774	28.1472
-37.6941	473.398	28.1667
-37.69302	471.984	28.1863
-37.6914	466.242	28.2058
-37.6897	474.47	28.2253
-37.688	474.541	28.2449
-37.68689	470.457	28.2644
-37.6848	472.12	28.2839
-37.6831	474.069	28.3035
-37.6827	468.932	28.323
-37.6794	472.359	28.3425
-37.6769	475.79	28.3621
-37.6772	467.761	28.3816
-37.67477	471.262	28.4011
-37.6729	475.347	28.4207
-37.6722	470.1748	28.4402
-37.6703	469.419	28.4597
-37.6684	476.636	28.4792
-37.6683	469.362	28.4988
-37.6656	470.321	28.5183
-37.6638	474.608	28.5378
-37.6626	471.787	28.5574
-37.6594	468.071	28.5769
-37.6583	476.23	28.5964
-37.6577	471.25	28.616
-37.6548	470.097	28.6355
-37.6533	470.701	28.655
-37.6536	475.707	28.6746
-37.6507	470.393	28.6941
-37.6481	472.396	28.7136
-37.6478	471.172	28.7332
-37.645	469.523	28.7527
-37.6439	468.572	28.7722
-37.6424	475.13	28.7917
-37.64006	471.336	28.8113
-37.6405	468.848	28.8308
-37.63662	473.088	28.8503
-37.6354	473.4259	28.8699
-37.63438	467.456	28.8894
-37.6326	472.3782	28.9089
-37.6313	473.7865	28.9285
-37.6296	468.875	28.948
-37.6272	471.756	28.9675
-37.6255	474.099	28.9871
-37.6236	468.338	29.0066
-37.6228	469.288	29.0261
-37.6201	477.4408	29.0457
-37.619	467.746	29.0652
-37.61879	470.226	29.0847
-37.6171	472.89	29.1042
-37.6153	470.598	29.1238
-37.6127	468.237	29.1433
-37.6114	474.704	29.1628
-37.6112	471.289	29.1824
-37.6083	471.016	29.2019
-37.6073	473.517	29.2214
-37.6049	473.324	29.241
-37.6032	467.191	29.2605
-37.6026	474.611	29.28
-37.6	472.6413	29.2996
-37.5982	468.869	29.3191
-37.5974	469.057	29.3386
-37.5949	475.161	29.3582
-37.593	470.741	29.3777
-37.5916	470.342	29.3972
-37.5906	472.112	29.4167
-37.5891	471.988	29.4363
-37.5871	467.937	29.4558
-37.5858	473.538	29.4753
-37.5838	473.579	29.4949
-37.5818	466.443	29.5144
-37.5811	471.517	29.5339
-37.5783	473.225	29.5535
-37.5764	466.964	29.573
-37.5758	470.38	29.5925
-37.5747	475.011	29.6121
-37.572	467.968	29.6316
-37.57085	471.87	29.6511
-37.56889	473.964	29.6707
-37.5672	467.618	29.6902
-37.5658	469.031	29.7097
-37.5638	476.831	29.7292
-37.5635	467.727	29.7488
-37.56105	468.093	29.7683
-37.5593	470.304	29.7878
-37.5574	471.364	29.8074
-37.5558	467.597	29.8269
-37.5538	473.964	29.8464
-37.5532	470.4621	29.866
-37.5518	469.617	29.8855
-37.5487	471.197	29.905
-37.5478	475.141	29.9246
-37.5456	467.785	29.9441
-37.5443	471.683	29.9636
-37.5424	472.696	29.9832
-37.5407	469.817	30.0027
-37.5403	467.015	30.0222
-37.5386	473.315	30.0417
-37.5365	470.565	30.0613
-37.5352	470.471	30.0808
-37.5341	471.092	30.1003
-37.5319	471.0329	30.1199
-37.5294	466.418	30.1394
-37.5292	472.976	30.1589
-37.5262	473.545	30.1785
-37.5251	466.691	30.198
-37.523	471.895	30.2175
-37.5223	472.502	30.2371
-37.5199	468.444	30.2566
-37.51857	468.896	30.2761
-37.5168	475.2417	30.2957
-37.5154	466.0137	30.3152
-37.514	470.571	30.3347
-37.5119	474.0072	30.3542
-37.5104	470.09	30.3738
-37.5091	466.545	30.3933
-37.5065	475.59	30.4128
-37.5059	468.425	30.4324
-37.5036	468.914	30.4519
-37.5023	470.204	30.4714
-37.5004	472.612	30.491
-37.4993	468.75	30.5105
-37.4973	473.275	30.53
-37.496	470.413	30.5496
-37.4947	467.473	30.5691
-37.4931	468.825	30.5886
-37.4904	475.473	30.6082
-37.4889	468.797	30.6277
-37.4874	470.513	30.6472
[...]
-37.2343	469.595	33.6941
-37.2315	471.224	33.7136
-37.2307	471.055	33.7332
-37.22839	467.104	33.7527
-37.2278	467.641	33.7722
-37.2259	472.439	33.7917
-37.2241	470.378	33.8113
-37.2225	467.978	33.8308
-37.2205	472.923	33.8503
-37.21957	471.079	33.8699
-37.2171	467.817	33.8894
-37.2162	470.114	33.9089
-37.2143	472.266	33.9285
-37.2134	464.925	33.948
-37.2116	472.475	33.9675
-37.2094	471.5318	33.9871
-37.209	466.305	34.0066
-37.2055	467.801	34.0261
-37.2048	475.33	34.0457
-37.20348	465.648	34.0652
-37.2016	471.007	34.0847
-37.1995	471.487	34.1042
-37.1991	469.776	34.1238
-37.1967	467.592	34.1433
-37.1953	474.141	34.1628
-37.1943	467.525	34.1824
-37.193	468.523	34.2019
-37.1895	472.8338	34.2214
-37.1891	471.511	34.241
-37.187	467.575	34.2605
-37.1853	471.681	34.28
-37.1845	472.429	34.2996
-37.1821	468.315	34.3191
-37.1809	468.654	34.3386
-37.1798	469.977	34.3582
-37.178	469.361	34.3777
-37.1746	468.52	34.3972
-37.1738	472.674	34.4167
-37.17197	467.487	34.4363
-37.1702	466.846	34.4558
-37.16983	472.304	34.4753
-37.1668	471.746	34.4949
-37.16523	464.997	34.5144
-37.1634	471.927	34.5339
-37.1612	470.714	34.5535
-37.1601	468.1937	34.573
-37.1587	472.147	34.5925
-37.1562	473.268	34.6121
-37.1548	464.963	34.6316
-37.1541	471.75	34.6511
-37.1518	472.69	34.6707
-37.1501	467.171	34.6902
-37.1497	468.426	34.7097
-37.1471	474.604	34.7292
-37.1465	466.489	34.7488
-37.1439	469.039	34.7683
-37.1423	470.062	34.7878
-37.1417	468.765	34.8074
-37.14	468.491	34.8269
-37.1374	472.733	34.8464
-37.13628	468.114	34.866
-37.1341	465.582	34.8855
-37.1336	469.4183	34.905
-37.1318	472.684	34.9246
-37.1296	467.048	34.9441
-37.1284	468.573	34.9636
-37.1268	472.728	34.9832
-37.1255	467.1243	35.0027
-37.1227	467.707	35.0222
-37.1209	471.456	35.0417
-37.12038	470.035	35.0613
-37.1189	466.56	35.0808
-37.1162	472.127	35.1003
-37.1148	469.442	35.1199
-37.1139	466.321	35.1394
-37.11179	471.01	35.1589
-37.1102	473.975	35.1785
-37.1093	463.947	35.198
-37.1065	471.868	35.2175
-37.105	471.684	35.2371
-37.1053	466.409	35.2566
-37.1017	469.496	35.2761
-37.1	474.379	35.2957
-37.099	464.371	35.3152
-37.0962	469.7395	35.3347
-37.0955	472.993	35.3542
-37.0937	469.84	35.3738
-37.0921	466.948	35.3933
-37.0908	473.8454	35.4128
-37.0891	468.013	35.4324
-37.0878	466.9267	35.4519
-37.0857	469.962	35.4714
-37.084	468.701	35.491
-37.0829	467.773	35.5105
-37.0816	472.038	35.53
-37.079	469.665	35.5496
-37.0774	466.727	35.5691
-37.0763	467.667	35.5886
-37.0742	472.562	35.6082
-37.0725	468.652	35.6277
-37.0706	465.991	35.6472
-37.0702	470.415	35.6667
-37.0665	469.051	35.6863
-37.0665	466.459	35.7058
-37.0644	470.941	35.7253
-37.0625	469.617	35.7449
-37.0609	463.097	35.7644
-37.0598	473.094	35.7839
-37.0577	471.012	35.8035
-37.0576	464.57	35.823
-37.0547	469.523	35.8425
-37.0534	474.187	35.8621
-37.05175	464.753	35.8816
-37.0494	470.519	35.9011
-37.0487	470.6026	35.9207
-37.0465	467.207	35.9402
-37.0449	469.781	35.9597
-37.0433	474.582	35.9792
-37.0407	465.218	35.9988
-37.0404	468.388	36.0183
-37.0391	472.479	36.0378
-37.0377	469.315	36.0574
-37.0355	467.069	36.0769
-37.0336	471.3566	36.0964
-37.0329	469.472	36.116
-37.0306	467.2	36.1355
-37.0296	469.898	36.155
-37.02763	470.403	36.1746
-37.0259	468.018	36.1941
-37.02475	468.302	36.2136
-37.02346	471.542	36.2332
-37.0214	467.132	36.2527
-37.0192	466.276	36.2722
-37.0178	470.681	36.2917
-37.0156	469.448	36.3113
-37.0139	464.99	36.3308
-37.0127	471.022	36.3503
-37.0119	470.084	36.3699
-37.0094	466.448	36.3894
-37.0078	470.382	36.4089
-37.0056	471.293	36.4285
-37.0041	462.956	36.448
-37.0043	472.0322	36.4675
-37.0015	470.608	36.4871
-36.9998	464.504	36.5066
-36.9988	469.54	36.5261
-36.9958	474.489	36.5457
-36.9938	465.0513	36.5652
-36.992	469.0481	36.5847
-36.9913	470.545	36.6042
-36.9903	467.348	36.6238
-36.9874	466.007	36.6433
-36.9869	473.506	36.6628
-36.98497	466.8288	36.6824
-36.9835	466.042	36.7019
-36.9814	471.024	36.7214
-36.9802	469.7822	36.741
-36.9775	466.364	36.7605
-36.9775	469.635	36.78
-36.9753	470.094	36.7996
-36.9742	467.388	36.8191
-36.9729	468.963	36.8386
-36.9706	470.777	36.8582
-36.969	466.754	36.8777
-36.9666	465.664	36.8972
-36.9649	471.924	36.9167
-36.9637	467.707	36.9363
-36.9613	467.26	36.9558
-36.9598	470.653	36.9753
-36.9595	471.926	36.9949
-36.9579	464.051	37.0144
-36.9554	469.779	37.0339
-36.954	468.144	37.0535
-36.9524	465.708	37.073
-36.9509	470.633	37.0925
-36.9485	472.634	37.1121
-36.9472	461.149	37.1316
-36.9451	470.792	37.1511
-36.9438	471.3147	37.1707
-36.9435	466.425	37.1902
-36.9406	466.648	37.2097
-36.9398	472.824	37.2292
-36.938	467.065	37.2488
-36.93449	468.564	37.2683
-36.9346	469.42	37.2878
-36.9316	469.312	37.3074
-36.9327	466.409	37.3269
-36.9291	472.248	37.3464
-36.9284	469.896	37.366
-36.9258	464.707	37.3855
-36.9249	470.307	37.405
-36.9235	471.368	37.4246
-36.92107	466.478	37.4441
-36.9188	467.429	37.4636
-36.9187	470.029	37.4832
-36.9169	466.604	37.5027
-36.9145	467.585	37.5222
-36.9129	471.785	37.5417
-36.91124	468.386	37.5613
-36.9102	464.5899	37.5808
-36.9092	472.439	37.6003
-36.9066	469.361	37.6199
-36.9049	463.395	37.6394
-36.9042	469.763	37.6589
-36.9022	471.834	37.6785
-36.9006	463.653	37.698
-36.8985	472.4577	37.7175
-36.8968	468.122	37.7371
-36.8946	465.424	37.7566
-36.8946	469.196	37.7761
-36.8913	473.294	37.7957
-36.8915	463.825	37.8152
-36.889	468.923	37.8347
-36.8864	470.817	37.8542
-36.8864	467.584	37.8738
-36.88467	466.541	37.8933
-36.8824	471.368	37.9128
-36.8805	467.366	37.9324
-36.8789	466.016	37.9519
-36.876	470.31	37.9714
-36.8764	469.803	37.991
-36.8741	465.66	38.0105
-36.8721	469.251	38.03
-36.8697	470.518	38.0496
-36.869	465.697	38.0691
-36.8684	466.396	38.0886
-36.8663	470.51	38.1082
-36.8642	467.5217	38.1277
-36.8632	464.441	38.1472
-36.8611	469.619	38.1667
-36.8589	465.928	38.1863
-36.8574	464.854	38.2058
-36.8574	470.877	38.2253
-36.855	468.218	38.2449
-36.8535	462.94	38.2644
-36.8516	472.866	38.2839
-36.85	468.168	38.3035
-36.8468	463.974	38.323
-36.8471	467.985	38.3425
-36.845	473.248	38.3621
-36.8437	462.391	38.3816
-36.8424	468.982	38.4011
-36.839	470.285	38.4207
-36.8387	464.792	38.4402
-36.8368	467.816	38.4597
-36.834	474.942	38.4792
-36.8327	464.002	38.4988
-36.8317	465.444	38.5183
-36.8298	469.49	38.5378
-36.82859	469.674	38.5574
-36.82674	467.12	38.5769
-36.8256	469.879	38.5964
-36.8233	467.242	38.616
-36.8218	465.045	38.6355
-36.8203	468.606	38.655
-36.819	469.049	38.6746
-36.8173	464.163	38.6941
-36.8158	466.422	38.7136
-36.813	470.828	38.7332
-36.8124	465.142	38.7527
-36.8108	465.392	38.7722
-36.8095	468.529	38.7917
-36.8085	466.5206	38.8113
-36.8058	463.208	38.8308
-36.80336	470.573	38.8503
-36.8026	467.036	38.8699
-36.8009	464.176	38.8894
-36.798	470.944	38.9089
-36.7977	470.4736	38.9285
-36.7956	461.085	38.948
-36.7947	471.052	38.9675
-36.794	469.6358	38.9871
-36.7905	464.43	39.0066
-36.79081	467.361	39.0261
-36.7884	471.72	39.0457
-36.7864	463.973	39.0652
-36.7851	467.124	39.0847
-36.7826	469.972	39.1042
-36.7808	465.583	39.1238
-36.7792	465.429	39.1433
-36.778	471.6286	39.1628
-36.7755	465.748	39.1824
-36.77499	464.441	39.2019
-36.7732	467.771	39.2214
-36.7702	468.469	39.241
-36.7701	464.644	39.2605
-36.7683	467.757	39.28
-36.76609	468.12	39.2996
-36.7648	465.017	39.3191
-36.7632	467.603	39.3386
-36.76228	469.07	39.3582
-36.7598	466.386	39.3777
-36.75956	463.086	39.3972
-36.7571	471.204	39.4167
-36.7554	465.831	39.4363
-36.7539	464.546	39.4558
-36.7523	468.778	39.4753
-36.75	468.309	39.4949
-36.7485	462.039	39.5144
-36.7476	471.434	39.5339
-36.7457	466.622	39.5535
-36.7435	464.339	39.573
-36.74247	468.788	39.5925
-36.7399	471.24	39.6121
-36.7393	459.776	39.6316
-36.738	468.1723	39.6511
-36.7357	468.666	39.6707
-36.7343	465.823	39.6902
-36.7321	465.116	39.7097
-36.7313	472.353	39.7292
-36.7282	463.018	39.7488
-36.7272	465.715	39.7683
-36.726	467.965	39.7878
-36.7243	466.498	39.8074
-36.723	463.877	39.8269
-36.7213	470.817	39.8464
-36.7193	467.903	39.866
-36.7181	464.27	39.8855
-36.716	467.363	39.905
-36.7147	467.538	39.9246
-36.7123	466.103	39.9441
-36.7109	465.969	39.9636
-36.7101	469.302	39.9832
-36.7084	463.769	40.0027
-36.7079	465.07	40.0125

Data Header:			0.254_hd_dimension_typeiv_4545_r0			Time:	44.5056	s	4/13/2019 8:23:31 PM
Data Acquisition:	Timed
Station Name:	ft40.cfg
Test File Name:	monotonic_0.2540_typeiv_hd_4545_dimension.tst
Displacement	Force	Running Time
mm	N	s
-36.7057	465.698	40.0222
-36.7058	465.232	40.032
-36.7048	470.108	40.0417
-36.70417	470.419	40.0515
-36.7045	467.9227	40.0613
-36.7017	464.061	40.071
-36.702	461.4	40.0808
-36.7011	467.351	40.0906
-36.6997	469.913	40.1003
-36.6989	470.957	40.1101
-36.6979	468.2991	40.1199
-36.6979	464.595	40.1296
-36.6971	464.474	40.1394
-36.6961	463.641	40.14917
-36.6956	467.268	40.1589
-36.6939	470.142	40.1687
-36.6945	469.9917	40.1785
-36.6925	464.49	40.1882
-36.692	461.271	40.198
-36.6916	462.017	40.2078
-36.691	469.433	40.2175
-36.6904	470.307	40.2273
-36.6891	468.713	40.2371
-36.6876	466.398	40.2468
-36.6869	463.418	40.2566
-36.6854	463.383	40.2664
-36.68544	467.2655	40.2761
-36.6847	468.259	40.2859
-36.6842	472.462	40.2957
-36.6822	466.6915	40.30542
-36.6824	462.3208	40.3152
-36.681	462.041	40.325
-36.6809	465.585	40.3347
-36.6792	471.052	40.3445
-36.6785	468.196	40.3542
-36.6782	467.502	40.364
-36.6763	466.139	40.3738
-36.6759	463.1626	40.3835
-36.6753	463.551	40.3933
-36.675	463.636	40.4031
-36.6747	470.399	40.4128
-36.6735	469.349	40.4226
-36.6712	464.144	40.4324
-36.6705	464.023	40.4421
-36.6709	464.459	40.4519
-36.6694	464.567	40.46167
-36.6699	468.81	40.4714
-36.668	465.554	40.4812
-36.6671	468.175	40.491
-36.6672	466.122	40.5007
-36.6653	464.386	40.5105
-36.6653	463.273	40.5203
-36.66441	466.736	40.53
-36.6629	469.846	40.5398
-36.6618	467.129	40.5496
-36.6618	466.153	40.5593
-36.66153	463.351	40.5691
-36.6605	465.401	40.5789
-36.6591	464.567	40.5886
-36.6593	467.474	40.5984
-36.6573	469.59	40.6082
-36.6565	468.533	40.61792
-36.6566	465.08	40.6277
-36.65424	459.899	40.6375
-36.65411	464.048	40.6472
-36.6525	466.065	40.657
-36.6525	470.116	40.6667
-36.6511	469.709	40.6765
-36.6515	462.951	40.6863
-36.6508	464.814	40.696
-36.6499	463.321	40.7058
-36.6494	463.647	40.7156
-36.6473	470.064	40.7253
-36.6457	468.891	40.7351
-36.6453	468.843	40.7449
-36.6459	463.8	40.7546
-36.6452	459.432	40.7644
-36.644	464.4	40.77417
-36.6435	469.37	40.7839
-36.6435	471.342	40.7937
-36.6411	466.4035	40.8035
-36.6399	462.533	40.8132
-36.6398	463.453	40.823
-36.6392	461.13	40.8328
-36.6377	465.563	40.8425
-36.6369	469.254	40.8523
-36.63612	469.811	40.8621
-36.6361	465.007	40.8718
-36.6345	460.181	40.8816
-36.63422	461.126	40.8914
-36.6328	468.23	40.9011
-36.63205	468.171	40.9109
-36.6319	467.118	40.9207
-36.6309	466.309	40.93042
-36.63026	463.496	40.9402
-36.6296	462.518	40.95
-36.6281	464.495	40.9597
-36.6277	468.091	40.9695
-36.6271	470.678	40.9792
-36.6253	466.403	40.989
-36.6247	463.026	40.9988
-36.6254	462.065	41.0085
-36.6232	462.322	41.0183
-36.622	466.954	41.0281
-36.62085	466.383	41.0378
-36.6208	467.164	41.0476
-36.6189	464.575	41.0574
-36.6204	462.6633	41.0671
-36.6181	463.279	41.0769
-36.6167	462.243	41.08667
-36.6162	467.501	41.0964
-36.6151	468.685	41.1062
-36.6149	465.469	41.116
-36.6148	463.252	41.1257
-36.6138	460.774	41.1355
-36.6133	464.535	41.1453
-36.6116	465.95	41.155
-36.6109	465.076	41.1648
-36.6099	466.317	41.1746
-36.6096	465.575	41.1843
-36.6081	463.111	41.1941
-36.608	461.2644	41.2039
-36.608	461.551	41.2136
-36.6067	468.39	41.2234
-36.6053	467.2114	41.2332
-36.6055	465.878	41.24292
-36.6042	462.35	41.2527
-36.6034	461.377	41.2625
-36.6017	461.695	41.2722
-36.6018	463.7641	41.282
-36.6007	466.339	41.2917
-36.5994	468.288	41.3015
-36.5996	465.714	41.3113
-36.5987	459.691	41.321
-36.5963	460.183	41.3308
-36.5968	463.078	41.3406
-36.5959	468.023	41.3503
-36.5951	468.0636	41.3601
-36.5939	463.854	41.3699
-36.5928	463.3385	41.3796
-36.5925	460.879	41.3894
-36.5915	461.991	41.39917
-36.5911	465.976	41.4089
-36.5897	467.892	41.4187
-36.59	469.437	41.4285
-36.5888	461.148	41.4382
-36.5887	457.767	41.448
-36.58662	461.589	41.4578
-36.58601	466.463	41.4675
-36.58569	469.309	41.4773
-36.5853	464.744	41.4871
-36.5835	462.761	41.4968
-36.5824	461.389	41.5066
-36.5817	459.175	41.5164
-36.5816	463.298	41.5261
-36.5801	465.81	41.5359
-36.5787	468.359	41.5457
-36.5786	465.035	41.55542
-36.5776	458.665	41.5652
-36.5766	460.384	41.575
-36.57679	463.066	41.5847
-36.576	465.528	41.5945
-36.5746	466.199	41.6042
-36.5746	464.898	41.614
-36.5726	462.447	41.6238
-36.5722	462.04	41.6335
-36.5721	460.112	41.6433
-36.5702	462.8811	41.6531
-36.5695	466.445	41.6628
-36.5686	465.857	41.6726
-36.568	462.647	41.6824
-36.5675	458.808	41.6921
-36.5669	460.868	41.7019
-36.5661	463.233	41.71167
-36.5651	463.698	41.7214
-36.5632	464.656	41.7312
-36.5634	462.281	41.741
-36.564	462.54	41.7507
-36.562	461.296	41.7605
-36.5604	459.182	41.7703
-36.5608	463.465	41.78
-36.5601	465.724	41.7898
-36.5602	463.889	41.7996
-36.5571	462.8454	41.8093
-36.5564	458.32	41.8191
-36.555	460.857	41.8289
-36.5547	461.242	41.8386
-36.5551	462.271	41.8484
-36.5532	465.687	41.8582
-36.5537	464.337	41.86792
-36.5513	460.759	41.8777
-36.551	456.2486	41.8875
-36.5483	457.206	41.8972
-36.5496	462.997	41.907
-36.5485	464.191	41.9167
-36.5473	464.842	41.9265
-36.54752	458.943	41.9363
-36.5463	457.16	41.946
-36.5446	456.965	41.9558
-36.5449	458.726	41.9656
-36.5443	463.111	41.9753
-36.5426	465.617	41.9851
-36.5435	460.537	41.9949
-36.5411	457.097	42.0046
-36.5406	455.83	42.0144
-36.5403	456.857	42.02417
-36.5395	464.48	42.0339
-36.5385	462.902	42.0437
-36.5377	460.426	42.0535
-36.5371	457.139	42.0632
-36.5359	455.893	42.073
-36.5353	456.434	42.0828
-36.5348	459.1467	42.0925
-36.5323	460.985	42.1023
-36.5324	464.456	42.1121
-36.5326	455.285	42.1218
-36.52998	452.2515	42.1316
-36.529	454.332	42.1414
-36.5295	458.372	42.1511
-36.5281	461.333	42.1609
-36.5265	458.252	42.1707
-36.5265	457.403	42.18042
-36.5259	453.175	42.1902
-36.525	452.351	42.2
-36.5248	455.933	42.2097
-36.52449	454.746	42.2195
-36.5225	460.088	42.2292
-36.5209	459.048	42.239
-36.5212	449.167	42.2488
-36.5194	450.049	42.2585
-36.5195	450.463	42.2683
-36.5176	451.679	42.2781
-36.5174	451.3689	42.2878
-36.5125	38.2191	42.2976
-36.5127	-23.2812	42.3074
-36.5125	-47.6901	42.3171
-36.5118	-61.5821	42.3269
-36.5109	-38.0171	42.33667
-36.5116	-34.3647	42.3464
-36.5109	-39.7212	42.3562
-36.5111	-41.261	42.366
-36.5098	-44.202	42.3757
-36.5091	-44.6726	42.3855
-36.5081	-42.8288	42.3953
-36.5081	-40.5251	42.405
-36.5071	-40.387	42.4148
-36.5062	-41.2121	42.4246
-36.5048	-39.3854	42.4343
-36.50491	-44.4399	42.4441
-36.5031	-47.7035	42.4539
-36.5024	-41.9635	42.4636
-36.5027	-39.6907	42.4734
-36.5013	-38.4883	42.4832
-36.5001	-40.6185	42.49292
-36.4987	-44.9399	42.5027
-36.4978	-43.1375	42.5125
-36.4976	-44.5345	42.5222
-36.4972	-43.8962	42.532
-36.4964	-38.816	42.5417
-36.4954	-38.2707	42.5515
-36.49453	-42.367	42.5613
-36.4928	-46.37429	42.571
-36.4926	-46.8749	42.5808
-36.4927	-42.00135	42.5906
-36.4913	-37.6947	42.6003
-36.4893	-36.9777	42.6101
-36.4899	-42.6934	42.6199
-36.4891	-44.2434	42.6296
-36.4872	-45.41526	42.6394
-36.4872	-44.5297	42.64917
-36.486	-39.5967	42.6589
-36.4861	-37.46608	42.6687
-36.48521	-38.9309	42.6785
-36.4831	-42.9461	42.6882
-36.4823	-47.6691	42.698
-36.4827	-45.8691	42.7078
-36.4825	-39.7198	42.7175
-36.4803	-39.1594	42.7273
-36.48064	-40.5763	42.7371
-36.47921	-41.7704	42.7468
-36.4779	-45.0478	42.7566
-36.4768	-45.0646	42.7664
-36.4771	-41.73518	42.7761
-36.4755	-39.9622	42.7859
-36.4765	-36.7468	42.7957
-36.4742	-41.203	42.80542
-36.47427	-45.4403	42.8152
-36.4726	-44.83477	42.825
-36.4711	-43.0891	42.8347
-36.4713	-39.6655	42.8445
-36.4706	-41.0357	42.8542
-36.4688	-40.93578	42.864
-36.4688	-44.01881	42.8738
-36.4666	-45.2137	42.8835
-36.4676	-43.3867	42.8933
-36.4659	-43.6861	42.9031
-36.4658	-39.0351	42.9128
-36.4651	-39.2799	42.9226
-36.4635	-42.5982	42.9324
-36.4625	-45.168	42.9421
-36.4624	-45.5693	42.9519
-36.4619	-41.6995	42.96167
-36.4603	-40.17128	42.9714
-36.4599	-42.5187	42.9812
-36.4581	-41.5365	42.991
-36.4592	-43.17733	43.0007
-36.4577	-44.9413	43.0105
-36.4564	-46.1135	43.0203
-36.4554	-42.9299	43.03
-36.4554	-37.3366	43.0398
-36.4545	-41.6766	43.0496
-36.4526	-42.6764	43.0593
-36.4529	-45.4751	43.0691
-36.452	-45.4928	43.0789
-36.45071	-43.7245	43.0886
-36.4508	-42.925	43.0984
-36.4485	-39.9967	43.1082
-36.4487	-40.1978	43.11792
-36.4486	-42.077	43.1277
-36.4469	-46.6613	43.1375
-36.4463	-46.06216	43.1472
-36.4465	-41.7631	43.157
-36.4439	-37.2449	43.1667
-36.4437	-39.9679	43.1765
-36.4426	-44.3447	43.1863
-36.4413	-44.5863	43.196
-36.4411	-44.94701	43.2058
-36.4403	-43.49086	43.2156
-36.4388	-39.6546	43.2253
-36.439	-38.9306	43.2351
-36.4388	-39.0636	43.2449
-36.4364	-45.9405	43.2546
-36.4366	-48.06	43.2644
-36.435	-44.8601	43.27417
-36.43523	-40.0046	43.2839
-36.4336	-36.4834	43.2937
-36.4332	-42.7831	43.3035
-36.4324	-45.0832	43.3132
-36.4314	-45.6298	43.323
-36.4299	-46.8621	43.3328
-36.4292	-41.4391	43.3425
-36.4281	-40.6073	43.3523
-36.4283	-38.7796	43.3621
-36.4266	-41.6499	43.3718
-36.4257	-47.6028	43.3816
-36.4242	-47.4727	43.3914
-36.4246	-41.4348	43.4011
-36.4239	-39.7504	43.4109
-36.4231	-39.586	43.4207
-36.4229	-43.9291	43.43042
-36.421	-45.0894	43.4402
-36.4218	-45.38855	43.45
-36.4195	-44.2869	43.4597
-36.4191	-42.4951	43.4695
-36.4179	-38.8814	43.4792
-36.4178	-40.6185	43.489
-36.41674	-45.2975	43.4988
-36.41531	-47.9002	43.5085
-36.4152	-43.9743	43.5183
-36.4138	-39.256	43.5281
-36.41423	-41.0727	43.5378
-36.4127	-41.5809	43.5476
-36.4124	-44.0736	43.5574
-36.4106	-43.2321	43.5671
-36.4105	-45.2551	43.5769
-36.409	-46.33704	43.58667
-36.4085	-40.55732	43.5964
-36.4073	-40.9559	43.6062
-36.408	-42.9581	43.616
-36.4061	-43.9144	43.6257
-36.4056	-47.2178	43.6355
-36.4044	-42.0866	43.6453
-36.4036	-42.1107	43.655
-36.4029	-42.2005	43.6648
-36.4019	-40.1921	43.6746
-36.401	-43.5209	43.6843
-36.401	-44.0192	43.6941
-36.3984	-47.6392	43.7039
-36.399	-44.8663	43.7136
-36.3983	-39.6548	43.7234
-36.3969	-38.5944	43.7332
-36.3966	-41.59816	43.74292
-36.3954	-45.4421	43.7527
-36.39489	-45.38	43.7625
-36.3942	-42.5087	43.7722
-36.3922	-43.46265	43.782
-36.3914	-40.0595	43.7917
-36.3911	-38.4395	43.8015
-36.3903	-42.9429	43.8113
-36.3893	-46.7002	43.821
-36.3886	-46.9179	43.8308
-36.3884	-43.5215	43.8406
-36.3862	-37.3234	43.8503
-36.3862	-39.4327	43.8601
-36.3862	-43.01516	43.8699
-36.3852	-44.6855	43.8796
-36.3845	-46.3338	43.8894
-36.3835	-45.3109	43.89917
-36.3831	-40.2896	43.9089
-36.3818	-37.7633	43.9187
-36.3805	-38.9832	43.9285
-36.3797	-45.9353	43.9382
-36.3799	-47.6046	43.948
-36.379	-45.7272	43.9578
-36.3775	-39.2815	43.9675
-36.3765	-36.621	43.9773
-36.3758	-41.6662	43.9871
-36.376	-42.5852	43.9968
-36.3742	-44.5811	44.0066
-36.3731	-46.2284	44.0164
-36.3736	-40.7974	44.0261
-36.371	-41.5217	44.0359
-36.3708	-38.3913	44.0457
-36.3705	-42.1181	44.05542
-36.3695	-47.446	44.0652
-36.36834	-45.1608	44.075
-36.368	-43.3538	44.0847
-36.3667	-39.059	44.0945
-36.3667	-39.8177	44.1042
-36.3668	-42.6691	44.114
-36.3649	-43.225	44.1238
-36.3633	-43.7557	44.1335
-36.3625	-44.8882	44.1433
-36.36274	-42.9678	44.1531
-36.3613	-40.6007	44.1628
-36.3592	-38.9793	44.1726
-36.35973	-43.6822	44.1824
-36.3591	-45.38913	44.1921
-36.3583	-45.0519	44.2019
-36.3578	-42.5982	44.21167
-36.3566	-40.3642	44.2214
-36.3564	-40.7589	44.2312
-36.3552	-42.296	44.241
-36.3545	-42.4279	44.2507
-36.3522	-46.1908	44.2605
-36.3524	-45.0818	44.2703
-36.3516	-42.0711	44.28
-36.35009	-39.2595	44.2898
-36.349	-40.8242	44.2996
-36.3491	-43.8544	44.3093
-36.3487	-46.8341	44.3191
-36.34729	-43.3138	44.3289
-36.3464	-43.72073	44.3386
-36.3463	-40.6257	44.3484
-36.3445	-40.2092	44.3582
-36.3447	-42.2862	44.36792
-36.3439	-41.7638	44.3777
-36.34341	-47.3474	44.3875
-36.3417	-46.6631	44.3972
-36.3415	-40.572	44.407
-36.3413	-38.1457	44.4167
-36.3391	-38.4176	44.4265
-36.3387	-45.5649	44.4363
-36.3384	-46.3067	44.446
-36.3364	-44.0816	44.4558
-36.3365	-46.0897	44.4656
-36.3357	-39.8948	44.4753
-36.3348	-38.2467	44.4851
-36.3342	-40.7781	44.4949