File: data/processed_data_files/tensile/0.254_hd_uprint_typei_090_r(3).dat
MTS793|BTW|ENU|1|2|.|/|:|1|0|0|A

Data Header:			0.254_hd_uprint_typei_090_r0			Time:	20.0173	s	4/15/2019 3:52:46 PM
Data Acquisition:	Timed
Station Name:	ft40.cfg
Test File Name:	monotonic_0.2540_typei_hd_090_uprint.tst
Displacement	Force	Running Time
mm	N	s
9.980257	-186.039	0.0219727
9.98036	-191.617	0.0415039
9.98071	-193.725	0.0610352
9.98346	-188.718	0.0805664
9.98514	-182.455	0.100098
9.98598	-195.415	0.119629
9.98768	-188.467	0.13916
9.98974	-183.036	0.158691
9.99123	-188.2608	0.178223
9.992692	-184.9326	0.197754
9.9942	-180.5753	0.217285
9.99669	-190.831	0.236816
9.99751	-186.524	0.256348
9.99886	-180.681	0.275879
10.0006	-180.2885	0.29541
10.0019	-186.103	0.314941
10.0035	-177.953	0.334473
10.005	-178.7397	0.354004
10.0067	-181.946	0.373535
10.008	-181.025	0.393066
10.0106	-175.546	0.412598
10.0122	-181.101	0.432129
10.01411	-178.389	0.45166
10.0157	-174.5403	0.471191
10.0176	-176.942	0.490723
10.018	-180.163	0.510254
10.0206	-171.025	0.529785
10.0209	-174.122	0.549316
10.0234	-178.0435	0.568848
10.0244	-171.454	0.588379
10.0265	-171.109	0.60791
10.0289	-175.649	0.627441
10.0298	-169.673	0.646973
10.0318	-166.944	0.666504
10.0332	-175.5631	0.686035
10.0337	-168.839	0.705566
10.0365	-165.766	0.725098
10.0387	-171.681	0.744629
10.0396	-169.749	0.76416
10.0405	-159.628	0.783691
10.0433	-170.703	0.803223
10.0446	-166.077	0.822754
10.0461	-161.23	0.842285
10.048	-164.233	0.861816
10.0495	-166.966	0.881348
10.0504	-156.614	0.900879
10.053	-163.8773	0.92041
10.0535	-162.9537	0.939941
10.05621	-158.536	0.959473
10.0579	-155.125	0.979004
10.0586	-163.77	0.998535
10.061	-156.5094	1.01807
10.0622	-156.366	1.0376
10.0642	-157.4227	1.05713
10.0647	-158.415	1.07666
10.0666	-151.406	1.09619
10.0691	-158.353	1.11572
10.0703	-155.399	1.13525
10.0717	-149.2386	1.15479
10.0735	-151.1232	1.17432
10.07656	-157.14	1.19385
10.0774	-147.22	1.21338
10.079	-147.134	1.23291
10.0801	-155.843	1.25244
10.0826	-148.109	1.27197
10.08382	-145.095	1.2915
10.0847	-151.004	1.31104
10.0862	-145.087	1.33057
10.0886	-139.8477	1.3501
10.0903	-150.038	1.36963
10.0907	-144.218	1.38916
10.0933	-139.173	1.40869
10.0951	-142.916	1.42822
10.0968	-145.061	1.44775
10.098	-135.626	1.46729
10.0998	-142.6302	1.48682
10.1017	-141.623	1.50635
10.1028	-135.699	1.52588
10.1043	-135.834	1.54541
10.1066	-141.44	1.56494
10.1076	-130.459	1.58447
10.1114	-133.45	1.604
10.1115	-138.866	1.62354
10.1131	-134.577	1.64307
10.1152	-126.304	1.6626
10.1163	-135.844	1.68213
10.1177	-130.349	1.70166
10.1188	-129.677	1.72119
10.1214	-130.65	1.74072
10.1232	-131.216	1.76025
10.123	-123.116	1.77979
10.1261	-127.687	1.79932
10.1276	-130.404	1.81885
10.1306	-123.014	1.83838
10.1309	-121.516	1.85791
10.1318	-129.289	1.87744
10.1345	-121.235	1.89697
10.136	-117.507	1.9165
10.1376	-126.381	1.93604
10.1384	-122.177	1.95557
10.1401	-115.8823	1.9751
10.14211	-122.939	1.99463
10.14433	-119.457	2.01416
10.1454	-110.019	2.03369
10.1462	-120.88	2.05322
10.1482	-118.218	2.07275
10.1503	-110.392	2.09229
10.1517	-111.864	2.11182
10.1541	-114.704	2.13135
10.1551	-107.397	2.15088
10.1566	-112.621	2.17041
10.1587	-113.916	2.18994
10.1587	-107.694	2.20947
10.1616	-105.399	2.229
10.1631	-113.708	2.24854
10.1651	-105.021	2.26807
10.1664	-103.058	2.2876
10.169	-107.074	2.30713
10.1691	-108.6511	2.32666
10.1727	-97.5484	2.34619
10.1726	-104.7697	2.36572
10.1742	-102.0253	2.38525
10.1767	-100.004	2.40479
10.178	-99.697	2.42432
10.1791	-103.1815	2.44385
10.1813	-91.6374	2.46338
10.1832	-94.2874	2.48291
10.1845	-101.052	2.50244
10.1864	-95.6011	2.52197
10.1875	-89.9024	2.5415
10.18893	-99.0036	2.56104
10.1911	-93.6398	2.58057
10.1929	-86.3053	2.6001
10.1943	-95.2857	2.61963
10.1964	-92.0955	2.63916
10.1969	-84.66066	2.65869
10.1994	-91.7145	2.67822
10.1996	-91.474	2.69775
10.2018	-79.2599	2.71729
10.2038	-86.4906	2.73682
10.2051	-89.2132	2.75635
10.2075	-79.78595	2.77588
10.2083	-80.28772	2.79541
10.2102	-87.2376	2.81494
10.2126	-76.6846	2.83447
10.2131	-80.992	2.854
10.2155	-82.6651	2.87354
10.21777	-78.3917	2.89307
10.2189	-73.1611	2.9126
10.22	-81.1729	2.93213
10.2217	-75.9227	2.95166
10.223	-71.9179	2.97119
10.2257	-75.18071	2.99072
10.2266	-76.9881	3.01025
10.2285	-65.6124	3.02979
10.23	-71.4886	3.04932
10.232	-71.5048	3.06885
10.23327	-67.4555	3.08838
10.2343	-64.3418	3.10791
10.2356	-71.7449	3.12744
10.2385	-62.6161	3.14697
10.2402	-63.5414	3.1665
10.2409	-69.4292	3.18604
10.2434	-66.6317	3.20557
10.2444	-57.1072	3.2251
10.2465	-66.9158	3.24463
10.2471	-61.3906	3.26416
10.2494	-54.83881	3.28369
10.251	-64.12249	3.30322
10.2544	-64.5281	3.32275
10.2542	-53.9752	3.34229
10.2549	-58.1688	3.36182
10.2564	-61.9947	3.38135
10.2595	-49.732	3.40088
10.2609	-54.0422	3.42041
10.262	-57.8987	3.43994
10.2641	-51.0685	3.45947
10.2658	-47.8942	3.479
10.2667	-55.32523	3.49854
10.2685	-46.471	3.51807
10.27014	-46.0531	3.5376
10.2726	-50.78138	3.55713
10.2741	-49.8367	3.57666
10.2752	-41.398	3.59619
10.2781	-46.5177	3.61572
10.2784	-47.5351	3.63525
10.2804	-41.8489	3.65479
10.2821	-40.6416	3.67432
10.2832	-47.1629	3.69385
10.2858	-36.5931	3.71338
10.2869	-38.2555	3.73291
10.288	-40.6025	3.75244
10.291	-37.09573	3.77197
10.292	-30.114	3.7915
10.2932	-42.3712	3.81104
10.2952	-34.7057	3.83057
10.2962	-29.05407	3.8501
10.2985	-34.6855	3.86963
10.3001	-35.2791	3.88916
10.3013	-25.4661	3.90869
10.3031	-32.65554	3.92822
10.3055	-31.7479	3.94775
10.3063	-23.4992	3.96729
10.3082	-29.5734	3.98682
10.3096	-32.5059	4.00635
10.3112	-21.3883	4.02588
10.3127	-22.0076	4.04541
10.3143	-29.6079	4.06494
10.3167	-18.7229	4.08447
10.3168	-20.9935	4.104
10.3192	-25.4218	4.12354
10.32134	-19.887	4.14307
10.3228	-15.9717	4.1626
10.3246	-23.2111	4.18213
10.3262	-14.60362	4.20166
10.3276	-13.9827	4.22119
10.3301	-17	4.24072
10.32967	-19.5372	4.26025
10.333	-8.24825	4.27979
10.3344	-12.4783	4.29932
10.3363	-15.9572	4.31885
10.3367	-10.1557	4.33838
10.33764	-6.85472	4.35791
10.3402	-15.1982	4.37744
10.3418	-5.45267	4.39697
10.3435	-3.42205	4.4165
10.3456	-10.5456	4.43604
10.34797	-8.37296	4.45557
10.3498	2.67906	4.4751
10.3504	-8.5441	4.49463
10.3517	-4.45017	4.51416
10.3541	4.24436	4.53369
10.35559	-2.2653	4.55322
10.3577	-5.47901	4.57275
10.3593	6.43817	4.59229
10.3606	1.982	4.61182
10.3614	-1.66095	4.63135
10.3644	8.09016	4.65088
10.3652	5.09827	4.67041
10.3668	-1.84768	4.68994
10.3686	7.65753	4.70947
10.37012	11.3444	4.729
10.371	3.215605	4.74854
10.3729	9.80055	4.76807
10.3755	13.3333	4.7876
10.3763	6.85149	4.80713
10.37808	11.5092	4.82666
10.38	19.2132	4.84619
10.3818	9.21763	4.86572
10.3825	13.2586	4.88525
10.3851	19.7747	4.90479
10.3873	18.6047	4.92432
10.3882	12.8664	4.94385
10.3899	23.5051	4.96338
10.3905	22.6222	4.98291
10.3927	17.8081	5.00244
10.3946	22.1423	5.02197
10.39574	28.1327	5.0415
10.3982	17.8731	5.06104
10.4001	26.9703	5.08057
10.4018	30.9083	5.1001
10.4025	22.427	5.11963
10.4027	23.0358	5.13916
10.4056	36.0185	5.15869
10.4075	27.1149	5.17822
10.4094	28.02	5.19775
10.4104	37.3667	5.21729
10.41232	31.5476	5.23682
10.4134	28.9552	5.25635
10.415	41.1868	5.27588
10.4165	36.2796	5.29541
10.4193	31.0891	5.31494
10.4208	41.7982	5.33447
10.4214	42.53632	5.354
10.4243	32.9792	5.37354
10.4258	41.6322	5.39307
10.4269	46.5736	5.4126
10.4282	37.9772	5.43213
10.4302	43.99099	5.45166
10.4316	46.8398	5.47119
10.4326	41.5389	5.49072
10.4339	42.6059	5.51025
10.43581	52.0656	5.52979
10.4385	45.09948	5.54932
10.4398	45.7471	5.56885
10.441	50.4744	5.58838
10.44281	54.18095	5.60791
10.445	45.2389	5.62744
10.4455	55.7148	5.64697
10.4483	57.1136	5.6665
10.45	52.392	5.68604
10.45063	53.2931	5.70557
10.4537	62.4241	5.7251
10.4551	50.9136	5.74463
10.4565	57.8885	5.76416
10.4582	64.7072	5.78369
10.4597	61.1669	5.80322
10.4609	55.5981	5.82275
10.4624	67.41861	5.84229
10.4645	61.0586	5.86182
10.4657	60.6428	5.88135
10.468	69.8269	5.90088
10.46887	67.3832	5.92041
10.4707	60.24263	5.93994
10.474	71.4273	5.95947
10.4735	72.8343	5.979
10.4758	63.7561	5.99854
10.4776	73.6447	6.01807
10.4787	76.8417	6.0376
10.4805	66.4916	6.05713
10.4821	73.4277	6.07666
10.4834	77.8086	6.09619
10.4856	73.6352	6.11572
10.4872	75.0772	6.13525
10.4888	81.3412	6.15479
10.4902	76.895	6.17432
10.4916	74.2982	6.19385
10.4929	86.2774	6.21338
10.4948	83.6496	6.23291
10.4969	77.1281	6.25244
10.4988	81.2512	6.27197
10.5002	88.2697	6.2915
10.501	80.13398	6.31104
10.5039	87.74836	6.33057
10.5046	89.6718	6.3501
10.5059	85.2847	6.36963
10.5079	84.1063	6.38916
10.51034	96.91227	6.40869
10.5113	85.79	6.42822
10.513	90.0334	6.44775
10.514	97.56498	6.46729
10.5164	95.7028	6.48682
10.5177	88.4844	6.50635
10.5199	101.433	6.52588
10.521	96.7498	6.54541
10.5233	95.0002	6.56494
10.5242	102.278	6.58447
10.5249	102.053	6.604
10.5279	91.3154	6.62354
10.5291	104.79	6.64307
10.5306	106.48	6.6626
10.5323	98.1796	6.68213
10.5341	103.043	6.70166
10.5358	108.589	6.72119
10.5372	102.628	6.74072
10.5395	103.715	6.76025
10.5409	111.504	6.77979
10.5417	105.378	6.79932
10.5441	106.389	6.81885
10.546	112.987	6.83838
10.5464	113.2556	6.85791
10.5497	105.5004	6.87744
10.5507	117.298	6.89697
10.552	118.478	6.9165
10.5537	112.394	6.93604
10.55545	113.813	6.95557
10.55702	120.829	6.9751
10.55803	113.56	6.99463
10.5601	119.2943	7.01416
10.56219	125.892	7.03369
10.564	119.132	7.05322
10.5659	116.317	7.07275
10.5667	130.747	7.09229
10.5674	122.619	7.11182
10.5708	121.0291	7.13135
10.5714	129.485	7.15088
10.5728	128.267	7.17041
10.5761	120.035	7.18994
10.5763	131.566	7.20947
10.5785	131.172	7.229
10.58065	126.493	7.24854
10.5813	132.291	7.26807
10.5828	138.108	7.2876
10.5841	126.098	7.30713
10.5868	134.9388	7.32666
10.5879	139.306	7.34619
10.5891	133.812	7.36572
10.5914	135.837	7.38525
10.5925	140.374	7.40479
10.5948	135.5	7.42432
10.5961	138.282	7.44385
10.5972	145.184	7.46338
10.5998	142.242	7.48291
10.6013	138.357	7.50244
10.6026	145.306	7.52197
10.6043	146.9648	7.5415
10.6057	140.077	7.56104
10.6072	146.462	7.58057
10.6096	150.5425	7.6001
10.6107	147.774	7.61963
10.6123	145.83	7.63916
10.6143	155.923	7.65869
10.61574	148.272	7.67822
10.6169	150.319	7.69775
10.6189	158.648	7.71729
10.6199	153.129	7.73682
10.6223	147.5374	7.75635
10.6232	161.5612	7.77588
10.6245	158.786	7.79541
10.62563	152.909	7.81494
10.6285	162.037	7.83447
10.6293	163.471	7.854
10.6312	153.726	7.87354
10.6325	164.726	7.89307
10.6354	166.067	7.9126
10.6367	159.272	7.93213
10.6385	165.5938	7.95166
10.6393	172.5744	7.97119
10.6425	161.908	7.99072
10.6436	165.752	8.01025
10.6437	173.997	8.02979
10.6473	168.247	8.04932
10.6473	167.4371	8.06885
10.6503	175.764	8.08838
10.6512	171.791	8.10791
10.6527	168.133	8.12744
10.6542	178.373	8.14697
10.6559	178.357	8.1665
10.6571	171.626	8.18604
10.6596	177.002	8.20557
10.6616	183.293	8.2251
10.6617	174.598	8.24463
10.6647	178.404	8.26416
10.6662	183.401	8.28369
10.6675	180.435	8.30322
10.66855	177.751	8.32275
10.67	188.647	8.34229
10.6729	182.564	8.36182
10.6734	182.395	8.38135
10.6753	190.467	8.40088
10.6776	189.229	8.42041
10.6793	180.069	8.43994
10.6806	192.993	8.45947
10.68191	192.275	8.479
10.6841	188.655	8.49854
10.6851	192.959	8.51807
10.6869	198.263	8.5376
10.6877	185.837	8.55713
10.6899	195.486	8.57666
10.6915	199.628	8.59619
10.6929	193.949	8.61572
10.6953	194.316	8.63525
10.6966	204.328	8.65479
10.6988	197.764	8.67432
10.7007	196.489	8.69385
10.70188	204.532	8.71338
10.7023	202.579	8.73291
10.705	198.6796	8.75244
10.707	207.182	8.77197
10.708	205.361	8.7915
10.7109	202.432	8.81104
10.7104	209.107	8.83057
10.7131	212.851	8.8501
10.7141	206.7587	8.86963
10.71614	207.189	8.88916
10.7173	216.352	8.90869
10.7196	208.486	8.92822
10.7208	213.24	8.94775
10.7215	216.912	8.96729
10.72433	216.019	8.98682
10.7257	209.953	9.00635
10.7276	221.372	9.02588
10.7296	217.279	9.04541
10.7316	212.349	9.06494
10.732	221.929	9.08447
10.7344	225.362	9.104
10.7352	213.497	9.12354
10.737	222.956	9.14307
10.7394	225.0034	9.1626
10.7413	220.527	9.18213
10.7429	223.356	9.20166
10.7432	230.8817	9.22119
10.7452	219.587	9.24072
10.7481	225.96	9.26025
10.7497	232.543	9.27979
10.7508	229.052	9.29932
10.7516	226.056	9.31885
10.7535	236.204	9.33838
10.755	231.783	9.35791
10.7568	228.384	9.37744
10.75843	236.177	9.39697
10.76065	237.981	9.4165
10.7614	231.501	9.43604
10.7637	237.072	9.45557
10.7648	240.353	9.4751
10.7662	233.876	9.49463
10.7673	238.248	9.51416
10.76974	246.18	9.53369
10.7708	241.35	9.55322
10.7726	236.481	9.57275
10.77459	248.36	9.59229
10.7767	244.163	9.61182
10.778	242.185	9.63135
10.7801	250.004	9.65088
10.7816	249.237	9.67041
10.7836	238.796	9.68994
10.7848	253.969	9.70947
10.7861	253.389	9.729
10.7878	245.988	9.74854
10.7898	251.972	9.76807
10.79139	258.658	9.7876
10.7919	247.506	9.80713
10.7943	253.513	9.82666
10.7957	259.467	9.84619
10.7973	255.134	9.86572
10.7988	256.887	9.88525
10.8011	264.96	9.90479
10.8027	256.369	9.92432
10.8039	256.936	9.94385
10.8056	265.834	9.96338
10.8077	264.1	9.98291
10.8092	256.862	10.0024
10.8098	267.12	10.022
10.8122	265.424	10.0415
10.8141	261.408	10.061
10.8146	267.071	10.0806
10.8164	269.224	10.1001
10.8193	262.7554	10.1196
10.8199	267.097	10.13916
10.8231	275.661	10.1587
10.8237	268.441	10.1782
10.825	266.211	10.1978
10.8279	278.546	10.2173
10.82861	275.478	10.2368
10.8308	268.121	10.2563
10.8316	279.9617	10.2759
10.8335	278.076	10.29541
10.8353	273.1767	10.3149
10.8367	281.088	10.3345
10.8383	284.7702	10.354
10.8406	271.433	10.3735
10.8411	283.0499	10.3931
10.843	287.214	10.4126
10.8448	279.594	10.4321
10.8468	282.139	10.45166
10.8481	290.754	10.4712
10.8493	281.504	10.4907
10.8505	285.92	10.5103
10.8525	291.985	10.5298
10.8544	289.411	10.5493
10.8563	287.051	10.5688
10.858	296.991	10.5884
10.8598	289.91	10.60791
10.8612	288.252	10.6274
10.8622	294.1777	10.647
10.8638	298.636	10.6665
10.8657	291.53	10.686
10.8683	297.761	10.7056
10.86818	298.967	10.7251
10.87	293.359	10.7446
10.8728	297.4722	10.76416
10.8738	304.34	10.7837
10.8757	299.122	10.8032
10.8771	297.93	10.8228
10.8795	306.309	10.8423
10.8811	302.5202	10.8618
10.8826	299.82	10.8813
10.8853	309.375	10.9009
10.8846	310.161	10.92041
10.8871	300.424	10.9399
10.8879	312.197	10.9595
10.8904	310.776	10.979
10.8915	305.436	10.9985
10.8933	313.031	11.0181
10.8951	319.87	11.0376
10.8977	305.866	11.0571
10.8985	313.45	11.07666
10.8999	319.325	11.0962
10.9017	314.493	11.1157
10.9035	312.002	11.1353
10.9052	322.91	11.1548
10.9062	313.101	11.1743
10.9078	317.656	11.1938
10.9101	324.16	11.2134
10.9115	322.516	11.23291
10.913	316.04	11.2524
10.915	326.995	11.272
10.9161	325.9516	11.2915
10.9177	320.1911	11.311
10.9197	325.122	11.3306
10.921	331.577	11.3501
10.922	323.797	11.3696
10.92418	326.703	11.38916
10.9262	332.952	11.4087
10.9275	328.0303	11.4282
10.9302	327.968	11.4478
10.9311	338.619	11.4673
10.932	332.417	11.4868
10.9338	328.302	11.5063
10.93572	336.944	11.5259
10.938	337.024	11.54541
10.9382	330.0387	11.5649
10.9402	338.565	11.5845
10.9421	342.951	11.604
10.9452	333.4	11.6235
10.9447	341.593	11.6431
10.9477	345.136	11.6626
10.94942	337.469	11.6821
10.9509	342.525	11.70166
10.9523	352.011	11.7212
10.9532	340.296	11.7407
10.9552	344.447	11.7603
10.9564	351.312	11.7798
10.9588	347.613	11.7993
10.961	344.794	11.8188
10.9621	355.072	11.8384
10.9636	347.947	11.85791
10.9651	346.736	11.8774
10.9672	354.903	11.897
10.9676	357.024	11.9165
10.9698	348.5723	11.936
10.9715	355.894	11.9556
10.973	356.8356	11.9751
10.975	355.59	11.9946
10.9772	356.69	12.01416
10.9778	362.887	12.0337
10.9788	356.985	12.0532
10.9812	357.25	12.0728
10.9824	363.959	12.0923
10.9844	361.017	12.1118
10.9865	357.321	12.1313
10.9886	367.0379	12.1509
10.9898	368.915	12.17041
10.9908	358.162	12.1899
10.99247	367.313	12.2095
10.9957	372.7377	12.229
10.9964	363.737	12.2485
10.9973	368.118	12.2681
10.9993	373.99	12.2876
11.0012	363.6879	12.3071
11.0034	371.396	12.32666
11.0048	376.873	12.3462
11.0057	369.726	12.3657
11.0072	370.7663	12.3853
11.0087	382.512	12.4048
11.0107	373.195	12.4243
11.0121	372.935	12.4438
11.0145	380.774	12.4634
11.0143	381.447	12.48291
11.0174	375.525	12.5024
11.0193	386.319	12.522
11.0201	381.304	12.5415
11.0228	378.001	12.561
11.0237	384.743	12.5806
11.0251	389.293	12.6001
11.0258	382.278	12.6196
11.0294	384.982	12.63916
11.0311	389.647	12.6587
11.0315	386.796	12.6782
11.0333	385.3555	12.6978
11.0346	394.973	12.7173
11.037	388.373	12.7368
11.03785	386.542	12.7563
11.0399	395.243	12.7759
11.0417	395.296	12.79541
11.0432	387.056	12.8149
11.0436	397.615	12.8345
11.046	401.534	12.854
11.048	388.786	12.8735
11.0497	396.802	12.8931
11.0514	402.9202	12.9126
11.05287	395.023	12.9321
11.0543	399.775	12.95166
11.0564	408.241	12.9712
11.0573	396.331	12.9907
11.0595	400.489	13.0103
11.0608	409.737	13.0298
11.0631	405.297	13.0493
11.0643	400.258	13.0688
11.0665	412.176	13.0884
11.0683	407.781	13.10791
11.069	405.947	13.1274
11.0722	410.735	13.147
11.072	413.309	13.1665
11.0747	406.034	13.186
11.0755	415.152	13.2056
11.0772	414.777	13.2251
11.0786	411.499	13.2446
11.0807	412.24	13.26416
11.0815	423.375	13.2837
11.0847	414.125	13.3032
11.0853	414.463	13.3228
11.0884	420.332	13.3423
11.08985	420.4577	13.3618
11.0905	415.569	13.3813
11.09233	424.049	13.4009
11.0937	424.2	13.42041
11.0953	415.4028	13.4399
11.0968	425.322	13.4595
11.0979	430.049	13.479
11.1004	419.547	13.4985
11.1025	426.106	13.5181
11.1034	432.357	13.5376
11.1039	422.1738	13.5571
11.1071	425.387	13.57666
11.1086	434.129	13.5962
11.1096	428.617	13.6157
11.1119	428.727	13.6353
11.113	440.24	13.6548
11.115	429.701	13.6743
11.1159	429.107	13.6938
11.1184	438.643	13.7134
11.1198	437.837	13.73291
11.1216	430.632	13.7524
11.1234	441.266	13.772
11.1236	439.564	13.7915
11.1259	435.553	13.811
11.1286	440.0065	13.8306
11.1295	445.826	13.8501
11.1315	436.535	13.8696
11.1329	441.205	13.88916
11.1342	447.27	13.9087
11.1355	443.448	13.9282
11.1377	439.448	13.9478
11.1389	452.566	13.9673
11.1415	447.104	13.9868
11.1423	444.035	14.0063
11.1432	450.188	14.0259
11.1456	451.8129	14.04541
11.1478	444.159	14.0649
11.1492	454.41	14.0845
11.1505	456.263	14.104
11.1519	445.95	14.1235
11.15406	453.734	14.1431
11.1553	460.401	14.1626
11.1572	452.371	14.1821
11.1589	451.451	14.20166
11.1602	463.181	14.2212
11.1621	454.332	14.2407
11.1643	454.937	14.2603
11.16502	465.1246	14.2798
11.1672	458.628	14.2993
11.1688	454.199	14.3188
11.1701	469.656	14.3384
11.1717	462.508	14.35791
11.1738	458.84	14.3774
11.175	467.9339	14.397
11.1759	470.568	14.4165
11.1784	461.382	14.436
11.18012	469.949	14.4556
11.1812	471.928	14.4751
11.1837	466.379	14.4946
11.1847	468.744	14.51416
11.1865	478.018	14.5337
11.1887	469.8208	14.5532
11.191	469.759	14.5728
11.192	476.454	14.5923
11.1919	475.277	14.6118
11.1945	471.2251	14.6313
11.1957	481.454	14.6509
11.1979	479.113	14.67041
11.1996	472.566	14.6899
11.20118	479.2464	14.7095
11.20219	482.323	14.729
11.2032	473.15	14.7485
11.2063	482.803	14.7681
11.2075	488.4046	14.7876
11.2089	478.4545	14.8071
11.2101	479.611	14.82666
11.21235	490.334	14.8462
11.2137	485.999	14.8657
11.2151	481.486	14.8853
11.2173	495.105	14.9048
11.2194	485.731	14.9243
11.2211	486.831	14.9438
11.2213	496.562	14.9634
11.22453	492.145	14.98291
11.2254	486.387	15.0024
11.22777	498.588	15.022
11.229	494.67	15.0415
11.2308	490.275	15.061
11.2318	495.824	15.0806
11.23427	502.532	15.1001
11.2349	493.378	15.1196
11.2365	498.938	15.13916
11.2391	502.494	15.1587
11.2398	498.376	15.1782
11.2412	495.765	15.1978
11.2432	507.807	15.2173
11.245	501.188	15.2368
11.2469	499.331	15.2563
11.2486	504.811	15.2759
11.2493	510.086	15.29541
11.251	499.765	15.3149
11.253	508.508	15.3345
11.2544	512.531	15.354
11.2564	503.9931	15.3735
11.2576	508.734	15.3931
11.2596	516.491	15.4126
11.2608	505.356	15.4321
11.26331	509.0856	15.45166
11.2646	519.1123	15.4712
11.2671	510.377	15.4907
11.26904	510.19	15.5103
11.2681	521.51	15.5298
11.2713	515.735	15.5493
11.2724	509.536	15.5688
11.2741	523.966	15.5884
11.27519	518.4787	15.60791
11.2778	513.52	15.6274
11.27913	524.188	15.647
11.2811	526.831	15.6665
11.2822	515.412	15.686
11.2845	524.6673	15.7056
11.285	525.515	15.7251
11.2867	520.632	15.7446
11.2888	520.941	15.76416
11.291	532.839	15.7837
11.2915	523.877	15.8032
11.29438	527.051	15.8228
11.2957	530.188	15.8423
11.2973	530.07	15.8618
11.2984	523.561	15.8813
11.3003	536.757	15.9009
11.3019	533.375	15.92041
11.3034	527.235	15.9399
11.3067	533.75	15.9595
11.3077	540.512	15.979
11.3076	529.613	15.9985
11.3098	536.029	16.0181
11.3117	540.798	16.0376
11.3125	533.4339	16.0571
11.3148	534.229	16.07666
11.3163	545.556	16.0962
11.31696	536.6087	16.1157
11.3199	536.438	16.1353
11.3209	547.398	16.1548
11.3226	541.08	16.1743
11.32577	537.931	16.1938
11.3255	547.921	16.2134
11.3284	546.88	16.23291
11.3294	540.623	16.2524
11.33114	551.5481	16.272
11.3331	547.365	16.2915
11.3349	542.448	16.311
11.3357	549.656	16.3306
11.3387	556.71	16.3501
11.3394	545.902	16.3696
11.341	550.958	16.38916
11.3422	554.209	16.4087
11.34471	553.426	16.4282
11.3449	548.384	16.4478
11.3462	560.1889	16.4673
11.3485	554.988	16.4868
11.3506	551.924	16.5063
11.3535	558.773	16.5259
11.3539	561.535	16.54541
11.3557	550.769	16.5649
11.3583	564.001	16.5845
11.3587	563.669	16.604
11.3603	555.962	16.6235
11.3624	560.134	16.6431
11.3628	569.82	16.6626
11.3671	559.032	16.6821
11.3676	562.22	16.70166
11.3678	571.963	16.7212
11.3707	561.9422	16.7407
11.3726	561.8479	16.7603
11.3737	574.809	16.7798
11.3752	567.65	16.7993
11.3767	562.341	16.8188
11.3786	574.692	16.8384
11.3798	570.25	16.85791
11.3813	564.123	16.8774
11.3831	575.375	16.897
11.3845	577.981	16.9165
11.3869	568.418	16.936
11.3885	578.842	16.9556
11.3899	578.7478	16.9751
11.3915	571.719	16.9946
11.3926	576.169	17.01416
11.3949	584.432	17.0337
11.3966	576.822	17.0532
11.398	578.381	17.0728
11.3999	582.786	17.0923
11.4012	582.06	17.1118
11.4024	577.243	17.1313
11.4046	590.275	17.1509
11.40574	583.496	17.17041
11.4087	580.97	17.1899
11.4097	585.31	17.2095
11.4099	589.166	17.229
11.4124	578.083	17.2485
11.4139	587.7854	17.2681
11.4157	594.403	17.2876
11.4176	586.669	17.3071
11.4188	585.287	17.32666
11.4205	597.159	17.3462
11.4226	587.177	17.3657
11.4235	589.829	17.3853
11.4256	599.036	17.4048
11.4268	590.813	17.4243
11.4291	585.769	17.4438
11.4298	600.335	17.4634
11.4312	597.915	17.48291
11.4339	589.307	17.5024
11.4357	600.582	17.522
11.4368	600.3772	17.5415
11.4382	593.289	17.561
11.4405	600.514	17.5806
11.4417	605.811	17.6001
11.4429	595.851	17.6196
11.4466	602.691	17.63916
11.44566	607.504	17.6587
11.449	602.341	17.6782
11.4503	600.878	17.6978
11.45128	612.291	17.7173
11.4534	605.924	17.7368
11.454	603.664	17.7563
11.45633	610.547	17.7759
11.4572	610.127	17.79541
11.4601	603.671	17.8149
11.4612	614.215	17.8345
11.463	614.503	17.854
11.4652	606.807	17.8735
11.4671	611.536	17.8931
11.467	619.488	17.9126
11.4692	607.117	17.9321
11.4725	612.535	17.95166
11.47205	622.1062	17.9712
11.475	614.554	17.9907
11.4752	612.7453	18.0103
11.477	624.296	18.0298
11.4798	616.06	18.0493
11.4799	614.8689	18.0688
11.4835	627.341	18.0884
11.4836	621.219	18.10791
11.4864	613.488	18.1274
11.4873	626.349	18.147
11.4891	628.375	18.1665
11.4907	617.327	18.186
11.4911	628.218	18.2056
11.4946	629.3172	18.2251
11.4957	621.869	18.2446
11.4978	627.5	18.26416
11.4983	634.01	18.2837
11.4999	625.893	18.3032
11.502	629.621	18.3228
11.5027	633.791	18.3423
11.5055	631.505	18.3618
11.507	626.9823	18.3813
11.5094	639.384	18.4009
11.5116	636.245	18.42041
11.512	632.046	18.4399
11.5124	635.559	18.4595
11.51545	640.956	18.479
11.5174	630.628	18.4985
11.5188	640.591	18.5181
11.5199	643.895	18.5376
11.5221	634.712	18.5571
11.5241	636.153	18.57666
11.5244	647.242	18.5962
11.5264	638.142	18.6157
11.5276	639.575	18.6353
11.5298	649.166	18.6548
11.5304	643.177	18.6743
11.53341	638.729	18.6938
11.5359	651.85	18.7134
11.5351	647.127	18.73291
11.53727	641.324	18.7524
11.5393	652.442	18.772
11.5416	652.104	18.7915
11.5425	642.084	18.811
11.5441	651.757	18.8306
11.5469	654.4809	18.8501
11.5483	646.874	18.8696
11.5485	652.451	18.88916
11.55137	656.396	18.9087
11.5521	648.026	18.9282
11.5538	651.9566	18.9478
11.5554	661.345	18.9673
11.5575	653.622	18.9868
11.5582	652.174	19.0063
11.5604	660.3	19.0259
11.5627	660.805	19.04541
11.5633	652.074	19.0649
11.5645	662.01	19.0845
11.5674	665.599	19.104
11.5683	657.351	19.1235
11.571	661.845	19.1431
11.5721	668.696	19.1626
11.5749	656.818	19.1821
11.5747	663.401	19.20166
11.5778	670.672	19.2212
11.5783	663.138	19.2407
11.5808	658.8327	19.2603
11.5813	674.353	19.2798
11.5853	666.444	19.2993
11.5845	665.369	19.3188
11.5861	674.617	19.3384
11.5885	673.54	19.35791
11.5891	662.381	19.3774
11.5913	677.059	19.397
11.5931	676.509	19.4165
11.5945	666.529	19.436
11.5958	674.659	19.4556
11.5976	679.734	19.4751
11.59998	667.779	19.4946
11.6007	673.786	19.51416
11.6034	681.763	19.5337
11.6045	674.256	19.5532
11.607	675.72	19.5728
11.60677	681.219	19.5923
11.609	677.83	19.6118
11.6112	675.2915	19.6313
11.6123	686.255	19.6509
11.6136	681.6922	19.67041
11.6162	677.685	19.6899
11.617	683.157	19.7095
11.6184	687.647	19.729
11.62093	677.576	19.7485
11.6218	686.653	19.7681
11.6241	690.713	19.7876
11.6261	683.82	19.8071
11.6273	684.412	19.82666
11.6292	694.946	19.8462
11.631	684.285	19.8657
11.6328	686.567	19.8853
11.6331	697.305	19.9048
11.6353	691.451	19.9243
11.6375	683.068	19.9438
11.6389	697.689	19.9634
11.6403	693.502	19.98291
11.6424	689.6463	20.0024
11.6431	691.113	20.0122

Data Header:			0.254_hd_uprint_typei_090_r0			Time:	38.1011	s	4/15/2019 3:53:04 PM
Data Acquisition:	Timed
Station Name:	ft40.cfg
Test File Name:	monotonic_0.2540_typei_hd_090_uprint.tst
Displacement	Force	Running Time
mm	N	s
11.6431	699.216	20.022
11.6448	696.598	20.0415
11.6469	688.942	20.061
11.6491	698.935	20.0806
11.6503	702.227	20.1001
11.6516	693.9223	20.1196
11.6538	698.774	20.13916
11.6558	704.01	20.1587
11.6567	696.726	20.1782
11.6584	699.2	20.1978
11.6596	706.578	20.2173
11.6612	699.131	20.2368
11.6622	700.6	20.2563
11.6655	707.622	20.2759
11.66671	706.347	20.29541
11.6674	698.544	20.3149
11.67051	709.754	20.3345
11.6706	709.143	20.354
11.6729	702.955	20.3735
11.6745	706.869	20.3931
11.6759	715.926	20.4126
11.6778	703.861	20.4321
11.6803	710.56	20.45166
11.6814	716.894	20.4712
11.6825	708.552	20.4907
11.68479	707.182	20.5103
11.6864	720.706	20.5298
11.6872	711.914	20.5493
11.6899	707.69	20.5688
11.69138	721.1731	20.5884
11.6924	718.978	20.60791
11.6945	708.213	20.6274
11.6955	722.4043	20.647
11.6978	719.408	20.6665
11.7	713.081	20.686
11.7015	720.3866	20.7056
11.7032	723.813	20.7251
11.70463	712.505	20.7446
11.7047	720.035	20.76416
11.7075	729.396	20.7837
11.7086	719.673	20.8032
11.7098	720.1521	20.8228
11.7118	727.5708	20.8423
11.7145	723.471	20.8618
11.7149	722.0943	20.8813
11.7163	730.572	20.9009
11.7183	726.211	20.92041
11.7213	722.956	20.9399
11.7226	728.3667	20.9595
11.723	733.768	20.979
11.7262	723.496	20.9985
11.7272	730.295	21.0181
11.729	736.269	21.0376
11.7288	729.157	21.0571
11.7308	727.422	21.07666
11.7329	739.566	21.0962
11.7353	729.738	21.1157
11.7367	733.462	21.1353
11.73775	741.628	21.1548
11.7395	735.539	21.1743
11.7419	726.804	21.1938
11.7433	742.469	21.2134
11.7451	737.7915	21.23291
11.7466	733.0188	21.2524
11.748	740.152	21.272
11.7488	741.638	21.2915
11.7515	731.694	21.311
11.7536	742.717	21.3306
11.7545	745.04	21.3501
11.7562	736.858	21.3696
11.7574	742.203	21.38916
11.7591	749.471	21.4087
11.761	738.239	21.4282
11.7619	740.046	21.4478
11.7638	749.221	21.4673
11.7652	744.969	21.4868
11.7676	742.465	21.5063
11.7686	748.429	21.5259
11.7707	748.232	21.54541
11.77255	743.809	21.5649
11.774	752.016	21.5845
11.7764	752.017	21.604
11.7772	745.374	21.6235
11.7782	749.188	21.6431
11.7811	757.475	21.6626
11.7824	746.637	21.6821
11.7828	751.316	21.70166
11.7857	758.428	21.7212
11.7871	752.773	21.7407
11.7883	749.4259	21.7603
11.7902	761.05	21.7798
11.7916	752.134	21.7993
11.7942	751.765	21.8188
11.7942	762.405	21.8384
11.7963	760.592	21.85791
11.79856	748.009	21.8774
11.7998	762.62	21.897
11.8026	762.332	21.9165
11.8036	753.938	21.936
11.8042	761.801	21.9556
11.80667	764.597	21.9751
11.807	752.779	21.9946
11.8094	762.386	22.01416
11.8119	767.8598	22.0337
11.8143	759.806	22.0532
11.8152	759.677	22.0728
11.8173	769.761	22.0923
11.81786	763.05	22.1118
11.8191	762.858	22.1313
11.8214	769.304	22.1509
11.8228	766.6886	22.17041
11.8236	762.576	22.1899
11.8255	769.705	22.2095
11.8277	768.797	22.229
11.829	762.677	22.2485
11.8305	772.236	22.2681
11.832	775.632	22.2876
11.8339	767.457	22.3071
11.8356	767.496	22.32666
11.8385	779.6983	22.3462
11.8397	770.441	22.3657
11.8403	771.349	22.3853
11.842	779.657	22.4048
11.8442	774.507	22.4243
11.8456	769.13	22.4438
11.8474	782.392	22.4634
11.8488	776.248	22.48291
11.85085	771.434	22.5024
11.8517	780.494	22.522
11.8537	782.9856	22.5415
11.8547	768.5022	22.561
11.8561	781.235	22.5806
11.8583	783.316	22.6001
11.8596	777.8548	22.6196
11.8615	780.322	22.63916
11.8626	786.658	22.6587
11.866	775.6311	22.6782
11.8662	780.4483	22.6978
11.8686	788.553	22.7173
11.8696	782.158	22.7368
11.8715	778.057	22.7563
11.8724	788.341	22.7759
11.8761	784.2442	22.79541
11.8763	781.579	22.8149
11.8778	788.901	22.8345
11.88067	789.775	22.854
11.8817	783.568	22.8735
11.8822	786.602	22.8931
11.885	790.974	22.9126
11.8859	784.48	22.9321
11.8877	787.893	22.95166
11.8899	794.509	22.9712
11.8911	788.677	22.9907
11.8932	783.144	23.0103
11.8935	797.085	23.0298
11.896	791.511	23.0493
11.898	789	23.0688
11.8987	797.216	23.0884
11.9003	794.31	23.10791
11.90303	785.933	23.1274
11.90386	799.154	23.147
11.9061	798.72	23.1665
11.908	789.822	23.186
11.9083	797.406	23.2056
11.9106	803.127	23.2251
11.9118	790.92	23.2446
11.9139	797.98	23.26416
11.9147	802.121	23.2837
11.9176	795.886	23.3032
11.9181	797.449	23.3228
11.9205	804.425	23.3423
11.922	796.897	23.3618
11.92338	795.535	23.3813
11.9247	805.164	23.4009
11.9266	803.568	23.42041
11.9287	796.414	23.4399
11.92943	803.414	23.4595
11.9312	802.9129	23.479
11.9337	798.707	23.4985
11.9351	805.231	23.5181
11.9369	807.442	23.5376
11.9383	799.5755	23.5571
11.9398	801.721	23.57666
11.9428	810.696	23.5962
11.9429	802.875	23.6157
11.9432	805.605	23.6353
11.9453	813.743	23.6548
11.948	808.355	23.6743
11.9499	801.796	23.6938
11.9511	812.7926	23.7134
11.953	809.167	23.73291
11.9546	805.354	23.7524
11.9562	814.56	23.772
11.9579	815.483	23.7915
11.9589	801.748	23.811
11.961	814.033	23.8306
11.9622	816.463	23.8501
11.9655	806.714	23.8696
11.9653	810.209	23.88916
11.968	819.891	23.9087
11.9687	807.991	23.9282
11.9713	812.455	23.9478
11.9727	818.762	23.9673
11.9738	812.273	23.9868
11.9759	811.384	24.0063
11.9765	820.943	24.0259
11.9795	814.138	24.04541
11.98	810.5155	24.0649
11.9818	820.337	24.0845
11.98357	820.981	24.104
11.9848	813.703	24.1235
11.98728	818.9679	24.1431
11.9885	820.889	24.1626
11.9909	814.581	24.1821
11.99167	819.093	24.20166
11.994	824.979	24.2212
11.996	818.317	24.2407
11.9963	814.775	24.2603
11.9985	826.952	24.2798
11.9989	820.205	24.2993
12.001	817.783	24.3188
12.0037	825.011	24.3384
12.0054	826.565	24.35791
12.0058	815.243	24.3774
12.0074	826.64	24.397
12.0098	824.753	24.4165
12.012	819.233	24.436
12.0136	825.581	24.4556
12.0141	829.144	24.4751
12.0148	816.7243	24.4946
12.0179	824.812	24.51416
12.0202	830.632	24.5337
12.0214	824.626	24.5532
12.0233	822.603	24.5728
12.0244	831.997	24.5923
12.0256	822.165	24.6118
12.0272	822.562	24.6313
12.0298	831.795	24.6509
12.0307	828.52	24.67041
12.0335	820.52	24.6899
12.0336	831.623	24.7095
12.0367	828.509	24.729
12.0374	823.473	24.7485
12.039	828.845	24.7681
12.0412	834.636	24.7876
12.0431	825.5387	24.8071
12.0434	828.655	24.82666
12.0456	834.577	24.8462
12.0474	827.792	24.8657
12.0492	828.611	24.8853
12.0511	838.665	24.9048
12.052	832.849	24.9243
12.0539	825.157	24.9438
12.0555	837.034	24.9634
12.0573	833.901	24.98291
12.0597	827.597	25.0024
12.0605	836.411	25.022
12.0615	838.374	25.0415
12.0636	826.858	25.061
12.0661	837.4353	25.0806
12.0661	838.846	25.1001
12.069	831.612	25.1196
12.0711	835.548	25.13916
12.0713	843.768	25.1587
12.0726	830.417	25.1782
12.0748	833.992	25.1978
12.0766	840.745	25.2173
12.0783	836.0993	25.2368
12.0793	833.256	25.2563
12.0814	842.709	25.2759
12.0831	833.694	25.29541
12.0847	831.954	25.3149
12.08632	841.197	25.3345
12.0869	842.378	25.354
12.09	832.593	25.3735
12.0909	838.094	25.3931
12.0935	840.403	25.4126
12.0945	835.387	25.4321
12.0959	835.656	25.45166
12.0976	842.708	25.4712
12.0995	837.485	25.4907
12.1011	835.9798	25.5103
12.1037	843.608	25.5298
12.1041	838.947	25.5493
12.1069	835.0177	25.5688
12.1066	844.393	25.5884
12.1094	841.421	25.60791
12.1106	832.171	25.6274
12.1126	844.529	25.647
12.1139	843.01	25.6665
12.1159	836.543	25.686
12.118	840.919	25.7056
12.1182	846.977	25.7251
12.122	832.719	25.7446
12.1213	842.404	25.76416
12.1242	846.645	25.7837
12.1255	839.807	25.8032
12.1265	837.1499	25.8228
12.1292	848.635	25.8423
12.1294	839.151	25.8618
12.1322	839.44	25.8813
12.1334	844.742	25.9009
12.1349	844.84	25.92041
12.1373	838.107	25.9399
12.1386	846.349	25.9595
12.1399	843.441	25.979
12.1426	838.156	25.9985
12.1433	844.139	26.0181
12.1449	848.892	26.0376
12.1463	840.824	26.0571
12.1482	840.357	26.07666
12.1502	847.051	26.0962
12.1508	842.403	26.1157
12.1535	839.653	26.1353
12.154	848.891	26.1548
12.1562	843.603	26.1743
12.1576	838.119	26.1938
12.1598	848.435	26.2134
12.1605	844.3717	26.23291
12.1628	838.041	26.2524
12.1649	849.176	26.272
12.1655	849.899	26.2915
12.1682	837.416	26.311
12.16904	845.382	26.3306
12.1705	848.764	26.3501
12.1724	842.969	26.3696
12.174	843.722	26.38916
12.1755	852.132	26.4087
12.1771	839.703	26.4282
12.1802	843.2478	26.4478
12.1799	850.513	26.4673
12.182	845.531	26.4868
12.1843	840.945	26.5063
12.1861	851.389	26.5259
12.1877	843.6452	26.54541
12.1897	840.833	26.5649
12.1901	847.5152	26.5845
12.1924	849.572	26.604
12.1938	840.621	26.6235
12.1956	849.056	26.6431
12.1976	846.713	26.6626
12.19839	841.599	26.6821
12.1996	842.815	26.70166
12.2014	850.88	26.7212
12.2034	843.047	26.7407
12.2048	842.023	26.7603
12.2072	848.237	26.7798
12.2087	846.471	26.7993
12.2107	840.728	26.8188
12.2111	850.7171	26.8384
12.2135	847.497	26.85791
12.2154	837.328	26.8774
12.2154	848.743	26.897
12.21846	849.928	26.9165
12.2192	839.423	26.936
12.222	845.531	26.9556
12.2235	852.128	26.9751
12.2243	838.923	26.9946
12.227	846.102	27.01416
12.2279	851.3349	27.0337
12.22795	842.496	27.0532
12.2311	843.484	27.0728
12.2335	853.68	27.0923
12.2346	841.181	27.1118
12.2356	842.399	27.1313
12.238	850.08	27.1509
12.2387	848.768	27.17041
12.241	842.146	27.1899
12.2434	849.362	27.2095
12.2442	845.321	27.229
12.2459	842.495	27.2485
12.2471	845.327	27.2681
12.2488	850.025	27.2876
12.2518	840.5235	27.3071
12.2528	845.487	27.32666
12.2547	848.309	27.3462
12.2545	842.079	27.3657
12.2573	842.438	27.3853
12.2592	852.028	27.4048
12.2605	845.418	27.4243
12.2621	841.676	27.4438
12.2641	846.8	27.4634
12.2647	844.8255	27.48291
12.2664	838.588	27.5024
12.2685	848.01	27.522
12.26952	849.082	27.5415
12.2732	836.52	27.561
12.2731	845.164	27.5806
12.276	850.746	27.6001
12.2768	839.877	27.6196
12.27808	842.96	27.63916
12.27999	851.5625	27.6587
12.281	839.163	27.6782
12.28243	843.4679	27.6978
12.2853	848.815	27.7173
12.2867	844.824	27.7368
12.2879	840.39	27.7563
12.2905	850.18	27.7759
12.2922	841.763	27.79541
12.294	838.68	27.8149
12.2945	845.08	27.8345
12.2956	847.7431	27.854
12.2984	839.713	27.8735
12.2998	845.448	27.8931
12.3008	845.865	27.9126
12.3028	840.504	27.9321
12.3042	841.926	27.95166
12.306	849.05	27.9712
12.3085	839.787	27.9907
12.31	841.028	28.0103
12.3107	844.871	28.0298
12.3133	843.137	28.0493
12.3154	836.116	28.0688
12.3161	846.438	28.0884
12.3178	843.888	28.10791
12.3187	836.483	28.1274
12.3205	842.965	28.147
12.3221	844.428	28.1665
12.3234	836.918	28.186
12.3254	844.079	28.2056
12.32754	848.868	28.2251
12.3278	835.172	28.2446
12.3302	840.598	28.26416
12.33136	848.268	28.2837
12.334	840.747	28.3032
12.3344	837.481	28.3228
12.3368	848.9549	28.3423
12.3385	836.667	28.3618
12.3392	836.786	28.3813
12.3416	845.053	28.4009
12.3442	843.057	28.42041
12.3448	835.112	28.4399
12.347	845.683	28.4595
12.3481	840.681	28.479
12.3509	835.359	28.4985
12.3515	841.1825	28.5181
12.3526	845.949	28.5376
12.3551	837.115	28.5571
12.3566	838.461	28.57666
12.3586	841.364	28.5962
12.3602	836.5694	28.6157
12.3607	835.823	28.6353
12.3641	847.411	28.6548
12.3644	837.558	28.6743
12.36598	833.882	28.6938
12.3675	841.449	28.7134
12.36986	841.16	28.73291
12.3709	832.75	28.7524
12.3728	840.7605	28.772
12.374	843.156	28.7915
12.3752	832.496	28.811
12.3785	837.947	28.8306
12.3801	843.769	28.8501
12.3801	833.226	28.8696
12.3829	835.894	28.88916
12.385	844.372	28.9087
12.3862	833.819	28.9282
12.3878	832.216	28.9478
12.3888	841.394	28.9673
12.3907	838.3855	28.9868
12.3913	832.579	29.0063
12.3945	842.952	29.0259
12.39519	834.632	29.04541
12.3964	831.829	29.0649
12.399	839.591	29.0845
12.3993	840.563	29.104
12.4024	829.355	29.1235
12.4036	838.076	29.1431
12.4051	837.888	29.1626
12.4066	833.524	29.1821
12.4086	832.81	29.20166
12.41082	841.038	29.2212
12.411	833.855	29.2407
12.4135	834.148	29.2603
12.4145	838.415	29.2798
12.4157	834.798	29.2993
12.419	829.404	29.3188
12.42	840.553	29.3384
12.4215	836.88	29.35791
12.4238	829.707	29.3774
12.4246	833.622	29.397
12.4261	838.211	29.4165
12.4281	828.326	29.436
12.4291	833.454	29.4556
12.431	839.194	29.4751
12.4326	827.274	29.4946
12.4354	831.599	29.51416
12.43628	840.397	29.5337
12.4383	830.62	29.5532
12.4388	828.655	29.5728
12.4403	839.761	29.5923
12.44282	830.88	29.6118
12.444	826.793	29.6313
12.4464	836.069	29.6509
12.449	833.479	29.67041
12.4489	828.431	29.6899
12.4524	836.741	29.7095
12.4518	834.827	29.729
12.4531	827.846	29.7485
12.4564	832.372	29.7681
12.4581	838.664	29.7876
12.45834	827.614	29.8071
12.45977	833.785	29.82666
12.4626	835.2121	29.8462
12.4636	831.1449	29.8657
12.46672	828.064	29.8853
12.4679	839.205	29.9048
12.4692	831.44	29.9243
12.4702	828.918	29.9438
12.4728	834.559	29.9634
12.47328	835.702	29.98291
12.4755	823.627	30.0024
12.4767	835.335	30.022
12.4783	836.068	30.0415
12.4794	826.126	30.061
12.482	829.809	30.0806
12.48346	836.179	30.1001
12.4855	825.497	30.1196
12.4862	828.791	30.13916
12.4884	836.36	30.1587
12.4894	825.564	30.1782
12.4916	827.091	30.1978
12.4926	836.0545	30.2173
12.4946	828.815	30.2368
12.4964	824.6012	30.2563
12.4984	835.441	30.2759
12.4993	827.862	30.29541
12.5006	824.109	30.3149
12.5031	832.606	30.3345
12.5037	832.974	30.354
12.5062	822.474	30.3735
12.5084	832.593	30.3931
12.5094	831.545	30.4126
12.5107	826.954	30.4321
12.5125	826.118	30.45166
12.5144	836.563	30.4712
12.5159	827.485	30.4907
12.518	826.433	30.5103
12.5191	832.033	30.5298
12.521	830.069	30.5493
12.52238	824.379	30.5688
12.5239	835.243	30.5884
12.526	829.369	30.60791
12.5278	822.668	30.6274
12.5292	828.268	30.647
12.5307	832.3894	30.6665
12.5327	820.654	30.686
12.5335	828.345	30.7056
12.5361	832.008	30.7251
12.5362	823.553	30.7446
12.5398	823.082	30.76416
12.5402	833.505	30.7837
12.5426	825.109	30.8032
12.5439	825.087	30.8228
12.5443	834.707	30.8423
12.5465	824.4	30.8618
12.5488	821.177	30.8813
12.5506	832.603	30.9009
12.552	829.092	30.92041
12.5531	820.581	30.9399
12.5553	830.769	30.9595
12.55665	826.469	30.979
12.557	821.638	30.9985
12.5604	829.884	31.0181
12.5617	830.393	31.0376
12.5633	820.205	31.0571
12.5643	827.817	31.07666
12.5671	829.629	31.0962
12.5681	823.738	31.1157
12.5693	820.854	31.1353
12.5721	832.083	31.1548
12.5725	825.441	31.1743
12.575	822.935	31.1938
12.57538	826.247	31.2134
12.5781	827.643	31.23291
12.5798	820.255	31.2524
12.5809	830.472	31.272
12.5824	829.476	31.2915
12.5842	819.626	31.311
12.5862	823.763	31.3306
12.5889	832.353	31.3501
12.5888	820.235	31.3696
12.5902	823.25	31.38916
12.5922	832.1925	31.4087
12.5938	822.591	31.4282
12.5957	819.263	31.4478
12.5982	831.276	31.4673
12.6002	823.782	31.4868
12.59985	817.804	31.5063
12.6027	831.371	31.5259
12.604	825.316	31.54541
12.6049	816.823	31.5649
12.60688	828.885	31.5845
12.6093	828.693	31.604
12.6105	818.489	31.6235
12.6119	826.4751	31.6431
12.6123	826.828	31.6626
12.6151	819.278	31.6821
12.6164	824.524	31.70166
12.6179	830.909	31.7212
12.6197	820.751	31.7407
12.6221	823.19	31.7603
12.6229	826.7373	31.7798
12.6247	825.968	31.7993
12.6272	818.003	31.8188
12.62915	827.897	31.8384
12.6301	826.4292	31.85791
12.6311	819.116	31.8774
12.6326	824.472	31.897
12.6346	827.372	31.9165
12.6369	815.764	31.936
12.6384	826.008	31.9556
12.6399	829.666	31.9751
12.6412	818.091	31.9946
12.6424	819.52	32.01416
12.6439	828.607	32.0337
12.64604	819.577	32.0532
12.649	818.417	32.0728
12.6492	828.893	32.0923
12.6504	821.327	32.1118
12.6538	813.601	32.1313
12.65374	827.806	32.1509
12.6554	823.662	32.17041
12.6581	815.806	32.1899
12.6588	825.813	32.2095
12.6609	823.4339	32.229
12.6624	814.55	32.2485
12.664	822.957	32.2681
12.6659	826.24	32.2876
12.6683	816.488	32.3071
12.6688	822.178	32.32666
12.671	825.074	32.3462
12.6716	818.707	32.3657
12.6741	817.523	32.3853
12.6745	828.665	32.4048
12.6766	820.998	32.4243
12.6786	820.028	32.4438
12.6805	823.998	32.4634
12.6814	825.804	32.48291
12.68341	816.448	32.5024
12.6843	826.219	32.522
12.68711	825.089	32.5415
12.68819	817.537	32.561
12.69001	820.3963	32.5806
12.6916	828.182	32.6001
12.6932	817.727	32.6196
12.6951	821.798	32.63916
12.6962	828.058	32.6587
12.6988	820.685	32.6782
12.6988	815.597	32.6978
12.7018	827.932	32.7173
12.7039	819.584	32.7368
12.70436	816.634	32.7563
12.706	827.425	32.7759
12.7075	822.104	32.79541
12.7094	812.544	32.8149
12.7113	825.229	32.8345
12.71337	822.861	32.854
12.71456	815.681	32.8735
12.7161	820.4278	32.8931
12.7181	825.058	32.9126
12.7195	816.35	32.9321
12.7208	820.471	32.95166
12.7221	825.706	32.9712
12.7242	816.616	32.9907
12.7254	820.104	33.0103
12.72677	824.442	33.0298
12.7294	818.354	33.0493
12.731	814.439	33.0688
12.7326	826.198	33.0884
12.734	821.644	33.10791
12.7359	815.734	33.1274
12.7377	819.733	33.147
12.7379	825.6593	33.1665
12.7408	814.573	33.186
12.7416	822.363	33.2056
12.74389	824.031	33.2251
12.7451	815.554	33.2446
12.7471	816.177	33.26416
12.7488	826.888	33.2837
12.7507	816.208	33.3032
12.7528	818.683	33.3228
12.75376	826.381	33.3423
12.7552	821.497	33.3618
12.7566	812.252	33.3813
12.7583	825.967	33.4009
12.75977	820.259	33.42041
12.7627	813.415	33.4399
12.7628	825.003	33.4595
12.7647	821.994	33.479
12.7661	810.271	33.4985
12.7693	821.101	33.5181
12.7702	823.618	33.5376
12.7713	814.872	33.5571
12.7733	818.046	33.57666
12.7744	822.956	33.5962
12.7761	814.737	33.6157
12.778	816.713	33.6353
12.77984	824.034	33.6548
12.7819	815.192	33.6743
12.78242	815.369	33.6938
12.7833	821.156	33.7134
12.7872	818.969	33.73291
12.7881	811.35	33.7524
12.7906	822.101	33.772
12.7914	822.927	33.7915
12.7933	814.054	33.811
12.7946	816.25	33.8306
12.7964	823.927	33.8501
12.7985	812.862	33.8696
12.799	817.864	33.88916
12.8004	824.983	33.9087
12.8024	814.654	33.9282
12.8035	810.69	33.9478
12.8055	825.0321	33.9673
12.8075	816.187	33.9868
12.8098	815.866	34.0063
12.8104	823.256	34.0259
12.8119	820.54	34.04541
12.8135	809.923	34.0649
12.8148	823.164	34.0845
12.8167	819.8786	34.104
12.8191	812.393	34.1235
12.8198	818.56	34.1431
12.8232	824.183	34.1626
12.8218	810.378	34.1821
12.8247	817.291	34.20166
12.8271	823.067	34.2212
12.8286	815.152	34.2407
12.8294	815.12	34.2603
12.83205	821.299	34.2798
12.833	816.097	34.2993
12.8347	812.764	34.3188
12.836	823.132	34.3384
12.8385	817.494	34.35791
12.8404	813.178	34.3774
12.8403	817.8938	34.397
12.8433	822.094	34.4165
12.8441	810.233	34.436
12.8459	817.048	34.4556
12.84818	819.914	34.4751
12.8499	814.086	34.4946
12.8514	814.737	34.51416
12.8525	822.497	34.5337
12.8545	811.486	34.5532
12.8559	814.5495	34.5728
12.85696	823.224	34.5923
12.8594	817.742	34.6118
12.862	807.026	34.6313
12.8625	821.684	34.6509
12.8639	817.539	34.67041
12.8646	810.3053	34.6899
12.86773	819.257	34.7095
12.8698	819.949	34.729
12.87043	808.709	34.7485
12.8731	818.602	34.7681
12.8735	819.854	34.7876
12.8757	811.812	34.8071
12.8781	814.668	34.82666
12.8778	821.847	34.8462
12.8816	811.575	34.8657
12.8826	812.045	34.8853
12.8841	820.684	34.9048
12.88658	814.752	34.9243
12.8871	812.59	34.9438
12.8882	817.99	34.9634
12.8897	813.463	34.98291
12.8923	810.86	35.0024
12.8938	819.624	35.022
12.89454	818.694	35.0415
12.8962	811.442	35.061
12.8996	814.141	35.0806
12.8996	821.37	35.1001
12.9007	811.003	35.1196
12.9037	813.706	35.13916
12.905	819.341	35.1587
12.90595	814.916	35.1782
12.9092	808.982	35.1978
12.9091	821.268	35.2173
12.9113	812.575	35.2368
12.9137	809.869	35.2563
12.9144	820.617	35.2759
12.9167	817.771	35.29541
12.9176	805.988	35.3149
12.9194	819.279	35.3345
12.9212	816.797	35.354
12.9226	810.2309	35.3735
12.9252	816.961	35.3931
12.926	817.273	35.4126
12.92784	807.194	35.4321
12.93	814.338	35.45166
12.9301	818.2674	35.4712
12.93267	810.51	35.4907
12.9351	811.089	35.5103
12.936	819.379	35.5298
12.9387	809.935	35.5493
12.9391	810.223	35.5688
12.9412	817.942	35.5884
12.9426	813.874	35.60791
12.9426	810.7644	35.6274
12.94653	816.022	35.647
12.947	815.471	35.6665
12.9495	807.361	35.686
12.9503	815.13	35.7056
12.9526	818.676	35.7251
12.95386	811.417	35.7446
12.9552	809.6109	35.76416
12.9569	818.65	35.7837
12.9586	810.107	35.8032
12.9588	810.237	35.8228
12.9611	817.524	35.8423
12.9636	812.936	35.8618
12.96576	804.751	35.8813
12.9662	819.063	35.9009
12.9687	812.703	35.92041
12.96974	806.727	35.9399
12.9719	816.451	35.9595
12.974	817.489	35.979
12.9751	803.945	35.9985
12.9763	814.233	36.0181
12.97764	815.033	36.0376
12.979	807.376	36.0571
12.9811	812.041	36.07666
12.9838	817.002	36.0962
12.9846	805.242	36.1157
12.9861	808.207	36.1353
12.988	817.067	36.1548
12.9895	810.251	36.1743
12.9909	807.742	36.1938
12.9925	813.87	36.2134
12.9939	809.281	36.23291
12.9963	805.843	36.2524
12.9977	811.2832	36.272
12.9988	810.503	36.2915
13.00071	802.07	36.311
13.0023	803.229	36.3306
13.0133	-117.709	36.3501
13.0108	-60.5904	36.3696
13.0122	-37.9203	36.38916
13.0111	-42.9574	36.4087
13.013	-47.1904	36.4282
13.01464	-51.9879	36.4478
13.01512	-41.5644	36.4673
13.0172	-47.8868	36.4868
13.0178	-50.43943	36.5063
13.0197	-43.1532	36.5259
13.0217	-44.9163	36.54541
13.0227	-57.0892	36.5649
13.0239	-42.29649	36.5845
13.026	-43.4027	36.604
13.0279	-51.1671	36.6235
13.0297	-46.2924	36.6431
13.0304	-38.7227	36.6626
13.0329	-55.31192	36.6821
13.0338	-45.8826	36.70166
13.035	-40.8308	36.7212
13.038	-49.0449	36.7407
13.0397	-48.7784	36.7603
13.0407	-39.4961	36.7798
13.0418	-50.5509	36.7993
13.0437	-51.2347	36.8188
13.04532	-42.6281	36.8384
13.047	-44.3827	36.85791
13.0491	-50.5784	36.8774
13.0506	-44.4079	36.897
13.0514	-46.4137	36.9165
13.0539	-49.1692	36.936
13.0553	-45.2672	36.9556
13.0561	-43.5628	36.9751
13.0583	-51.3805	36.9946
13.0606	-50.1767	37.01416
13.0617	-42.0665	37.0337
13.0631	-48.5614	37.0532
13.0655	-48.7574	37.0728
13.0661	-41.9042	37.0923
13.0685	-44.6195	37.1118
13.0697	-51.9664	37.1313
13.0713	-40.2045	37.1509
13.0722	-47.3092	37.17041
13.0739	-50.3989	37.1899
13.0754	-42.9288	37.2095
13.078	-41.2623	37.229
13.07935	-54.5066	37.2485
13.0813	-43.9857	37.2681
13.08303	-44.06142	37.2876
13.0851	-49.07	37.3071
13.0854	-47.3932	37.32666
13.0868	-40.2255	37.3462
13.0888	-51.8667	37.3657
13.0913	-46.76289	37.3853
13.093	-41.8214	37.4048
13.0945	-47.3159	37.4243
13.0957	-48.3816	37.4438
13.0982	-39.5224	37.4634
13.0996	-46.1123	37.48291
13.1004	-50.1058	37.5024
13.1025	-44.8936	37.522
13.1034	-41.292	37.5415
13.106	-52.2133	37.561
13.1074	-46.6445	37.5806
13.1082	-44.1914	37.6001
13.1107	-50.3564	37.6196
13.1119	-48.073	37.63916
13.11295	-42.1679	37.6587
13.1146	-48.6862	37.6782
13.1167	-53.05228	37.6978
13.1189	-42.359	37.7173
13.1194	-46.7718	37.7368
13.1217	-50.245	37.7563
13.1234	-42.9116	37.7759
13.1258	-43.89518	37.79541
13.126	-54.7011	37.8149
13.1286	-42.82737	37.8345
13.1303	-45.6745	37.854
13.1311	-50.76886	37.8735
13.1328	-46.8751	37.8931
13.1348	-39.7011	37.9126
13.1364	-55.1519	37.9321
13.1375	-46.3445	37.95166
13.1392	-43.3114	37.9712
13.1408	-47.9748	37.9907
13.1428	-48.1699	38.0103
13.1447	-41.0565	38.0298
13.146	-51.70467	38.0493
13.1483	-49.8802	38.0688
13.1488	-42.56007	38.0884