File: data/processed_data_files/tensile/0.254_solid_uprint_typeiv_4545_r(5).dat
MTS793|BTW|ENU|1|2|.|/|:|1|0|0|A

Data Header:			0.254_solid_uprint_typeiv_4545_r0			Time:	20.0239	s	4/13/2019 6:56:31 PM
Data Acquisition:	Timed
Station Name:	ft40.cfg
Test File Name:	Type IV_Monotonic.tst
Displacement	Force	Running Time
mm	N	s
-40.0444	91.5717	0.0285645
-40.0437	95.6223	0.0480957
-40.0453	93.8746	0.067627
-40.0447	89.75132	0.0871582
-40.0433	91.6487	0.106689
-40.0413	99.9212	0.1262207
-40.0399	94.3338	0.145752
-40.0377	95.3715	0.1652832
-40.0363	101.15	0.184814
-40.0366	97.4371	0.2043457
-40.0343	97.3249	0.223877
-40.0322	104.482	0.2434082
-40.0306	103.318	0.262939
-40.0286	101.391	0.2824707
-40.0271	109.161	0.302002
-40.0259	103.188	0.3215332
-40.0232	104.136	0.341064
-40.021	107.593	0.3605957
-40.0204	111.72	0.380127
-40.0192	107.774	0.3996582
-40.0175	111.491	0.419189
-40.0144	111.849	0.4387207
-40.0142	113.021	0.458252
-40.0128	112.893	0.4777832
-40.0098	120.366	0.497314
-40.0086	115.472	0.5168457
-40.0082	115.8268	0.536377
-40.006	119.127	0.5559082
-40.0035	121.4965	0.575439
-40.0024	115.639	0.5949707
-40.0014	123.526	0.614502
-40.0001	122.4476	0.6340332
-39.9983	120.378	0.653564
-39.9956	122.1831	0.6730957
-39.9956	127.356	0.692627
-39.993	122.8318	0.7121582
-39.9908	127.8241	0.731689
-39.9885	131.71	0.7512207
-39.9877	126.4996	0.770752
-39.9865	125.907	0.7902832
-39.985	135.021	0.809814
-39.98357	132.612	0.8293457
-39.9822	129.552	0.848877
-39.9796	137.026	0.8684082
-39.9782	132.101	0.887939
-39.9773	131.454	0.9074707
-39.9743	137.696	0.927002
-39.9735	140.257	0.9465332
-39.9721	135.7341	0.966064
-39.9713	142.51	0.9855957
-39.9692	139.701	1.005127
-39.96674	140.672	1.02466
-39.9649	141.429	1.04419
-39.9627	148.01	1.06372
-39.9613	144.656	1.083252
-39.9598	145.753	1.10278
-39.9588	146.599	1.12231
-39.95731	148.103	1.14185
-39.956	146.486	1.161377
-39.9537	154.676	1.18091
-39.9526	152.803	1.20044
-39.9509	150.3994	1.21997
-39.9504	152.278	1.239502
-39.9483	156.365	1.25903
-39.9458	150.896	1.27856
-39.9432	156.721	1.2981
-39.9435	160.098	1.317627
-39.94017	155.889	1.33716
-39.9395	156.702	1.35669
-39.9376	163.357	1.37622
-39.9356	158.971	1.395752
-39.9351	160.177	1.41528
-39.9314	167.429	1.43481
-39.931	162.313	1.45435
-39.9294	160.166	1.473877
-39.9288	169.2672	1.49341
-39.9264	168.44	1.51294
-39.9239	165.711	1.53247
-39.9227	172.712	1.552002
-39.9211	168.319	1.57153
-39.91959	166.595	1.59106
-39.9193	172.5	1.6106
-39.9171	175.631	1.630127
-39.9144	170.887	1.64966
-39.9145	177.171	1.66919
-39.9131	176.683	1.68872
-39.9096	174.931	1.708252
-39.9077	174.6479	1.72778
-39.90799	183.163	1.74731
-39.905	178.135	1.76685
-39.9045	179.384	1.786377
-39.9015	180.298	1.80591
-39.8996	183.745	1.82544
-39.8983	179.289	1.84497
-39.8976	186.782	1.864502
-39.8945	188.598	1.88403
-39.8943	184.148	1.90356
-39.892	185.0181	1.9231
-39.891	193.115	1.942627
-39.8896	185.948	1.96216
-39.8876	190.695	1.98169
-39.886	195.68	2.00122
-39.884	190.753	2.020752
-39.8834	189.395	2.04028
-39.8806	199.427	2.05981
-39.8793	195.887	2.07935
-39.878	193.171	2.098877
-39.875	200.956	2.11841
-39.8741	198.269	2.13794
-39.87402	193.67	2.15747
-39.8708	202.932	2.177002
-39.8693	203.6718	2.19653
-39.8683	199.749	2.21606
-39.8661	206.269	2.2356
-39.8638	204.212	2.255127
-39.8625	202.308	2.27466
-39.8613	205.408	2.29419
-39.8597	211.4505	2.31372
-39.858	206.643	2.333252
-39.8563	209.078	2.35278
-39.8542	209.691	2.37231
-39.8538	210.9115	2.39185
-39.8512	208.979	2.411377
-39.8493	217.743	2.43091
-39.8483	214.002	2.45044
-39.8462	213.527	2.46997
-39.8457	214.903	2.489502
-39.8432	220.529	2.50903
-39.8409	214.933	2.52856
-39.8407	220.83	2.5481
-39.8386	223.928	2.567627
-39.8369	219.3826	2.58716
-39.8345	216.999	2.60669
-39.8337	226.877	2.62622
-39.8314	220.309	2.645752
-39.8314	223.909	2.66528
-39.8291	228.077	2.68481
-39.8282	224.751	2.70435
-39.8256	221.3	2.723877
-39.82468	232.446	2.74341
-39.8216	229.682	2.76294
-39.8202	227.153	2.78247
-39.8189	233.861	2.802002
-39.8166	231.332	2.82153
-39.815	227.871	2.84106
-39.8146	236.199	2.8606
-39.813	238.407	2.880127
-39.8105	233.693	2.89966
-39.8096	237.925	2.91919
-39.808	237.903	2.93872
-39.8061	236.227	2.958252
-39.8044	238.13	2.97778
-39.80175	245.747	2.99731
-39.80114	240.876	3.01685
-39.8003	241.602	3.036377
-39.7975	242.282	3.05591
-39.797	246.433	3.07544
-39.7946	242.841	3.09497
-39.7925	249.35	3.114502
-39.7911	249.013	3.13403
-39.79	245.783	3.15356
-39.7875	248.262	3.1731
-39.7869	255.9045	3.192627
-39.785	248.576	3.21216
-39.7825	252.469	3.23169
-39.7811	256.235	3.25122
-39.7793	253.253	3.270752
-39.7778	248.662	3.29028
-39.7762	260.0311	3.30981
-39.7756	255.166	3.32935
-39.7744	255.797	3.348877
-39.7718	262.589	3.36841
-39.7699	258.474	3.38794
-39.7694	255.244	3.40747
-39.7681	265.065	3.427002
-39.7649	264.4353	3.44653
-39.7639	259.823	3.46606
-39.761	267.1297	3.4856
-39.7607	265.127	3.505127
-39.7599	262.521	3.52466
-39.7569	267.65	3.54419
-39.7555	271.595	3.56372
-39.7538	266.773	3.583252
-39.7536	269.978	3.60278
-39.7501	272.0314	3.62231
-39.74955	271.353	3.64185
-39.7476	269.432	3.661377
-39.7461	277.6925	3.68091
-39.7436	275.948	3.70044
-39.7427	276.34	3.71997
-39.742	277.07	3.739502
-39.7397	279.556	3.75903
-39.7385	274.299	3.77856
-39.7351	282.817	3.7981
-39.7341	283.666	3.817627
-39.7324	278.428	3.83716
-39.7306	278.666	3.85669
-39.7299	289.279	3.87622
-39.7272	280.0531	3.895752
-39.726	283.489	3.91528
-39.7247	289.7605	3.93481
-39.72226	286.815	3.95435
-39.7213	281.193	3.973877
-39.7197	292.614	3.99341
-39.7174	288.437	4.01294
-39.71743	287.652	4.03247
-39.7144	293.736	4.052002
-39.7148	292.737	4.07153
-39.7122	286.787	4.09106
-39.71	295.149	4.1106
-39.7082	297.693	4.130127
-39.7065	293.159	4.14966
-39.7048	295.652	4.16919
-39.704	296.891	4.18872
-39.7012	293.711	4.208252
-39.7	297.6106	4.22778
-39.6996	303.002	4.24731
-39.6974	298.249	4.26685
-39.6945	299.985	4.286377
-39.6934	303.577	4.30591
-39.6918	304.12	4.32544
-39.6903	301.821	4.34497
-39.6875	308.571	4.364502
-39.687	308.072	4.38403
-39.6853	305.759	4.40356
-39.6833	306.319	4.4231
-39.683	312.214	4.442627
-39.6805	306.9187	4.46216
-39.6793	311.731	4.48169
-39.6775	315.728	4.50122
-39.6761	312.184	4.520752
-39.6735	309.459	4.54028
-39.6723	318.084	4.55981
-39.6712	314.017	4.57935
-39.6696	315.376	4.598877
-39.6673	319.047	4.61841
-39.6663	317.907	4.63794
-39.6644	312.396	4.65747
-39.6636	322.627	4.677002
-39.6619	322.4476	4.69653
-39.6606	318.464	4.71606
-39.6583	322.184	4.7356
-39.6564	324.492	4.755127
-39.65416	318.6723	4.77466
-39.6537	324.0148	4.79419
-39.6513	329.823	4.81372
-39.6501	323.629	4.833252
-39.6483	325.982	4.85278
-39.6471	329.657	4.87231
-39.6452	325.372	4.89185
-39.6436	328.701	4.911377
-39.6423	334.497	4.93091
-39.6395	330.987	4.95044
-39.6393	330.452	4.96997
-39.6372	332.158	4.989502
-39.635	335.429	5.00903
-39.6327	331.241	5.02856
-39.63131	337.247	5.0481
-39.6311	338.165	5.067627
-39.6291	335.814	5.08716
-39.6262	335.792	5.10669
-39.6256	342.997	5.12622
-39.6223	336.979	5.145752
-39.6225	339.95	5.16528
-39.6207	345.984	5.18481
-39.619	341.347	5.20435
-39.6162	338.133	5.223877
-39.6151	349.861	5.24341
-39.6157	346.144	5.26294
-39.6124	344.856	5.28247
-39.611	349.778	5.302002
-39.6093	348.22	5.32153
-39.608	341.992	5.34106
-39.6052	352.285	5.3606
-39.6048	354.889	5.380127
-39.6021	349.845	5.39966
-39.6011	352.565	5.41919
-39.5991	355.336	5.43872
-39.5976	350.766	5.458252
-39.5964	354.654	5.47778
-39.594	359.797	5.49731
-39.59304	353.7027	5.51685
-39.5907	356.584	5.536377
-39.5897	359.418	5.55591
-39.5876	356.915	5.57544
-39.5863	356.42	5.59497
-39.5842	364.129	5.614502
-39.5827	362.623	5.63403
-39.5818	360.362	5.65356
-39.5787	360.157	5.6731
-39.5771	366.528	5.692627
-39.5761	362.102	5.71216
-39.5736	366.779	5.73169
-39.57362	369.776	5.75122
-39.5721	366.471	5.770752
-39.569	363.93	5.79028
-39.5688	374.154	5.80981
-39.567	367.691	5.82935
-39.5664	368.8605	5.848877
-39.56414	373.791	5.86841
-39.5611	372.9447	5.88794
-39.5607	366.791	5.90747
-39.55899	376.689	5.927002
-39.557	374.783	5.94653
-39.5549	373.286	5.96606
-39.5538	377.374	5.9856
-39.5518	377.589	6.005127
-39.5497	372.147	6.02466
-39.5501	378.538	6.04419
-39.54665	382.7673	6.06372
-39.5453	379.714	6.083252
-39.5444	379.638	6.10278
-39.5423	382.953	6.12231
-39.54129	380.707	6.14185
-39.54	381.574	6.161377
-39.53751	387.951	6.18091
-39.5349	384.7691	6.20044
-39.535	382.483	6.21997
-39.5341	385.111	6.239502
-39.5313	387.698	6.25903
-39.53017	385.36	6.27856
-39.52734	391.035	6.2981
-39.5266	393.1138	6.317627
-39.5245	389.768	6.33716
-39.5224	387.244	6.35669
-39.5216	395.379	6.37622
-39.5198	390.287	6.395752
-39.51762	394.115	6.41528
-39.5167	397.611	6.43481
-39.5141	396.727	6.45435
-39.5135	390.457	6.473877
-39.5117	401.8186	6.49341
-39.5102	396.702	6.51294
-39.5082	396.595	6.53247
-39.5073	401.843	6.552002
-39.5054	402.075	6.57153
-39.5047	395.841	6.59106
-39.5018	405.1366	6.6106
-39.5008	403.9281	6.630127
-39.4981	399.087	6.64966
-39.4973	405.104	6.66919
-39.4943	408.39	6.68872
-39.4939	401.342	6.708252
-39.4919	405.246	6.72778
-39.4901	411.384	6.74731
-39.4878	405.942	6.76685
-39.4869	406.354	6.786377
-39.4852	409.748	6.80591
-39.4848	408.561	6.82544
-39.48175	408.966	6.84497
-39.4792	415.0394	6.864502
-39.4783	413.681	6.88403
-39.4777	412.78	6.90356
-39.4754	412.2767	6.9231
-39.474	417.959	6.942627
-39.47279	412.585	6.96216
-39.4702	417.49	6.98169
-39.4697	419.163	7.00122
-39.4681	418.438	7.020752
-39.4672	415.497	7.04028
-39.4644	423.4	7.05981
-39.46262	418.874	7.07935
-39.4603	419.7533	7.098877
-39.4593	424.649	7.11841
-39.4583	423.408	7.13794
-39.4552	414.565	7.15747
-39.4542	426.6221	7.177002
-39.452	427.496	7.19653
-39.45097	423.05	7.21606
-39.4496	427.214	7.2356
-39.4476	428.124	7.255127
-39.4465	420.967	7.27466
-39.4443	428.8479	7.29419
-39.4423	430.71	7.31372
-39.4414	426.691	7.333252
-39.4411	428.226	7.35278
-39.438	434.317	7.37231
-39.4368	426.93	7.39185
-39.4359	430.832	7.411377
-39.4337	436.139	7.43091
-39.4318	433.508	7.45044
-39.4304	431.954	7.46997
-39.4294	435.843	7.489502
-39.4272	434.779	7.50903
-39.4256	432.311	7.52856
-39.4238	439.909	7.5481
-39.4215	441.477	7.567627
-39.4203	436.093	7.58716
-39.4196	436.366	7.60669
-39.41711	444.426	7.62622
-39.4145	437.822	7.645752
-39.4136	441.286	7.66528
-39.4125	444.759	7.68481
-39.41	443.6246	7.70435
-39.4091	436.897	7.723877
-39.40641	448.903	7.74341
-39.4058	442.795	7.76294
-39.4046	445.438	7.78247
-39.40353	448.069	7.802002
-39.4004	447.692	7.82153
-39.3987	440.558	7.84106
-39.39756	449.973	7.8606
-39.396	450.808	7.880127
-39.3935	448.251	7.89966
-39.39378	450.164	7.91919
-39.3904	453.534	7.93872
-39.3896	445.861	7.958252
-39.3884	453.041	7.97778
-39.3859	456.745	7.99731
-39.38583	451.752	8.01685
-39.3831	451.945	8.036377
-39.3799	457.008	8.05591
-39.3801	453.11	8.07544
-39.3777	453.363	8.09497
-39.3758	460.017	8.114502
-39.3742	458.336	8.13403
-39.3717	456.313	8.15356
-39.3709	457.474	8.1731
-39.3694	462.071	8.192627
-39.3674	457.272	8.21216
-39.367	462.185	8.23169
-39.3649	465.497	8.25122
-39.3644	460.198	8.270752
-39.361	457.279	8.29028
-39.3593	467.645	8.30981
-39.3575	463.089	8.32935
-39.3559	463.7876	8.348877
-39.3553	468.042	8.36841
-39.3544	466.882	8.38794
-39.3524	460.885	8.40747
-39.3496	471.518	8.427002
-39.3494	469.404	8.44653
-39.3459	466.558	8.46606
-39.3443	471.4061	8.4856
-39.3436	473.6369	8.505127
-39.34145	464.927	8.52466
-39.3413	470.668	8.54419
-39.3401	474.726	8.56372
-39.3372	469.25	8.583252
-39.3354	473.175	8.60278
-39.33427	474.973	8.62231
-39.3321	471.063	8.64185
-39.3311	472.324	8.661377
-39.3295	479.503	8.68091
-39.3265	476.139	8.70044
-39.3264	473.378	8.71997
-39.3242	476.206	8.739502
-39.3231	478.534	8.75903
-39.32127	475.711	8.77856
-39.3198	480.37	8.7981
-39.3175	481.394	8.817627
-39.3164	477.5563	8.83716
-39.3145	478.336	8.85669
-39.3137	483.411	8.87622
-39.3111	478.464	8.895752
-39.31081	481.737	8.91528
-39.3078	486.152	8.93481
-39.3058	484.088	8.95435
-39.3054	476.56	8.973877
-39.304	487.635	8.99341
-39.3019	485.895	9.01294
-39.29855	484.147	9.03247
-39.2985	489.128	9.052002
-39.2967	488.24	9.07153
-39.2953	479.649	9.09106
-39.2931	491.38	9.1106
-39.2918	490.795	9.130127
-39.29	485.119	9.14966
-39.2882	488.415	9.16919
-39.2863	492.9187	9.18872
-39.2843	485.057	9.208252
-39.28355	491.067	9.22778
-39.2828	493.345	9.24731
-39.281	492.73	9.26685
-39.2785	490.213	9.286377
-39.2774	493.859	9.30591
-39.2758	490.876	9.32544
-39.274	490.863	9.34497
-39.2724	496.697	9.364502
-39.2705	497.0177	9.38403
-39.2692	492.686	9.40356
-39.2673	495.461	9.4231
-39.2655	497.157	9.442627
-39.2636	494.554	9.46216
-39.2629	497.806	9.48169
-39.2604	501.09	9.50122
-39.259	498.278	9.520752
-39.2582	493.969	9.54028
-39.2563	503.608	9.55981
-39.2534	498.364	9.57935
-39.2536	498.869	9.598877
-39.2515	504.515	9.61841
-39.2494	503.278	9.63794
-39.2489	495.371	9.65747
-39.2465	506.207	9.677002
-39.2447	503.971	9.69653
-39.2433	501.391	9.71606
-39.24054	505.628	9.7356
-39.2391	506.342	9.755127
-39.2375	499.555	9.77466
-39.23571	506.564	9.79419
-39.2337	507.806	9.81372
-39.2327	505.917	9.833252
-39.2316	506.378	9.85278
-39.2308	509.367	9.87231
-39.22868	503.082	9.89185
-39.2281	506.567	9.911377
-39.22504	510.4953	9.93091
-39.2246	508.952	9.95044
-39.2228	504.853	9.96997
-39.2208	511.08	9.989502
-39.21909	508.3555	10.009
-39.2158	506.239	10.0286
-39.2157	511.86	10.0481
-39.2139	513.829	10.0676
-39.2122	510.017	10.0872
-39.2096	509.4986	10.1067
-39.2087	513.742	10.1262
-39.2071	510.2746	10.1458
-39.205	512.806	10.1653
-39.2037	516.215	10.1848
-39.2026	513.345	10.2043
-39.1996	507.756	10.2239
-39.1992	518.587	10.2434
-39.19722	515.053	10.2629
-39.1962	514.086	10.2825
-39.195	516.977	10.302
-39.1921	518.6272	10.3215
-39.1908	510.7612	10.3411
-39.1889	518.993	10.3606
-39.188	520.9502	10.3801
-39.1859	515.326	10.3997
-39.1847	517.567	10.4192
-39.1831	522.242	10.4387
-39.1807	512.136	10.4583
-39.1796	518.593	10.4778
-39.17704	521.922	10.4973
-39.1768	519.331	10.5168
-39.1748	516.609	10.5364
-39.1733	522.78	10.5559
-39.1708	518.912	10.5754
-39.1704	517.394	10.595
-39.1686	523.335	10.6145
-39.1669	522.661	10.634
-39.1647	517.934	10.6536
-39.1636	520.204	10.6731
-39.1619	524.486	10.6926
-39.16021	519.344	10.7122
-39.1578	522.988	10.7317
-39.1571	524.8891	10.7512
-39.15601	523.294	10.7708
-39.1527	521.2951	10.7903
-39.1517	527.793	10.8098
-39.1502	524.317	10.8293
-39.1498	524.43	10.8489
-39.1469	530.627	10.8684
-39.1446	527.006	10.8879
-39.1453	519.99	10.9075
-39.1421	530.395	10.927
-39.1408	528.363	10.9465
-39.139	525.981	10.9661
-39.1366	527.722	10.9856
-39.1352	529.392	11.0051
-39.1338	520.019	11.0247
-39.1327	530.64	11.0442
-39.1298	530.61	11.0637
-39.1283	526.796	11.0833
-39.1272	528.402	11.1028
-39.1254	532.965	11.1223
-39.1237	524.303	11.1418
-39.122	526.969	11.1614
-39.1208	531.32	11.1809
-39.1187	530.035	11.2004
-39.1174	528.206	11.22
-39.1155	531.286	11.2395
-39.11293	528.318	11.259
-39.1131	528.476	11.2786
-39.1105	531.761	11.2981
-39.1094	533.17	11.3176
-39.1072	528.441	11.3372
-39.1069	528.25	11.3567
-39.1059	532.4386	11.3762
-39.10294	530.193	11.3958
-39.1015	530.684	11.4153
-39.0989	535.699	11.4348
-39.0975	533.223	11.4543
-39.0977	525.113	11.4739
-39.09433	536.14	11.4934
-39.0935	532.856	11.5129
-39.09103	530.759	11.5325
-39.0894	536.911	11.552
-39.0891	536.633	11.5715
-39.0845	527.123	11.5911
-39.0856	536.302	11.6106
-39.084	536.6889	11.6301
-39.0819	531.3205	11.6497
-39.0801	532.433	11.6692
-39.07859	537.339	11.6887
-39.0775	528.459	11.7083
-39.0751	534.346	11.7278
-39.0742	538.516	11.7473
-39.0716	534.558	11.7668
-39.0692	531.071	11.7864
-39.0686	538.642	11.8059
-39.0672	533.521	11.8254
-39.0659	533.452	11.845
-39.0631	536.7749	11.8645
-39.06205	537.862	11.884
-39.0602	534.325	11.9036
-39.0584	536.516	11.9231
-39.0569	536.517	11.9426
-39.0555	532.994	11.9622
-39.0551	537.675	11.9817
-39.0524	540.177	12.0012
-39.0505	534.777	12.0208
-39.0492	531.511	12.0403
-39.048	538.157	12.0598
-39.0461	536.638	12.0793
-39.044	535.932	12.0989
-39.0423	539.361	12.1184
-39.0412	538.603	12.1379
-39.0395	530.427	12.1575
-39.0369	540.5545	12.177
-39.0361	537.533	12.1965
-39.0344	534.836	12.2161
-39.033	537.442	12.2356
-39.0312	541.2063	12.2551
-39.0299	531.292	12.2747
-39.0286	537.805	12.2942
-39.0273	539.006	12.3137
-39.0252	535.8183	12.3333
-39.0232	535.972	12.3528
-39.0208	540.613	12.3723
-39.0213	533.306	12.3918
-39.0183	536.828	12.4114
-39.0171	540.468	12.4309
-39.01466	538.238	12.4504
-39.0135	534.6499	12.47
-39.0112	537.62	12.4895
-39.0105	536.598	12.509
-39.0094	536.265	12.5286
-39.0072	539.941	12.5481
-39.0058	540.036	12.5676
-39.004	535.935	12.5872
-39.0027	536.283	12.6067
-39.0007	540.758	12.6262
-38.9994	536.531	12.6458
-38.9967	536.563	12.6653
-38.9965	541.409	12.6848
-38.9948	538.885	12.7043
-38.9934	533.021	12.7239
-38.9909	540.896	12.7434
-38.9897	538.951	12.7629
-38.9879	537.153	12.7825
-38.98587	539.801	12.802
-38.9843	539.596	12.8215
-38.9826	530.718	12.8411
-38.9807	540.869	12.8606
-38.9794	539.912	12.8801
-38.9784	535.545	12.8997
-38.9771	537.516	12.9192
-38.9747	541.009	12.9387
-38.9732	533.189	12.9583
-38.97234	536.605	12.9778
-38.9703	542.11	12.9973
-38.96767	539.615	13.0168
-38.9673	537.221	13.0364
-38.9635	540.555	13.0559
-38.9633	536.13	13.0754
-38.96154	536.399	13.095
-38.959	541.898	13.1145
-38.9582	541.18	13.134
-38.9573	536	13.1536
-38.95435	537.419	13.1731
-38.9525	540.009	13.1926
-38.9517	535.839	13.2122
-38.95	538.1449	13.2317
-38.9481	541.574	13.2512
-38.94722	536.7879	13.2708
-38.9461	535.146	13.2903
-38.9433	541.204	13.3098
-38.94231	537.787	13.3293
-38.9399	535.2774	13.3489
-38.9389	540.565	13.3684
-38.9361	540.212	13.3879
-38.9361	531.501	13.4075
-38.9339	540.823	13.427
-38.9313	538.424	13.4465
-38.9299	536.148	13.4661
-38.9286	540.027	13.4856
-38.9274	541.095	13.5051
-38.925	532.2962	13.5247
-38.9236	538.216	13.5442
-38.92149	542.071	13.5637
-38.9212	536.336	13.5833
-38.9198	536.484	13.6028
-38.9168	540.448	13.6223
-38.917	535.319	13.6418
-38.9145	536.776	13.6614
-38.9126	539.366	13.6809
-38.9113	537.703	13.7004
-38.9098	536.744	13.72
-38.9074	537.5257	13.7395
-38.9067	536.318	13.759
-38.90509	535.027	13.7786
-38.9023	538.993	13.7981
-38.9009	539.087	13.8176
-38.8999	535.366	13.8372
-38.8974	535.332	13.8567
-38.8966	539.2168	13.8762
-38.8949	535.136	13.8958
-38.8939	537.097	13.9153
-38.8919	539.6911	13.9348
-38.8898	535.999	13.9543
-38.8877	532.308	13.9739
-38.8866	540.305	13.9934
-38.88549	538.096	14.0129
-38.8838	534.509	14.0325
-38.8817	539.383	14.052
-38.881	540.544	14.0715
-38.8777	529.9613	14.0911
-38.8773	538.51	14.1106
-38.87582	537.239	14.1301
-38.8747	534.915	14.1497
-38.87122	537.228	14.1692
-38.87056	541.011	14.1887
-38.8688	530.162	14.2083
-38.8669	536.209	14.2278
-38.8656	538.766	14.2473
-38.863	536	14.2668
-38.8632	533.723	14.2864
-38.8614	538.761	14.3059
-38.8591	534.3526	14.3254
-38.85725	535.174	14.345
-38.8556	538.728	14.3645
-38.8549	538.116	14.384
-38.85191	534.251	14.4036
-38.8501	534.855	14.4231
-38.8497	537.899	14.4426
-38.8472	533.826	14.4622
-38.8461	535.818	14.4817
-38.8441	539.7345	14.5012
-38.843	535.719	14.5208
-38.8422	531.911	14.5403
-38.8404	538.31	14.5598
-38.8377	534.82	14.5793
-38.8369	534.642	14.5989
-38.8346	537.789	14.6184
-38.833	535.876	14.6379
-38.8321	529.567	14.6575
-38.83046	538.979	14.677
-38.8275	537.709	14.6965
-38.8259	533.26	14.7161
-38.8245	535.827	14.7356
-38.8224	537.912	14.7551
-38.8203	529.243	14.7747
-38.8199	534.694	14.7942
-38.8183	538.848	14.8137
-38.8171	534.955	14.8333
-38.8148	533.892	14.8528
-38.8128	538.787	14.8723
-38.8125	529.904	14.8918
-38.8113	533.664	14.9114
-38.8095	537.044	14.9309
-38.8064	535.3587	14.9504
-38.8056	530.912	14.97
-38.8039	534.426	14.9895
-38.8015	533.079	15.009
-38.8009	532.42	15.0286
-38.79818	536.498	15.0481
-38.7964	536.684	15.0676
-38.79599	530.836	15.0872
-38.7932	531.7691	15.1067
-38.792	537.003	15.1262
-38.7908	532.015	15.1458
-38.7891	532.773	15.1653
-38.7874	537.156	15.1848
-38.7862	534.073	15.2043
-38.7849	529.5788	15.2239
-38.7832	536.7251	15.2434
-38.7813	533.832	15.2629
-38.77887	532.71	15.2825
-38.7784	536.194	15.302
-38.7756	535.398	15.3215
-38.7743	526.814	15.3411
-38.7735	534.8869	15.3606
-38.7712	535.899	15.3801
-38.7696	531.528	15.3997
-38.7682	532.436	15.4192
-38.766	536.1239	15.4387
-38.7657	527.203	15.4583
-38.7633	533.52	15.4778
-38.76162	536.782	15.4973
-38.75906	532.214	15.5168
-38.7582	530.581	15.5364
-38.7564	535.4516	15.5559
-38.7565	530.778	15.5754
-38.7533	530.495	15.595
-38.752	535.669	15.6145
-38.7497	533.4696	15.634
-38.7495	530.806	15.6536
-38.7464	530.972	15.6731
-38.7443	534.35	15.6926
-38.7425	530.514	15.7122
-38.7416	532.768	15.7317
-38.7403	535.252	15.7512
-38.738	530.552	15.7708
-38.7364	527.893	15.7903
-38.73568	536.892	15.8098
-38.7335	531.209	15.8293
-38.7328	531.491	15.8489
-38.73019	535.014	15.8684
-38.7291	535.497	15.8879
-38.7272	527.169	15.9075
-38.726	535.11	15.927
-38.7237	533.394	15.9465
-38.7219	528.644	15.9661
-38.7206	533.82	15.9856
-38.7188	534.921	16.0051
-38.7169	526.324	16.0247
-38.7163	532.431	16.0442
-38.7139	534.581	16.0637
-38.7121	531.597	16.0833
-38.7108	531.1554	16.1028
-38.7089	534.619	16.1223
-38.7083	528.484	16.1418
-38.7061	531.535	16.1614
-38.7045	533.373	16.1809
-38.7028	532.3277	16.2004
-38.7011	527.898	16.22
-38.6996	533.018	16.2395
-38.6969	530.708	16.259
-38.6966	528.444	16.2786
-38.6937	531.963	16.2981
-38.6925	533.027	16.3176
-38.6909	529.807	16.3372
-38.6894	527.572	16.3567
-38.6887	532.71	16.3762
-38.6863	527.979	16.3958
-38.6849	531.677	16.4153
-38.6835	533.879	16.4348
-38.681	530.062	16.4543
-38.6806	524.376	16.4739
-38.67902	535.791	16.4934
-38.6767	530.913	16.5129
-38.6748	529.752	16.5325
-38.6738	532.064	16.552
-38.6704	534.17	16.5715
-38.6699	525.266	16.5911
-38.6687	533.694	16.6106
-38.6664	534.333	16.6301
-38.6641	527.875	16.6497
-38.664	531.334	16.6692
-38.6622	533.835	16.6887
-38.6608	524.9541	16.7083
-38.659	530.2309	16.7278
-38.65778	532.979	16.7473
-38.6559	529.923	16.7668
-38.6542	527.454	16.7864
-38.6523	532.6394	16.8059
-38.6514	527.499	16.8254
-38.64922	528.654	16.845
-38.6476	533.33	16.8645
-38.64616	532.643	16.884
-38.6441	527.71	16.9036
-38.6423	529.107	16.9231
-38.6409	530.341	16.9426
-38.63884	527.511	16.9622
-38.6378	531.291	16.9817
-38.6354	532.637	17.0012
-38.6334	529.4292	17.0208
-38.6325	525.535	17.0403
-38.63	533.127	17.0598
-38.6301	529.7536	17.0793
-38.6268	529.116	17.0989
-38.6259	533.686	17.1184
-38.6246	529.741	17.1379
-38.6232	521.688	17.1575
-38.6216	532.008	17.177
-38.6199	531.302	17.1965
-38.6174	528.677	17.2161
-38.61668	531.022	17.2356
-38.6147	532.997	17.2551
-38.6129	523.364	17.2747
-38.6124	530.446	17.2942
-38.6091	532.024	17.3137
-38.6079	526.432	17.3333
-38.6068	527.715	17.3528
-38.605	532.909	17.3723
-38.6038	524.42	17.3918
-38.6022	528.956	17.4114
-38.6	532.936	17.4309
-38.5994	529.371	17.4504
-38.5983	527.419	17.47
-38.59684	530.607	17.4895
-38.5941	527.8363	17.509
-38.59103	526.795	17.5286
-38.5908	530.792	17.5481
-38.58844	530.726	17.5676
-38.58744	526.7724	17.5872
-38.5862	525.566	17.6067
-38.5838	532.221	17.6262
-38.5813	528.36	17.6458
-38.5807	528.343	17.6653
-38.5803	532.009	17.6848
-38.5776	528.6521	17.7043
-38.5758	523.499	17.7239
-38.575	533.6925	17.7434
-38.5726	527.69	17.7629
-38.5713	527.149	17.7825
-38.5688	530.696	17.802
-38.5681	531.069	17.8215
-38.5659	521.645	17.8411
-38.5648	530.9082	17.8606
-38.562	530.183	17.8801
-38.5598	526.125	17.8997
-38.55899	529.648	17.9192
-38.5568	531.39	17.9387
-38.5571	523.037	17.9583
-38.5544	528.177	17.9778
-38.5528	531.048	17.9973
-38.5514	527.087	18.0168
-38.5508	524.537	18.0364
-38.5476	531.262	18.0559
-38.54631	527.7298	18.0754
-38.5458	525.243	18.095
-38.5432	530.576	18.1145
-38.5412	529.6803	18.134
-38.5401	526.025	18.1536
-38.5377	527.093	18.1731
-38.5366	529.177	18.1926
-38.53381	524.9668	18.2122
-38.5338	528.239	18.2317
-38.5315	532.413	18.2512
-38.5301	526.725	18.2708
-38.5273	522.287	18.2903
-38.5273	530.683	18.3098
-38.5255	525.977	18.3293
-38.5231	526.3736	18.3489
-38.5213	530.945	18.3684
-38.5207	530.448	18.3879
-38.5189	521.656	18.4075
-38.5168	532.179	18.427
-38.5138	528.8559	18.4465
-38.513	526.024	18.4661
-38.5134	528.184	18.4856
-38.5108	530.948	18.5051
-38.5086	520.252	18.5247
-38.507	526.34	18.5442
-38.5059	527.879	18.5637
-38.5038	525.591	18.5833
-38.5029	525.571	18.6028
-38.5011	529.412	18.6223
-38.4994	520.7	18.6418
-38.4975	525.491	18.6614
-38.4961	530.171	18.6809
-38.4948	526.658	18.7004
-38.4933	524.159	18.72
-38.4906	526.129	18.7395
-38.4894	526.962	18.759
-38.4888	523.0014	18.7786
-38.4864	527.049	18.7981
-38.4841	528.412	18.8176
-38.4831	525.318	18.8372
-38.4805	522.956	18.8567
-38.47961	529.421	18.8762
-38.47773	523.65	18.8958
-38.4767	525.824	18.9153
-38.4742	530.019	18.9348
-38.474	526.296	18.9543
-38.4722	520.814	18.9739
-38.4701	530.255	18.9934
-38.4688	528.503	19.0129
-38.4659	525.907	19.0325
-38.4657	529.06	19.052
-38.4643	529.9386	19.0715
-38.463	519.004	19.0911
-38.4599	529.685	19.1106
-38.4584	529.495	19.1301
-38.45575	524.869	19.1497
-38.455	526.052	19.1692
-38.4541	529.628	19.1887
-38.4516	522.521	19.2083
-38.45	526.282	19.2278
-38.4486	528.651	19.2473
-38.4489	524.912	19.2668
-38.4451	525.402	19.2864
-38.4442	527.122	19.3059
-38.44257	523.6767	19.3254
-38.4417	523.707	19.345
-38.4394	529.944	19.3645
-38.4369	528.757	19.384
-38.4358	523.534	19.4036
-38.4347	525.556	19.4231
-38.4324	526.645	19.4426
-38.4308	524.068	19.4622
-38.4283	527.729	19.4817
-38.4271	528.427	19.5012
-38.4268	524.127	19.5208
-38.4236	520.293	19.5403
-38.4226	530.402	19.5598
-38.4204	523.938	19.5793
-38.419	524.564	19.5989
-38.4188	529.499	19.6184
-38.4162	528.02	19.6379
-38.4147	518.924	19.6575
-38.4133	529.831	19.677
-38.4108	527.502	19.6965
-38.4091	523.317	19.7161
-38.4075	527.3031	19.7356
-38.40712	528.917	19.7551
-38.4036	518.9986	19.7747
-38.4027	526.177	19.7942
-38.4016	530.2276	19.8137
-38.4005	523.815	19.8333
-38.3985	524.43	19.8528
-38.3972	528.454	19.8723
-38.39521	522.841	19.8918
-38.39362	524.939	19.9114
-38.3916	529.3913	19.9309
-38.3894	525.336	19.9504
-38.3886	522.826	19.97
-38.3861	525.976	19.9895
-38.385	525.469	20.009
-38.3842	523.775	20.0188

Data Header:			0.254_solid_uprint_typeiv_4545_r0			Time:	36.6924	s	4/13/2019 6:56:47 PM
Data Acquisition:	Timed
Station Name:	ft40.cfg
Test File Name:	Type IV_Monotonic.tst
Displacement	Force	Running Time
mm	N	s
-38.38332	522.424	20.0286
-38.3822	526.546	20.0481
-38.3808	528.505	20.0676
-38.3777	523.98	20.0872
-38.37735	522.256	20.1067
-38.3751	529.12	20.1262
-38.3734	524.847	20.1458
-38.37344	526.841	20.1653
-38.372	529.346	20.1848
-38.36985	525.813	20.2043
-38.3674	520.268	20.2239
-38.36549	529.604	20.2434
-38.3645	524.093	20.2629
-38.3621	522.654	20.2825
-38.361	527.834	20.302
-38.3591	527.822	20.3215
-38.3587	518.753	20.3411
-38.3555	527.768	20.3606
-38.3535	526.218	20.3801
-38.3533	523.747	20.3997
-38.3511	525.312	20.4192
-38.3502	527.706	20.4387
-38.348	519.097	20.4583
-38.3462	526.56	20.4778
-38.3458	528.095	20.4973
-38.3425	524.58	20.5168
-38.3412	523.217	20.5364
-38.3398	523.975	20.5559
-38.3386	522.259	20.5754
-38.337	522.905	20.595
-38.3342	526.556	20.6145
-38.3339	527.091	20.634
-38.3319	522.51	20.6536
-38.3305	524.0448	20.6731
-38.327	526.846	20.6926
-38.3268	521.497	20.7122
-38.32431	526.095	20.7317
-38.3231	528.263	20.7512
-38.3218	523.623	20.7708
-38.3213	521.105	20.7903
-38.3189	528.806	20.8098
-38.3163	521.942	20.8293
-38.3152	523.1203	20.8489
-38.3143	528.461	20.8684
-38.3113	526.089	20.8879
-38.312	517.517	20.9075
-38.3087	528.782	20.927
-38.3074	526.033	20.9465
-38.3063	521.887	20.9661
-38.3039	525.357	20.9856
-38.303	527.827	21.0051
-38.3012	518.706	21.0247
-38.299	526.143	21.0442
-38.2971	527.453	21.0637
-38.2944	524.563	21.0833
-38.2933	524.796	21.1028
-38.2934	526.643	21.1223
-38.2912	520.56	21.1418
-38.2892	522.1189	21.1614
-38.2868	528.355	21.1809
-38.2863	526.457	21.2004
-38.2846	522.685	21.22
-38.2834	524.166	21.2395
-38.2811	523.66	21.259
-38.2807	522.12	21.2786
-38.2781	525.634	21.2981
-38.2759	527.757	21.3176
-38.275	520.739	21.3372
-38.2737	521.44	21.3567
-38.2707	528.474	21.3762
-38.2684	521.566	21.3958
-38.2682	523.334	21.4153
-38.2669	528.355	21.4348
-38.2659	523.994	21.4543
-38.2643	519.472	21.4739
-38.2623	527.34	21.4934
-38.2599	524.587	21.5129
-38.2592	521.977	21.5325
-38.2574	527.078	21.552
-38.255	525.97	21.5715
-38.2521	517.225	21.5911
-38.2527	526.1	21.6106
-38.2501	526.816	21.6301
-38.2483	521.045	21.6497
-38.2475	523.421	21.6692
-38.245	525.449	21.6887
-38.243	519.52	21.7083
-38.2412	523.778	21.7278
-38.24	527.007	21.7473
-38.2379	521.397	21.7668
-38.2381	522.311	21.7864
-38.23497	526.201	21.8059
-38.23431	522.534	21.8254
-38.2317	519.873	21.845
-38.2306	527.459	21.8645
-38.2293	524.728	21.884
-38.2277	520.759	21.9036
-38.2263	522.2785	21.9231
-38.2239	524.672	21.9426
-38.2238	520.967	21.9622
-38.2204	525.325	21.9817
-38.2189	526.538	22.0012
-38.2176	522.66	22.0208
-38.2171	517.857	22.0403
-38.2152	528.679	22.0598
-38.2134	522.785	22.0793
-38.2108	521.358	22.0989
-38.2096	527.078	22.1184
-38.2077	524.4165	22.1379
-38.2059	516.024	22.1575
-38.2046	529	22.177
-38.2037	523.913	22.1965
-38.20042	521.218	22.2161
-38.2006	524.698	22.2356
-38.1981	525.665	22.2551
-38.19603	516.845	22.2747
-38.1939	524.078	22.2942
-38.193	527.301	22.3137
-38.1918	520.927	22.3333
-38.1892	521.899	22.3528
-38.1884	526.506	22.3723
-38.1864	519.393	22.3918
-38.185	521.49	22.4114
-38.1841	526.5863	22.4309
-38.1823	522.875	22.4504
-38.1802	521.499	22.47
-38.1785	522.323	22.4895
-38.1769	521.898	22.509
-38.1755	519.41	22.5286
-38.1734	524.6	22.5481
-38.1718	523.749	22.5676
-38.1708	520.779	22.5872
-38.169	518.994	22.6067
-38.1672	525.335	22.6262
-38.1658	519.992	22.6458
-38.1637	521.83	22.6653
-38.1616	527.052	22.6848
-38.161	521.598	22.7043
-38.1591	515.077	22.7239
-38.157	526.023	22.7434
-38.1565	522.129	22.7629
-38.153	518.744	22.7825
-38.15255	524.211	22.802
-38.1511	523.637	22.8215
-38.1494	515.194	22.8411
-38.1491	524.666	22.8606
-38.1465	525.02	22.8801
-38.1447	520.197	22.8997
-38.1445	521.097	22.9192
-38.1414	525.121	22.9387
-38.1394	517.203	22.9583
-38.138	520.844	22.9778
-38.1369	526.161	22.9973
-38.1352	522.114	23.0168
-38.133	520.6076	23.0364
-38.1315	522.789	23.0559
-38.1298	519.356	23.0754
-38.12846	519.914	23.095
-38.1277	525.506	23.1145
-38.1239	523.466	23.134
-38.12397	519.955	23.1536
-38.1213	521.2674	23.1731
-38.1201	524.941	23.1926
-38.11916	519.01	23.2122
-38.11681	522.376	23.2317
-38.1145	524.796	23.2512
-38.1124	521.818	23.2708
-38.1103	516.31	23.2903
-38.1111	526.405	23.3098
-38.1088	519.723	23.3293
-38.1082	521.057	23.3489
-38.1062	525.803	23.3684
-38.1038	523.713	23.3879
-38.1028	514.083	23.4075
-38.1011	524.869	23.427
-38.09866	521.883	23.4465
-38.0979	519.453	23.4661
-38.0957	522.577	23.4856
-38.0946	523.49	23.5051
-38.0927	515.3775	23.5247
-38.0903	523.3811	23.5442
-38.0894	524.536	23.5637
-38.0884	518.206	23.5833
-38.0863	519.616	23.6028
-38.085	524.448	23.6223
-38.0818	517.374	23.6418
-38.0806	518.015	23.6614
-38.0792	523.245	23.6809
-38.0779	522.379	23.7004
-38.07745	519.301	23.72
-38.07513	521.269	23.7395
-38.0734	520.7215	23.759
-38.071	517.728	23.7786
-38.07	523.757	23.7981
-38.0685	523.388	23.8176
-38.0662	518.824	23.8372
-38.0641	518.67	23.8567
-38.0619	525.322	23.8762
-38.0606	518.427	23.8958
-38.0607	519.647	23.9153
-38.0578	524.207	23.9348
-38.0558	521.367	23.9543
-38.05468	516.315	23.9739
-38.0527	525.31	23.9934
-38.0521	520.7276	24.0129
-38.0505	519.507	24.0325
-38.0489	523.451	24.052
-38.0477	522.834	24.0715
-38.0454	513.754	24.0911
-38.0437	521.87	24.1106
-38.0421	524.088	24.1301
-38.0398	517.767	24.1497
-38.0394	520.631	24.1692
-38.0374	523.051	24.1887
-38.0355	514.95	24.2083
-38.0338	519.7149	24.2278
-38.0326	524.17	24.2473
-38.02998	519.441	24.2668
-38.0283	517.854	24.2864
-38.0279	520.4809	24.3059
-38.0253	519.183	24.3254
-38.0242	517.387	24.345
-38.022	523.0636	24.3645
-38.02137	522.8288	24.384
-38.02	518.096	24.4036
-38.01759	518.567	24.4231
-38.0157	521.354	24.4426
-38.0148	516.286	24.4622
-38.01387	520.8299	24.4817
-38.0114	523.136	24.5012
-38.009	519.276	24.5208
-38.0077	514.618	24.5403
-38.0058	524.533	24.5598
-38.0047	519.765	24.5793
-38.0027	519.514	24.5989
-38.0015	522.511	24.6184
-37.9991	521.42	24.6379
-37.9977	514.623	24.6575
-37.9972	523.975	24.677
-37.9945	521.607	24.6965
-37.9925	517.848	24.7161
-37.9912	521.729	24.7356
-37.9901	521.691	24.7551
-37.9885	514.597	24.7747
-37.9871	519.334	24.7942
-37.9854	523.475	24.8137
-37.9826	518.4397	24.8333
-37.9817	519.7348	24.8528
-37.9806	521.354	24.8723
-37.9789	515.446	24.8918
-37.9765	517.633	24.9114
-37.9747	524.247	24.9309
-37.973	518.352	24.9504
-37.9718	517.153	24.97
-37.9713	517.118	24.9895
-37.9699	520.5733	25.009
-37.9673	516.402	25.0286
-37.9648	520.6922	25.0481
-37.9639	521.4342	25.0676
-37.962	517.057	25.0872
-37.96064	515.384	25.1067
-37.9592	523.051	25.1262
-37.9578	516.414	25.1458
-37.9547	518.15	25.1653
-37.95351	522.396	25.1848
-37.9529	518.753	25.2043
-37.9492	513.726	25.2239
-37.9498	521.493	25.2434
-37.9477	519.894	25.2629
-37.9467	516.799	25.2825
-37.9443	521.569	25.302
-37.9436	520.59	25.3215
-37.9421	513.093	25.3411
-37.9395	521.521	25.3606
-37.9382	521.385	25.3801
-37.9357	515.231	25.3997
-37.935	519.947	25.4192
-37.9327	521.755	25.4387
-37.9306	515.163	25.4583
-37.9299	518.094	25.4778
-37.9276	523.694	25.4973
-37.9252	517.768	25.5168
-37.9245	517.256	25.5364
-37.92326	520.061	25.5559
-37.9209	516.484	25.5754
-37.9202	516.2663	25.595
-37.9187	521.8728	25.6145
-37.9158	519.956	25.634
-37.9143	515.776	25.6536
-37.914	515.398	25.6731
-37.91156	521.785	25.6926
-37.9101	516.32	25.7122
-37.909	520.416	25.7317
-37.9067	522.275	25.7512
-37.90287	517.44	25.7708
-37.903	513.2	25.7903
-37.9024	523.876	25.8098
-37.9002	516.216	25.8293
-37.8996	516.802	25.8489
-37.8978	521.2442	25.8684
-37.8956	519.884	25.8879
-37.8943	510.725	25.9075
-37.8924	521.54	25.927
-37.89082	519.475	25.9465
-37.8892	516.933	25.9661
-37.8874	520.698	25.9856
-37.8861	519.675	26.0051
-37.8843	511.934	26.0247
-37.8839	519.719	26.0442
-37.881	522.2359	26.0637
-37.87846	516.49	26.0833
-37.8778	516.9	26.1028
-37.8774	518.829	26.1223
-37.8751	516.976	26.1418
-37.8724	516.89	26.1614
-37.8708	521.733	26.1809
-37.8686	516.701	26.2004
-37.8677	516.117	26.22
-37.8675	518.322	26.2395
-37.8644	518.596	26.259
-37.8636	513.588	26.2786
-37.8611	519.246	26.2981
-37.8595	521.63	26.3176
-37.8586	516.8078	26.3372
-37.8579	514.276	26.3567
-37.8553	523.6225	26.3762
-37.8535	514.509	26.3958
-37.8525	518.002	26.4153
-37.8497	522.006	26.4348
-37.8482	517.899	26.4543
-37.8464	512.445	26.4739
-37.8447	522.648	26.4934
-37.8429	516.112	26.5129
-37.8425	515.684	26.5325
-37.8402	521.41	26.552
-37.8378	519.947	26.5715
-37.83749	511.389	26.5911
-37.8348	520.15	26.6106
-37.833	521.729	26.6301
-37.832	515.828	26.6497
-37.8308	518.571	26.6692
-37.8284	519.714	26.6887
-37.8271	512.168	26.7083
-37.8266	517.059	26.7278
-37.8235	521.054	26.7473
-37.8222	516.389	26.7668
-37.8205	515.528	26.7864
-37.8186	518.18	26.8059
-37.818	518.06	26.8254
-37.8163	514.755	26.845
-37.814	521.379	26.8645
-37.8117	518.12	26.884
-37.8103	514.987	26.9036
-37.8088	515.2691	26.9231
-37.8076	520.085	26.9426
-37.8069	514.328	26.9622
-37.8044	518.249	26.9817
-37.8034	521.639	27.0012
-37.8016	517.242	27.0208
-37.799	511.712	27.0403
-37.7985	522.242	27.0598
-37.7957	516.11	27.0793
-37.7944	516.0127	27.0989
-37.7931	520.935	27.1184
-37.7914	517.494	27.1379
-37.7894	510.277	27.1575
-37.7887	521.681	27.177
-37.7874	519.215	27.1965
-37.7841	513.006	27.2161
-37.7838	519.548	27.2356
-37.7817	519.052	27.2551
-37.7801	511.121	27.2747
-37.77869	518.327	27.2942
-37.7768	519.645	27.3137
-37.77354	514.505	27.3333
-37.7727	517.436	27.3528
-37.7717	519.377	27.3723
-37.7695	514.057	27.3918
-37.7686	515.394	27.4114
-37.7664	519.056	27.4309
-37.7645	517.078	27.4504
-37.764	514.676	27.47
-37.7637	514.766	27.4895
-37.7603	518.448	27.509
-37.7588	513.774	27.5286
-37.758	518.429	27.5481
-37.7555	519.209	27.5676
-37.7553	516.128	27.5872
-37.7527	513.023	27.6067
-37.7502	522.4563	27.6262
-37.7494	514.326	27.6458
-37.7464	515.113	27.6653
-37.7457	519.95	27.6848
-37.74474	516.3454	27.7043
-37.7431	511.913	27.7239
-37.7411	521.542	27.7434
-37.7383	515.69	27.7629
-37.7367	514.308	27.7825
-37.736	518.321	27.802
-37.734	516.363	27.8215
-37.732	509.771	27.8411
-37.73122	518.081	27.8606
-37.7298	518.3866	27.8801
-37.7275	514.0976	27.8997
-37.72691	515.685	27.9192
-37.7251	517.441	27.9387
-37.7225	512.008	27.9583
-37.7221	513.371	27.9778
-37.7185	518.313	27.9973
-37.7176	514.578	28.0168
-37.7156	514.6322	28.0364
-37.7151	516.9776	28.0559
-37.7124	515.828	28.0754
-37.7108	511.946	28.095
-37.7094	518.419	28.1145
-37.7084	519.786	28.134
-37.7077	514.332	28.1536
-37.7055	512.711	28.1731
-37.70409	519.103	28.1926
-37.7023	512.783	28.2122
-37.6997	516.764	28.2317
-37.6988	520.82	28.2512
-37.6965	514.187	28.2708
-37.6955	510.852	28.2903
-37.6933	521.039	28.3098
-37.6923	514.303	28.3293
-37.6906	514.412	28.3489
-37.6893	518.414	28.3684
-37.688	516.316	28.3879
-37.6865	510.104	28.4075
-37.6833	519.448	28.427
-37.682	514.8775	28.4465
-37.6814	511.234	28.4661
-37.6775	516.99	28.4856
-37.67786	517.809	28.5051
-37.6754	509.693	28.5247
-37.674	515.1745	28.5442
-37.6718	519.783	28.5637
-37.6703	513.439	28.5833
-37.6696	513.0238	28.6028
-37.6674	515.505	28.6223
-37.6655	513.158	28.6418
-37.6644	513.262	28.6614
-37.6634	519.093	28.6809
-37.6626	516.037	28.7004
-37.66	512.533	28.72
-37.6587	514.543	28.7395
-37.6558	516.03	28.759
-37.6559	509.883	28.7786
-37.6527	516.573	28.7981
-37.65123	517.684	28.8176
-37.6498	513.628	28.8372
-37.6479	510.071	28.8567
-37.6464	518.66	28.8762
-37.645	511.738	28.8958
-37.6438	514.322	28.9153
-37.6416	519.829	28.9348
-37.6404	513.781	28.9543
-37.6393	508.3345	28.9739
-37.6355	519.883	28.9934
-37.6352	515.097	29.0129
-37.6335	511.336	29.0325
-37.6317	517.165	29.052
-37.6294	516.279	29.0715
-37.6286	509.826	29.0911
-37.6261	516.076	29.1106
-37.6253	518.083	29.1301
-37.6242	510.596	29.1497
-37.6222	515.079	29.1692
-37.6206	516.524	29.1887
-37.6183	510.8558	29.2083
-37.6174	512.44	29.2278
-37.616	519.326	29.2473
-37.6143	513.422	29.2668
-37.612	513.177	29.2864
-37.6115	514.411	29.3059
-37.6091	514.072	29.3254
-37.6069	510.821	29.345
-37.6057	517.38	29.3645
-37.60498	517.471	29.384
-37.6022	512.942	29.4036
-37.6005	510.642	29.4231
-37.5988	520.249	29.4426
-37.5976	511.304	29.4622
-37.5961	513.792	29.4817
-37.59549	517.133	29.5012
-37.5929	513.015	29.5208
-37.5913	509.889	29.5403
-37.5879	518.959	29.5598
-37.5876	513.039	29.5793
-37.5867	511.077	29.5989
-37.5832	518.378	29.6184
-37.5817	513.413	29.6379
-37.58168	507.368	29.6575
-37.5786	517.421	29.677
-37.5782	516.6098	29.6965
-37.5765	510.868	29.7161
-37.5751	512.951	29.7356
-37.5734	515.417	29.7551
-37.572	508.443	29.7747
-37.5698	514.334	29.7942
-37.5693	518.2785	29.8137
-37.5663	509.875	29.8333
-37.5651	513.619	29.8528
-37.5628	515.857	29.8723
-37.5618	511.228	29.8918
-37.5602	511.18	29.9114
-37.5593	517.869	29.9309
-37.5573	513.753	29.9504
-37.5553	510.935	29.97
-37.5547	512.095	29.9895
-37.5522	515.354	30.009
-37.5515	507.9794	30.0286
-37.5491	515.742	30.0481
-37.54781	517.32	30.0676
-37.5462	512.037	30.0872
-37.54369	510.293	30.1067
-37.5418	519.388	30.1262
-37.5409	511.535	30.1458
-37.5398	511.973	30.1653
-37.5372	516.248	30.1848
-37.5344	513.228	30.2043
-37.5341	507.851	30.2239
-37.5328	518.335	30.2434
-37.5302	514.92	30.2629
-37.5281	511.06	30.2825
-37.5268	518.112	30.302
-37.527	515.676	30.3215
-37.52491	507.718	30.3411
-37.5227	515.135	30.3606
-37.5215	516.653	30.3801
-37.5198	510.363	30.3997
-37.5182	513.821	30.4192
-37.5165	515.6189	30.4387
-37.5154	511.008	30.4583
-37.5129	512.727	30.4778
-37.5116	517.375	30.4973
-37.5092	511.163	30.5168
-37.5071	512.274	30.5364
-37.5064	512.395	30.5559
-37.5045	513.593	30.5754
-37.5029	509.353	30.595
-37.5028	515.528	30.6145
-37.5001	514.806	30.634
-37.4981	510.1593	30.6536
-37.4971	510.331	30.6731
-37.495	516.066	30.6926
-37.49361	508.918	30.7122
-37.4924	513.8996	30.7317
-37.4905	516.228	30.7512
-37.4885	513.382	30.7708
-37.4873	508.304	30.7903
-37.4848	517.804	30.8098
-37.4828	511.657	30.8293
-37.4819	510.566	30.8489
-37.4798	515.595	30.8684
-37.4794	512.388	30.8879
-37.4763	506.742	30.9075
-37.4757	517.582	30.927
-37.4739	513.726	30.9465
-37.4722	509.278	30.9661
-37.4711	513.3869	30.9856
-37.4694	514.317	31.0051
-37.4672	507.212	31.0247
-37.4653	512.939	31.0442
-37.4636	517.501	31.0637
-37.4627	511.438	31.0833
-37.461	512.204	31.1028
-37.4597	514.37	31.1223
-37.4579	509.614	31.1418
-37.4564	509.847	31.1614
-37.45388	515.229	31.1809
-37.4531	512.513	31.2004
-37.4525	509.603	31.22
-37.4481	511.485	31.2395
-37.4473	515.957	31.259
-37.4471	507.096	31.2786
-37.4448	513.79	31.2981
-37.4429	516.558	31.3176
-37.4413	510.059	31.3372
-37.4401	507.573	31.3567
-37.43755	518.0484	31.3762
-37.4366	508.603	31.3958
-37.4344	512.734	31.4153
-37.4336	517.204	31.4348
-37.432	511.862	31.4543
-37.4287	506.5018	31.4739
-37.4279	517.05	31.4934
-37.4262	512.353	31.5129
-37.4254	509.457	31.5325
-37.4243	515.247	31.552
-37.4228	513.502	31.5715
-37.4204	506.585	31.5911
-37.4185	514.545	31.6106
-37.4165	514.778	31.6301
-37.4154	507.391	31.6497
-37.4134	512.509	31.6692
-37.4122	514.789	31.6887
-37.4107	510.014	31.7083
-37.4088	511.7749	31.7278
-37.4079	514.872	31.7473
-37.40662	510.235	31.7668
-37.4035	512.001	31.7864
-37.402	510.794	31.8059
-37.40131	511.217	31.8254
-37.3997	506.164	31.845
-37.3986	514.976	31.8645
-37.3957	513.928	31.884
-37.39521	509.774	31.9036
-37.3919	510.18	31.9231
-37.3909	515.348	31.9426
-37.3885	509.04	31.9622
-37.3873	511.301	31.9817
-37.3866	514.739	32.0012
-37.3839	510.527	32.0208
-37.3835	506.943	32.0403
-37.3815	517.407	32.0598
-37.3793	509.394	32.0793
-37.37846	508.8324	32.0989
-37.3764	515.136	32.1184
-37.3738	512.956	32.1379
-37.3739	503.851	32.1575
-37.3705	513.434	32.177
-37.3689	512.569	32.1965
-37.3683	507.19	32.2161
-37.3674	512.2821	32.2356
-37.3651	510.757	32.2551
-37.3633	505.565	32.2747
-37.3613	511.72	32.2942
-37.35915	513.7251	32.3137
-37.3582	507.967	32.3333
-37.3575	508.451	32.3528
-37.3561	511.35	32.3723
-37.3529	511.681	32.3918
-37.3515	507.394	32.4114
-37.3507	513.862	32.4309
-37.3497	511.072	32.4504
-37.347	509.4837	32.47
-37.3457	509.8291	32.4895
-37.345	512.391	32.509
-37.3413	506.157	32.5286
-37.3406	510.754	32.5481
-37.3384	515.302	32.5676
-37.3366	507.3566	32.5872
-37.3356	504.692	32.6067
-37.3341	514.297	32.6262
-37.3329	506.896	32.6458
-37.3304	509.646	32.6653
-37.3273	512.235	32.6848
-37.3278	508.673	32.7043
-37.3261	502.742	32.7239
-37.324	515.168	32.7434
-37.3233	509.39	32.7629
-37.3215	504.756	32.7825
-37.3192	511.536	32.802
-37.3175	510.316	32.8215
-37.3161	504.314	32.8411
-37.3141	510.8996	32.8606
-37.3126	511.769	32.8801
-37.3118	504.762	32.8997
-37.3102	511.057	32.9192
-37.3075	510.665	32.9387
-37.3061	506.85	32.9583
-37.3053	508.484	32.9778
-37.3032	514.0813	32.9973
-37.3023	507.6568	33.0168
-37.2999	508.396	33.0364
-37.2971	508.135	33.0559
-37.2955	510.549	33.0754
-37.29467	506.698	33.095
-37.29314	512.313	33.1145
-37.2909	512.5968	33.134
-37.2895	506.811	33.1536
-37.2872	506.685	33.1731
-37.2871	512.801	33.1926
-37.2854	505.688	33.2122
-37.2842	508.785	33.2317
-37.2817	512.077	33.2512
-37.2799	507.6058	33.2708
-37.2785	502.646	33.2903
-37.2779	511.512	33.3098
-37.2752	506.3179	33.3293
-37.2742	506.028	33.3489
-37.2715	511.306	33.3684
-37.2714	508.618	33.3879
-37.2695	503.694	33.4075
-37.2667	512.096	33.427
-37.2656	509.484	33.4465
-37.2648	503.2695	33.4661
-37.263	509.104	33.4856
-37.2608	509.68	33.5051
-37.2589	505.026	33.5247
-37.2569	507.274	33.5442
-37.2564	511.608	33.5637
-37.2533	504.908	33.5833
-37.2525	507.307	33.6028
-37.2509	509.419	33.6223
-37.24968	506.868	33.6418
-37.2473	503.786	33.6614
-37.2474	512.146	33.6809
-37.2445	508.227	33.7004
-37.2433	505.477	33.72
-37.2417	505.891	33.7395
-37.2396	509.88	33.759
-37.2389	503.369	33.7786
-37.2359	509.398	33.7981
-37.2353	509.596	33.8176
-37.2333	506.062	33.8372
-37.2317	503.679	33.8567
-37.2295	511.759	33.8762
-37.2285	503.362	33.8958
-37.2262	504.791	33.9153
-37.2259	511.399	33.9348
-37.2229	506.167	33.9543
-37.2221	502.152	33.9739
-37.219	508.305	33.9934
-37.2175	505.427	34.0129
-37.2178	503.782	34.0325
-37.2158	507.772	34.052
-37.2123	505.979	34.0715
-37.21172	500.44	34.0911
-37.2105	507.965	34.1106
-37.2091	508.541	34.1301
-37.2073	501.801	34.1497
-37.2051	504.2739	34.1692
-37.2041	504.212	34.1887
-37.2019	502.384	34.2083
-37.20063	502.225	34.2278
-37.1982	509.7074	34.2473
-37.1965	503.196	34.2668
-37.1962	504.532	34.2864
-37.1935	505.44	34.3059
-37.1923	504.46	34.3254
-37.1909	500.613	34.345
-37.1886	507.364	34.3645
-37.187	506.65	34.384
-37.1861	500.65	34.4036
-37.184	500.435	34.4231
-37.1829	509.04	34.4426
-37.1813	499.639	34.4622
-37.1795	504.601	34.4817
-37.17802	507.268	34.5012
-37.1746	500.506	34.5208
-37.1755	497.066	34.5403
-37.1736	508.026	34.5598
-37.1708	500.701	34.5793
-37.171	499.077	34.5989
-37.169	505.538	34.6184
-37.1667	500.158	34.6379
-37.1644	496.414	34.6575
-37.1633	502.617	34.677
-37.16161	502.852	34.6965
-37.1589	497.4603	34.7161
-37.1587	502.056	34.7356
-37.1569	500.66	34.7551
-37.15477	494.692	34.7747
-37.1533	500.049	34.7942
-37.1516	502.892	34.8137
-37.1497	498.016	34.8333
-37.1483	495.928	34.8528
-37.1465	498.124	34.8723
-37.1451	495.698	34.8918
-37.144	492.201	34.9114
-37.1424	497.338	34.9309
-37.1411	491.716	34.9504
-37.1391	487.61	34.97
-37.1378	485.2049	34.9895
-37.1329	-60.5536	35.009
-37.1315	-27.6863	35.0286
-37.1303	-43.1591	35.0481
-37.1296	-36.0479	35.0676
-37.1275	-43.0264	35.0872
-37.1268	-44.4533	35.1067
-37.1243	-36.0914	35.1262
-37.1225	-43.80024	35.1458
-37.1221	-41.5159	35.1653
-37.12075	-36.2741	35.1848
-37.1188	-42.4883	35.2043
-37.1171	-46.1849	35.2239
-37.1155	-36.6636	35.2434
-37.1135	-37.9363	35.2629
-37.1127	-44.5922	35.2825
-37.11087	-39.1672	35.302
-37.1092	-40.9931	35.3215
-37.1071	-45.0163	35.3411
-37.1053	-37.991	35.3606
-37.104	-37.3681	35.3801
-37.102	-43.99065	35.3997
-37.1007	-39.71064	35.4192
-37.0993	-39.7863	35.4387
-37.0975	-41.76128	35.4583
-37.09668	-44.3825	35.4778
-37.095	-37.1073	35.4973
-37.0934	-40.3173	35.5168
-37.0905	-41.9816	35.5364
-37.0888	-42.0075	35.5559
-37.0884	-38.5269	35.5754
-37.0861	-44.1079	35.595
-37.0842	-37.479	35.6145
-37.0828	-38.8862	35.634
-37.0816	-42.9171	35.6536
-37.0801	-42.0969	35.6731
-37.079	-36.1625	35.6926
-37.0759	-44.5437	35.7122
-37.0746	-40.8785	35.7317
-37.0734	-36.2418	35.7512
-37.0715	-41.2915	35.7708
-37.07016	-44.5927	35.7903
-37.0683	-36.6899	35.8098
-37.0674	-41.6227	35.8293
-37.0653	-42.6687	35.8489
-37.0632	-37.69949	35.8684
-37.0611	-40.0561	35.8879
-37.0604	-45.5295	35.9075
-37.0585	-37.8894	35.927
-37.0579	-39.6016	35.9465
-37.0557	-43.6324	35.9661
-37.0544	-39.6122	35.9856
-37.0528	-41.9085	36.0051
-37.0515	-43.7099	36.0247
-37.0503	-40.5991	36.0442
-37.0478	-37.4032	36.0637
-37.0458	-43.8812	36.0833
-37.0443	-40.2805	36.1028
-37.0413	-40.6817	36.1223
-37.0405	-40.2795	36.1418
-37.0398	-44.5262	36.1614
-37.0375	-37.14883	36.1809
-37.0359	-39.3317	36.2004
-37.0342	-41.6872	36.22
-37.0329	-42.27618	36.2395
-37.0309	-37.2308	36.259
-37.0289	-44.3126	36.2786
-37.0286	-38.7163	36.2981
-37.0269	-38.5582	36.3176
-37.0248	-42.5916	36.3372
-37.0225	-43.8434	36.3567
-37.0223	-34.9903	36.3762
-37.0197	-42.7002	36.3958
-37.0191	-41.9568	36.4153
-37.0155	-35.07132	36.4348
-37.0144	-41.14275	36.4543
-37.0131	-44.9828	36.4739
-37.012	-37.2615	36.4934
-37.0097	-39.5041	36.5129
-37.0079	-43.4479	36.5325
-37.0073	-36.0407	36.552
-37.0057	-40.3733	36.5715
-37.0028	-44.1557	36.5911
-37.0025	-40.0629	36.6106
-36.9995	-36.4338	36.6301
-36.9973	-42.6475	36.6497
-36.9971	-38.95546	36.6692
-36.9957	-37.2005	36.679