File: data/processed_data_files/tensile/0.254_hd_uprint_typei_4545_r(4).dat
MTS793|BTW|ENU|1|2|.|/|:|1|0|0|A

Data Header:			0.254_hd_uprint_typei_4545_r0			Time:	20.0181	s	4/15/2019 4:12:39 PM
Data Acquisition:	Timed
Station Name:	ft40.cfg
Test File Name:	monotonic_0.2540_typei_hd_4545_uprint.tst
Displacement	Force	Running Time
mm	N	s
9.97996	-126.549	0.0224609
9.979825	-127.829	0.0419922
9.98005	-122.69	0.0615234
9.98101	-119.396	0.0810547
9.9828	-125.302	0.100586
9.9842	-123.051	0.120117
9.98583	-119.224	0.139648
9.98801	-119.997	0.15918
9.989747	-123.686	0.178711
9.98986	-115.384	0.198242
9.99205	-118.49	0.217773
9.9939	-122.707	0.237305
9.99463	-119.205	0.256836
9.99794	-115.3211	0.276367
9.99833	-121.574	0.295898
10.0008	-114.298	0.31543
10.0026	-112.056	0.334961
10.0036	-119.881	0.354492
10.0056	-120.243	0.374023
10.0068	-108.649	0.393555
10.00881	-116.598	0.413086
10.0099	-116.256	0.432617
10.0126	-108.5025	0.452148
10.0139	-114.387	0.47168
10.0137	-115.105	0.491211
10.0167	-106.492	0.510742
10.0182	-107.646	0.530273
10.02	-115.564	0.549805
10.0218	-106.809	0.569336
10.024	-109.863	0.588867
10.0244	-114.773	0.608398
10.0273	-108.221	0.62793
10.0272	-103.946	0.647461
10.0296	-110.892	0.666992
10.0307	-107.091	0.686523
10.0324	-104.899	0.706055
10.0344	-107.337	0.725586
10.036	-107.368	0.745117
10.0379	-97.2882	0.764648
10.0387	-104.834	0.78418
10.0407	-107.499	0.803711
10.0418	-101.8	0.823242
10.0441	-99.508	0.842773
10.0458	-105.1284	0.862305
10.0488	-97.7552	0.881836
10.04937	-98.0056	0.901367
10.0515	-102.89	0.920898
10.05263	-101.839	0.94043
10.0535	-94.0384	0.959961
10.0558	-101.789	0.979492
10.0562	-97.3921	0.999023
10.0591	-92.0546	1.01855
10.0609	-98.3806	1.03809
10.062	-100.759	1.05762
10.063	-89.36322	1.07715
10.0655	-94.6998	1.09668
10.0666	-97.906	1.11621
10.0693	-89.0184	1.13574
10.0708	-92.6107	1.15527
10.0711	-98.3023	1.1748
10.073	-85.8702	1.19434
10.0757	-86.3503	1.21387
10.0773	-95.4972	1.2334
10.0774	-87.8945	1.25293
10.07971	-87.0307	1.27246
10.0816	-92.7332	1.29199
10.0827	-87.69194	1.31152
10.0846	-81.2694	1.33105
10.0867	-87.9108	1.35059
10.0886	-85.3226	1.37012
10.08994	-83.3114	1.38965
10.0911	-86.2617	1.40918
10.094	-87.1941	1.42871
10.0951	-76.7185	1.44824
10.0967	-80.8933	1.46777
10.0981	-86.6557	1.4873
10.0992	-82.6092	1.50684
10.1016	-75.42981	1.52637
10.1031	-84.685	1.5459
10.1052	-76.44532	1.56543
10.1051	-75.2736	1.58496
10.1082	-80.9956	1.60449
10.1094	-79.4665	1.62402
10.1105	-70.4223	1.64355
10.1132	-78.051	1.66309
10.1153	-78.6783	1.68262
10.1167	-70.8446	1.70215
10.1174	-73.8961	1.72168
10.1204	-80.1453	1.74121
10.1202	-68.0788	1.76074
10.1227	-69.7178	1.78027
10.1234	-72.5952	1.7998
10.1253	-68.012	1.81934
10.1274	-69.3541	1.83887
10.1292	-76.7561	1.8584
10.1309	-65.7609	1.87793
10.1322	-62.8134	1.89746
10.13408	-71.3624	1.91699
10.13469	-66.6106	1.93652
10.1372	-64.44326	1.95605
10.1378	-67.6052	1.97559
10.1404	-64.6177	1.99512
10.1423	-58.2685	2.01465
10.1435	-63.3532	2.03418
10.1449	-63.6936	2.05371
10.1466	-60.1435	2.07324
10.1475	-60.6354	2.09277
10.1505	-65.7406	2.1123
10.1517	-54.3688	2.13184
10.1538	-55.1496	2.15137
10.156	-61.8073	2.1709
10.1564	-60.7102	2.19043
10.1587	-51.1665	2.20996
10.1592	-59.622	2.22949
10.1612	-55.6456	2.24902
10.163	-50.5204	2.26855
10.1655	-57.4121	2.28809
10.1672	-59.13	2.30762
10.1682	-46.1963	2.32715
10.1696	-51.90794	2.34668
10.171	-54.8255	2.36621
10.1727	-47.806	2.38574
10.1738	-49.9894	2.40527
10.1761	-56.5322	2.4248
10.1785	-45.5687	2.44434
10.1793	-46.8945	2.46387
10.1819	-51.8486	2.4834
10.18202	-45.4563	2.50293
10.1843	-44.5002	2.52246
10.1866	-53.1051	2.54199
10.1878	-45.1524	2.56152
10.1891	-39.1013	2.58105
10.1908	-45.1347	2.60059
10.1914	-43.5705	2.62012
10.1939	-39.8765	2.63965
10.1959	-42.8753	2.65918
10.1978	-45.189	2.67871
10.1997	-36.2399	2.69824
10.19993	-41.4282	2.71777
10.2028	-41.8453	2.7373
10.2037	-37.71199	2.75684
10.2047	-33.5228	2.77637
10.2078	-41.5765	2.7959
10.2097	-34.6523	2.81543
10.2103	-31.8489	2.83496
10.2121	-36.6386	2.85449
10.2133	-36.5973	2.87402
10.2142	-28.0401	2.89355
10.2167	-35.444	2.91309
10.2178	-32.4719	2.93262
10.22	-25.4085	2.95215
10.2219	-29.879	2.97168
10.2237	-36.4713	2.99121
10.2256	-23.0498	3.01074
10.226	-26.1207	3.03027
10.2282	-30.8106	3.0498
10.229	-24.466	3.06934
10.2308	-25.23958	3.08887
10.2326	-33.3098	3.1084
10.2347	-22.8257	3.12793
10.2365	-21.3398	3.14746
10.2378	-28.4927	3.16699
10.23926	-22.3792	3.18652
10.2411	-18.9867	3.20605
10.2425	-25.38063	3.22559
10.2452	-21.6194	3.24512
10.2451	-15.3056	3.26465
10.2473	-20.2961	3.28418
10.24934	-21.4167	3.30371
10.2508	-17.2635	3.32324
10.2529	-18.0589	3.34277
10.2541	-20.6573	3.3623
10.2564	-9.41229	3.38184
10.2572	-12.2883	3.40137
10.2584	-18.3536	3.4209
10.2604	-16.1786	3.44043
10.2619	-6.37064	3.45996
10.26426	-15.61078	3.47949
10.26645	-11.4745	3.49902
10.2678	-6.15123	3.51855
10.2691	-9.55077	3.53809
10.2717	-12.9193	3.55762
10.27282	-1.68942	3.57715
10.274	-8.30999	3.59668
10.2749	-9.35333	3.61621
10.2768	-0.876479	3.63574
10.2792	-3.63593	3.65527
10.2802	-12.0716	3.6748
10.2817	1.680496	3.69434
10.2835	-0.656014	3.71387
10.2851	-4.97188	3.7334
10.2868	-0.192401	3.75293
10.2878	1.95435	3.77246
10.2902	-6.50147	3.79199
10.2923	3.01859	3.81152
10.2934	6.51606	3.83105
10.2956	-0.00635084	3.85059
10.2969	0.9087677	3.87012
10.2983	8.28012	3.88965
10.2992	3.044	3.90918
10.3017	1.89319	3.92871
10.3023	11.4744	3.94824
10.305	8.00763	3.96777
10.307	6.11697	3.9873
10.3074	8.33269	4.00684
10.3106	10.55213	4.02637
10.3109	4.99361	4.0459
10.3129	14.0298	4.06543
10.31386	15.5192	4.08496
10.31659	9.70497	4.10449
10.3168	9.920126	4.12402
10.3193	21.3721	4.14355
10.321	11.8448	4.16309
10.3216	14.1818	4.18262
10.3237	20.7171	4.20215
10.32592	18.5762	4.22168
10.3257	12.24343	4.24121
10.33026	25.4813	4.26074
10.3312	18.0029	4.28027
10.3323	15.5243	4.2998
10.3342	24.3236	4.31934
10.3354	24.8891	4.33887
10.3369	15.2114	4.3584
10.3382	25.3492	4.37793
10.3406	28.9715	4.39746
10.3421	22.806	4.41699
10.3434	25.0085	4.43652
10.3449	27.70245	4.45605
10.3477	21.9369	4.47559
10.3486	27.75095	4.49512
10.3514	34.4268	4.51465
10.351	29.0329	4.53418
10.35323	25.9813	4.55371
10.3557	34.1016	4.57324
10.3569	30.6856	4.59277
10.358	28.569	4.6123
10.3592	37.8752	4.63184
10.3621	35.1638	4.65137
10.3638	31.4693	4.6709
10.3654	34.5558	4.69043
10.36643	41.2369	4.70996
10.3689	33.8324	4.72949
10.3708	38.8855	4.74902
10.3709	44.7352	4.76855
10.3739	38.3555	4.78809
10.3743	33.6852	4.80762
10.3762	47.4185	4.82715
10.3775	42.13055	4.84668
10.3794	41.3274	4.86621
10.38052	46.4998	4.88574
10.3827	45.8232	4.90527
10.3835	38.8015	4.9248
10.3866	51.3161	4.94434
10.3872	50.0313	4.96387
10.3887	43.1848	4.9834
10.39121	50.1808	5.00293
10.3923	54.5451	5.02246
10.3938	43.31263	5.04199
10.3965	50.2091	5.06152
10.3972	56.51	5.08105
10.399	51.2829	5.10059
10.4002	53.2066	5.12012
10.4011	57.5671	5.13965
10.403	50.8283	5.15918
10.4051	52.9061	5.17871
10.4063	61.6927	5.19824
10.4093	57.4427	5.21777
10.4095	54.6294	5.2373
10.4115	59.3175	5.25684
10.4138	60.9289	5.27637
10.4146	57.812	5.2959
10.4163	63.6346	5.31543
10.4189	65.2813	5.33496
10.4201	59.2038	5.35449
10.4217	60.3952	5.37402
10.4235	69.2207	5.39355
10.4248	61.3329	5.41309
10.4264	64.8	5.43262
10.4277	71.0138	5.45215
10.42939	68.6594	5.47168
10.4311	62.6028	5.49121
10.4331	74.0867	5.51074
10.4348	70.1518	5.53027
10.4384	68.9378	5.5498
10.4373	75.5006	5.56934
10.4401	74.1161	5.58887
10.4413	64.42	5.6084
10.4424	77.3231	5.62793
10.4444	80.6342	5.64746
10.4459	72.3064	5.66699
10.4476	76.2657	5.68652
10.4492	80.685	5.70605
10.4507	73.8761	5.72559
10.4523	77.5419	5.74512
10.4537	83.702	5.76465
10.4564	78.3581	5.78418
10.4568	79.28286	5.80371
10.4593	84.5169	5.82324
10.4615	81.7536	5.84277
10.4623	79.0889	5.8623
10.4654	90.6502	5.88184
10.4654	87.4437	5.90137
10.4676	82.5355	5.9209
10.4681	84.6437	5.94043
10.471	89.8555	5.95996
10.473	85.8025	5.97949
10.4727	91.415	5.99902
10.4752	93.2644	6.01855
10.4775	88.93042	6.03809
10.47956	86.8323	6.05762
10.48044	98.14389	6.07715
10.4818	93.9163	6.09668
10.4848	91.8183	6.11621
10.48478	98.95018	6.13574
10.48652	98.681	6.15527
10.4899	88.6369	6.1748
10.4904	100.321	6.19434
10.4921	101.104	6.21387
10.4926	96.7903	6.2334
10.4957	102.5331	6.25293
10.4969	104.204	6.27246
10.4982	95.6428	6.29199
10.4994	105.01	6.31152
10.5017	109.256	6.33105
10.50312	101.786	6.35059
10.5042	101.085	6.37012
10.5063	110.427	6.38965
10.5087	103.749	6.40918
10.51	106.057	6.42871
10.5114	110.559	6.44824
10.5138	108.842	6.46777
10.5152	106.217	6.4873
10.5173	112.49	6.50684
10.5172	112.296	6.52637
10.5185	106.813	6.5459
10.521	114.863	6.56543
10.5227	117.749	6.58496
10.52402	111.691	6.60449
10.5258	110.862	6.62402
10.5282	119.394	6.64355
10.5298	114.809	6.66309
10.5317	117.924	6.68262
10.5327	125.027	6.70215
10.534	117.818	6.72168
10.5349	113.973	6.74121
10.5368	127.357	6.76074
10.5389	125.501	6.78027
10.5409	118.548	6.7998
10.5422	126.198	6.81934
10.5443	129.396	6.83887
10.5459	118.278	6.8584
10.5469	129.959	6.87793
10.549	129.884	6.89746
10.55	126.103	6.91699
10.5517	129.322	6.93652
10.5535	133.684	6.95605
10.555	124.392	6.97559
10.5566	129.33	6.99512
10.5589	138.424	7.01465
10.5609	133.34	7.03418
10.562	130.488	7.05371
10.5635	136.86	7.07324
10.5646	133.81	7.09277
10.5658	134.245	7.1123
10.5678	138.987	7.13184
10.5699	139.245	7.15137
10.571	134.77	7.1709
10.5732	138.751	7.19043
10.57423	142.566	7.20996
10.5768	137.125	7.22949
10.5774	141.866	7.24902
10.579	147.621	7.26855
10.5823	143.548	7.28809
10.582	140.02	7.30762
10.585	150.099	7.32715
10.5863	144.191	7.34668
10.5882	144.924	7.36621
10.5894	151.113	7.38574
10.5921	149.676	7.40527
10.5943	140.92	7.4248
10.5942	154.451	7.44434
10.5956	154.45	7.46387
10.5968	149.054	7.4834
10.59918	153.067	7.50293
10.6006	155.84	7.52246
10.6035	146.535	7.54199
10.6042	155.864	7.56152
10.606	158.693	7.58105
10.607	153.796	7.60059
10.6091	155.3271	7.62012
10.6109	161.01	7.63965
10.6117	154.825	7.65918
10.6125	157.1003	7.67871
10.61542	164.764	7.69824
10.61836	163.365	7.71777
10.6187	156.136	7.7373
10.621	165.067	7.75684
10.6217	162.089	7.77637
10.62374	160.409	7.7959
10.6253	167.16	7.81543
10.6267	169.137	7.83496
10.6276	160.7249	7.85449
10.6301	165.277	7.87402
10.6317	170.865	7.89355
10.6343	167.718	7.91309
10.634	166.414	7.93262
10.63585	174.198	7.95215
10.6386	172.413	7.97168
10.6399	167.706	7.99121
10.6416	177.126	8.01074
10.6422	173.369	8.03027
10.645	171.479	8.0498
10.6466	179.7343	8.06934
10.6472	181.554	8.08887
10.6491	168.59	8.1084
10.6512	180.703	8.12793
10.653	182.875	8.14746
10.6535	177.874	8.16699
10.6553	180.637	8.18652
10.6577	185.815	8.20605
10.6587	175.446	8.22559
10.6609	182.052	8.24512
10.6635	188.1423	8.26465
10.6642	182.626	8.28418
10.6651	181.811	8.30371
10.6676	189.936	8.32324
10.6695	184.247	8.34277
10.6703	183.016	8.3623
10.6732	190.852	8.38184
10.6744	193.342	8.40137
10.6756	188.9847	8.4209
10.6776	189.812	8.44043
10.6787	193.198	8.45996
10.6805	189.143	8.47949
10.6822	194.151	8.49902
10.6835	198.046	8.51855
10.6859	193.884	8.53809
10.6873	190.62	8.55762
10.6887	201.063	8.57715
10.6899	197.637	8.59668
10.6928	196.885	8.61621
10.6937	202.13	8.63574
10.6951	203.273	8.65527
10.6963	194.7751	8.6748
10.69852	205.162	8.69434
10.7001	205.989	8.71387
10.7022	200.424	8.7334
10.703	205.999	8.75293
10.7048	211.719	8.77246
10.706	198.226	8.79199
10.7083	206.762	8.81152
10.7094	211.285	8.83105
10.7119	208.905	8.85059
10.7133	208.33	8.87012
10.7153	213.974	8.88965
10.7166	205.872	8.90918
10.71888	210.755	8.92871
10.71888	217.153	8.94824
10.7204	215.592	8.96777
10.7232	209.03	8.9873
10.7251	217.712	9.00684
10.7272	216.337	9.02637
10.7281	212.052	9.0459
10.7298	216.888	9.06543
10.7322	221.4821	9.08496
10.7331	217.109	9.10449
10.7337	218.81	9.12402
10.7357	222.308	9.14355
10.7372	219.755	9.16309
10.7402	220.587	9.18262
10.7408	227.056	9.20215
10.7425	223.925	9.22168
10.7438	217.6748	9.24121
10.7462	228.178	9.26074
10.7468	227.628	9.28027
10.7493	224.305	9.2998
10.7495	229.458	9.31934
10.7517	232.523	9.33887
10.7542	222.327	9.3584
10.7558	234.617	9.37793
10.7571	235.381	9.39746
10.759	227.961	9.41699
10.7597	231.73	9.43652
10.7623	239.712	9.45605
10.7643	230.059	9.47559
10.76392	234.161	9.49512
10.7663	238.552	9.51465
10.7678	236.373	9.53418
10.7698	233.9935	9.55371
10.7717	243.098	9.57324
10.77227	235.52	9.59277
10.77511	236.395	9.6123
10.77694	243.872	9.63184
10.777	245.628	9.65137
10.7799	237.818	9.6709
10.7815	242.982	9.69043
10.78194	245.123	9.70996
10.7842	242.699	9.72949
10.7853	245.2646	9.74902
10.7886	250.396	9.76855
10.789	244.407	9.78809
10.7915	244.666	9.80762
10.793	252.28	9.82715
10.794	248.721	9.84668
10.796	247.075	9.86621
10.7979	255.57	9.88574
10.8004	255.804	9.90527
10.8019	245.717	9.9248
10.80107	255.687	9.94434
10.805	255.756	9.96387
10.8059	253.526	9.9834
10.8079	257.912	10.00293
10.8093	262.669	10.0225
10.8098	250.93	10.042
10.8129	259.617	10.0615
10.8138	264.474	10.0811
10.8148	260.431	10.1006
10.8168	257.966	10.1201
10.8191	266.52	10.1396
10.8199	259.636	10.15918
10.8223	262.004	10.1787
10.823	267.552	10.1982
10.8257	266.1835	10.2178
10.8267	262.108	10.2373
10.8294	273.051	10.2568
10.8294	268.405	10.2764
10.8318	265.608	10.2959
10.8335	271.363	10.31543
10.8346	276.635	10.335
10.8364	267.679	10.3545
10.8387	270.114	10.374
10.84	275.423	10.3936
10.8414	272.202	10.4131
10.8428	274.146	10.4326
10.84518	280.011	10.4521
10.8465	277.021	10.47168
10.8477	272.2366	10.4912
10.8497	281.511	10.5107
10.8512	280.8219	10.5303
10.8523	274.746	10.5498
10.8549	282.984	10.5693
10.8553	286.305	10.5889
10.8577	275.249	10.6084
10.8593	283.865	10.62793
10.8609	287.791	10.6475
10.8622	282.327	10.667
10.8637	285.336	10.6865
10.8657	292.892	10.7061
10.86771	279.0282	10.7256
10.8688	286.372	10.7451
10.8704	293.856	10.7646
10.8726	290.972	10.78418
10.8744	286.961	10.8037
10.8757	294.793	10.8232
10.8778	290.6	10.8428
10.8795	290.707	10.8623
10.8803	296.252	10.8818
10.8813	298.347	10.9014
10.885	290.2319	10.9209
10.8851	298.605	10.94043
10.8866	298.45	10.96
10.8881	295.378	10.9795
10.89015	298.239	10.999
10.8923	304.496	11.0186
10.8937	298.329	11.0381
10.8953	296.478	11.0576
10.8969	303.391	11.0771
10.89832	301.758	11.09668
10.8997	299.853	11.1162
10.9025	308.425	11.1357
10.9035	306.1413	11.1553
10.9055	299.2605	11.1748
10.9071	308.054	11.1943
10.908	311.6991	11.2139
10.9092	303.3667	11.2334
10.9114	309.995	11.25293
10.9134	314.781	11.2725
10.9155	303.235	11.292
10.91577	310.54	11.3115
10.9176	316.08	11.3311
10.9202	310.355	11.3506
10.9216	311.277	11.3701
10.9227	321.418	11.3896
10.925	310.408	11.40918
10.9267	313.015	11.4287
10.9269	320.5925	11.4482
10.9293	321.982	11.4678
10.9303	313.245	11.4873
10.9332	321.5921	11.5068
10.9347	321.125	11.5264
10.9362	318.048	11.5459
10.9382	322.781	11.56543
10.9393	326.979	11.585
10.9421	319.032	11.6045
10.9421	323.761	11.624
10.9444	327.756	11.6436
10.9457	324.889	11.6631
10.9477	322.093	11.6826
10.9497	331.76	11.7021
10.951	329.301	11.72168
10.953	323.979	11.7412
10.9539	331.76	11.7607
10.9552	331.463	11.7803
10.9566	326.848	11.7998
10.9596	337.104	11.8193
10.961	337.081	11.8389
10.9619	325.856	11.8584
10.96308	332.972	11.87793
10.9653	339.65	11.8975
10.96682	333.7886	11.917
10.9691	335.513	11.9365
10.9705	343.214	11.9561
10.9724	332.832	11.9756
10.9733	338.645	11.9951
10.9754	345.209	12.0146
10.97671	342.304	12.03418
10.9785	337.971	12.0537
10.9792	348.14	12.0732
10.981	341.128	12.0928
10.9837	339.408	12.1123
10.9842	346.048	12.1318
10.988	350.086	12.1514
10.9881	343.652	12.1709
10.9903	347.898	12.19043
10.9925	348.477	12.21
10.9929	345.266	12.2295
10.9936	348.466	12.249
10.997	357.8009	12.2686
10.9982	346.025	12.2881
11.0002	348.782	12.3076
11.0018	354.69	12.3271
11.00263	353.835	12.34668
11.0047	348.279	12.3662
11.0068	358.297	12.3857
11.0083	356.374	12.4053
11.0092	350.956	12.4248
11.0112	358.641	12.4443
11.0123	362.776	12.4639
11.0142	353.614	12.4834
11.0165	361.536	12.50293
11.0172	367.074	12.5225
11.0192	354.406	12.542
11.0208	359.591	12.5615
11.0213	368.199	12.5811
11.0244	362.716	12.6006
11.02568	361.997	12.6201
11.026	370.819	12.6396
11.0289	360.864	12.65918
11.0303	362.617	12.6787
11.031	372.803	12.6982
11.0335	370.1951	12.7178
11.0355	363.44	12.7373
11.0373	373.474	12.7568
11.0373	369.416	12.7764
11.0404	368.001	12.7959
11.0414	371.278	12.81543
11.0444	378.764	12.835
11.0454	369.377	12.8545
11.04639	374.987	12.874
11.0489	376.543	12.8936
11.0498	374.058	12.9131
11.0513	374.266	12.9326
11.0536	385.1604	12.9521
11.0543	378.697	12.97168
11.0566	373.289	12.9912
11.0579	381.0408	13.0107
11.0595	383.308	13.0303
11.0608	377.1434	13.0498
11.0627	385.233	13.0693
11.0645	385.54	13.0889
11.0662	377.717	13.1084
11.0685	382.324	13.12793
11.06976	391.749	13.1475
11.0708	381.516	13.167
11.07188	385.492	13.1865
11.0733	394.451	13.2061
11.0757	383.216	13.2256
11.0771	385.581	13.2451
11.07951	395.296	13.2646
11.08049	392.948	13.28418
11.082	388.404	13.3037
11.08423	398.939	13.3232
11.08567	389.7879	13.3428
11.0878	389.772	13.3623
11.0895	399.1969	13.3818
11.0899	399.993	13.4014
11.0921	390.12	13.4209
11.0932	398.366	13.44043
11.0959	397.572	13.46
11.0971	395.683	13.4795
11.0997	397.325	13.499
11.0995	404.627	13.5186
11.102	398.296	13.5381
11.1043	399.917	13.5576
11.1053	404.6142	13.5771
11.1066	403.5686	13.59668
11.109	397.841	13.6162
11.1103	410.097	13.6357
11.111	408.4101	13.6553
11.113	399.793	13.6748
11.115	407.165	13.6943
11.11664	413.601	13.7139
11.1181	404.7991	13.7334
11.1207	411.987	13.75293
11.1217	416.045	13.7725
11.1237	406.255	13.792
11.1245	410.301	13.8115
11.1265	419.45	13.8311
11.1279	411.757	13.8506
11.13	410.653	13.8701
11.1318	423.008	13.8896
11.13299	412.73	13.90918
11.1351	412.794	13.9287
11.1356	419.969	13.9482
11.1379	420.5	13.9678
11.13852	414.01	13.9873
11.1409	425.179	14.0068
11.1431	420.414	14.0264
11.1431	415.469	14.0459
11.1463	421.95	14.06543
11.147	429.926	14.085
11.1491	419.659	14.1045
11.1506	422.185	14.124
11.1523	426.69	14.1436
11.1529	425.149	14.1631
11.1557	424.07	14.1826
11.156	433.038	14.2021
11.1601	425.942	14.22168
11.1609	424.781	14.2412
11.1624	432.203	14.2607
11.1636	432.797	14.2803
11.1644	424.962	14.2998
11.1675	436.089	14.3193
11.1689	437.492	14.3389
11.1704	428.377	14.3584
11.1719	432.374	14.37793
11.1738	439.576	14.3975
11.1758	432.808	14.417
11.1765	436.268	14.4365
11.1779	444.425	14.4561
11.1797	431.872	14.4756
11.182	433.859	14.4951
11.1836	446.433	14.5146
11.1857	439.995	14.53418
11.1866	436.519	14.5537
11.1875	445.916	14.5732
11.1892	439.917	14.5928
11.1917	438.43	14.6123
11.1932	446.349	14.6318
11.1948	448.133	14.6514
11.1967	439.671	14.6709
11.1985	450.306	14.69043
11.1992	448.592	14.71
11.2005	443.485	14.7295
11.2024	446.517	14.749
11.2037	456.212	14.7686
11.2053	448.299	14.7881
11.2073	447.934	14.8076
11.209	452.906	14.8271
11.2101	451.993	14.84668
11.2129	449.427	14.8662
11.214	459.172	14.8857
11.2159	454.239	14.9053
11.2177	449.06	14.9248
11.2195	456.082	14.9443
11.2207	461.867	14.9639
11.2227	452.299	14.9834
11.2241	460.441	15.00293
11.2257	464.624	15.0225
11.2272	454.915	15.042
11.2288	457.1944	15.0615
11.2319	465.682	15.0811
11.2319	458.319	15.1006
11.2335	459.937	15.1201
11.2356	469.266	15.1396
11.2372	460.808	15.15918
11.2388	458.994	15.1787
11.2404	470.806	15.1982
11.2422	468.576	15.2178
11.2437	461.238	15.2373
11.2444	470.785	15.2568
11.2475	469.576	15.2764
11.248	464.463	15.2959
11.2502	473.108	15.31543
11.2515	477.133	15.335
11.2533	466.1347	15.3545
11.2554	473.583	15.374
11.2565	476.714	15.3936
11.2581	472.598	15.4131
11.2602	471.595	15.4326
11.2619	482.497	15.4521
11.2637	475.573	15.47168
11.2642	473.652	15.4912
11.2654	478.971	15.5107
11.2681	479.995	15.5303
11.2696	473.354	15.5498
11.2711	484.376	15.5693
11.2722	483.864	15.5889
11.2739	474.609	15.6084
11.277	478.58	15.62793
11.2774	489.791	15.6475
11.2793	479.516	15.667
11.2815	482.072	15.6865
11.2816	490.15	15.7061
11.2841	481.222	15.7256
11.2851	481.475	15.7451
11.2868	493.582	15.7646
11.2887	485.9819	15.78418
11.291	484.232	15.8037
11.2921	494.82	15.8232
11.2938	490.649	15.8428
11.2956	485.375	15.8623
11.29694	494.435	15.8818
11.2994	497.093	15.9014
11.301	487.798	15.9209
11.3032	495.269	15.94043
11.3051	496.995	15.96
11.3055	490.747	15.9795
11.3074	495.108	15.999
11.3087	503.152	16.0186
11.31037	493.756	16.0381
11.31096	495.835	16.0576
11.3143	501.3826	16.0771
11.3142	500.463	16.09668
11.3159	493.845	16.1162
11.31879	506.273	16.1357
11.3211	503.545	16.1553
11.3207	498.139	16.1748
11.3226	503.367	16.1943
11.3243	510.032	16.2139
11.3262	499.365	16.2334
11.3281	508.637	16.25293
11.3297	511.8035	16.2725
11.3307	503.89	16.292
11.3346	503.4278	16.3115
11.3358	515.609	16.3311
11.3359	507.182	16.3506
11.3379	507.621	16.3701
11.3394	515.768	16.3896
11.3407	508.437	16.40918
11.3419	505.373	16.4287
11.3447	519.498	16.4482
11.3467	515.223	16.4678
11.3477	507.308	16.4873
11.34897	519.8988	16.5068
11.3507	517.512	16.5264
11.3529	509.447	16.5459
11.35446	518.588	16.56543
11.3562	522.658	16.585
11.3575	513.502	16.6045
11.3589	520.813	16.624
11.3609	524.003	16.6436
11.3629	517.109	16.6631
11.3644	519.181	16.6826
11.366	529.5907	16.7021
11.36772	521.562	16.72168
11.3683	519.192	16.7412
11.3708	525.355	16.7607
11.3725	527.897	16.7803
11.3741	520.643	16.7998
11.37555	531.155	16.8193
11.3771	529.745	16.8389
11.3786	521.592	16.8584
11.3797	527.294	16.87793
11.3812	535.282	16.8975
11.3834	525.034	16.917
11.3834	532.263	16.9365
11.3867	537.583	16.9561
11.3887	531.282	16.9756
11.3906	526.779	16.9951
11.3914	540.412	17.0146
11.3926	532.1991	17.03418
11.3946	531.849	17.0537
11.3958	541.733	17.0732
11.398	534.688	17.0928
11.3998	529.163	17.1123
11.4009	542.614	17.1318
11.4026	542.363	17.1514
11.4047	534.182	17.1709
11.4048	540.025	17.19043
11.4086	542.802	17.21
11.4098	535.264	17.2295
11.4109	542.116	17.249
11.4127	546.419	17.2686
11.414	539.791	17.2881
11.4159	541.8988	17.3076
11.41782	548.447	17.3271
11.4194	543.573	17.34668
11.4218	541.962	17.3662
11.4211	553.057	17.3857
11.4241	550.05	17.4053
11.425	544.863	17.4248
11.4276	548.979	17.4443
11.429	554.501	17.4639
11.4319	545.272	17.4834
11.4326	554.18	17.50293
11.4337	557.906	17.5225
11.4355	549.297	17.542
11.4365	549.4	17.5615
11.4392	560.068	17.5811
11.4397	550.537	17.6006
11.4421	551.0531	17.6201
11.4428	560.096	17.6396
11.4447	556.954	17.65918
11.4469	551.648	17.6787
11.4486	564.86	17.6982
11.4499	557.858	17.7178
11.4511	555.056	17.7373
11.4533	565.477	17.7568
11.4546	564.3252	17.7764
11.4571	552.422	17.7959
11.458	564.308	17.81543
11.4596	567.192	17.835
11.461	560.141	17.8545
11.4625	563.638	17.874
11.4646	568.7851	17.8936
11.4669	561.21	17.9131
11.4678	563.844	17.9326
11.4696	573.915	17.9521
11.4713	565.359	17.97168
11.4723	564.548	17.9912
11.4745	571.28	18.0107
11.4759	571.1554	18.0303
11.4781	564.773	18.0498
11.4788	574.94	18.0693
11.4816	574.349	18.0889
11.4827	568.181	18.1084
11.4839	570.747	18.12793
11.4865	580.302	18.1475
11.487	569.437	18.167
11.4893	576.854	18.1865
11.4908	581.6142	18.2061
11.4923	574.73	18.2256
11.493	571.067	18.2451
11.4963	585.416	18.2646
11.4981	576.782	18.28418
11.4997	573.951	18.3037
11.5005	583.397	18.3232
11.5015	581.296	18.3428
11.504	573.602	18.3623
11.5052	587.0166	18.3818
11.507	583.4964	18.4014
11.50899	577.953	18.4209
11.5102	586.507	18.44043
11.5113	586.782	18.46
11.5138	577.989	18.4795
11.51516	585.155	18.499
11.5168	592.12	18.5186
11.5184	585.548	18.5381
11.5197	586.467	18.5576
11.52109	590.659	18.5771
11.5236	586.033	18.59668
11.5246	584.8656	18.6162
11.5267	598.03	18.6357
11.52913	590.91	18.6553
11.529	586.518	18.6748
11.5311	592.446	18.6943
11.5326	597.0423	18.7139
11.5345	587.843	18.7334
11.53567	595.675	18.75293
11.53777	599.255	18.7725
11.5391	593.389	18.792
11.5425	594.161	18.8115
11.54352	603.396	18.8311
11.5444	593.74	18.8506
11.5475	596.948	18.8701
11.54838	605.4693	18.8896
11.5495	599.3	18.90918
11.5512	591.603	18.9287
11.5518	607.669	18.9482
11.5541	603.1037	18.9678
11.5554	597.416	18.9873
11.5578	607.51	19.0068
11.5587	607.251	19.0264
11.55987	596.5332	19.0459
11.5616	607	19.06543
11.5644	610.423	19.085
11.5665	601.942	19.1045
11.5671	605.104	19.124
11.5685	612.608	19.1436
11.5715	603.128	19.1631
11.5714	606.5965	19.1826
11.5738	614.465	19.2021
11.5762	609.208	19.22168
11.5773	607.834	19.2412
11.5779	615.1698	19.2607
11.5805	609.696	19.2803
11.582	607.588	19.2998
11.5829	619.67	19.3193
11.5847	617.657	19.3389
11.5865	610.164	19.3584
11.5882	613.555	19.37793
11.5907	621.205	19.3975
11.591	612.336	19.417
11.5944	617.945	19.4365
11.59447	623.223	19.4561
11.5962	616.956	19.4756
11.5981	615.184	19.4951
11.5998	629.0871	19.5146
11.6013	619.419	19.53418
11.6026	616.952	19.5537
11.6037	627.749	19.5732
11.6063	625.192	19.5928
11.608	614.422	19.6123
11.6093	628.312	19.6318
11.6112	625.806	19.6514
11.613	620.342	19.6709
11.6144	627.673	19.69043
11.6154	629.257	19.71
11.6173	619.079	19.7295
11.6189	629.805	19.749
11.6209	634.308	19.7686
11.6221	624.831	19.7881
11.6242	626.2	19.8076
11.6249	634.785	19.8271
11.628	625.794	19.84668
11.6286	628.752	19.8662
11.6305	636.641	19.8857
11.6323	633.339	19.9053
11.6336	629.485	19.9248
11.6348	635.576	19.9443
11.6372	636	19.9639
11.6389	629.892	19.9834
11.6408	639.388	20.00293
11.6411	638.011	20.0127

Data Header:			0.254_hd_uprint_typei_4545_r0			Time:	40.0193	s	4/15/2019 4:12:59 PM
Data Acquisition:	Timed
Station Name:	ft40.cfg
Test File Name:	monotonic_0.2540_typei_hd_4545_uprint.tst
Displacement	Force	Running Time
mm	N	s
11.6414	640.372	20.0225
11.6433	633.146	20.042
11.645	633.446	20.0615
11.6475	643.865	20.0811
11.648	638.116	20.1006
11.6506	639.357	20.1201
11.6517	645.198	20.1396
11.6535	640.739	20.15918
11.6553	634.826	20.1787
11.6569	649.777	20.1982
11.6581	643.613	20.2178
11.6607	640.336	20.2373
11.6609	647.724	20.2568
11.6634	647.11	20.2764
11.6652	637.126	20.2959
11.6658	647.874	20.31543
11.6681	649.9668	20.335
11.6701	644.4408	20.3545
11.671	649.523	20.374
11.6731	654.977	20.3936
11.67333	642.3606	20.4131
11.676	649.366	20.4326
11.678	656.868	20.4521
11.6787	651.636	20.47168
11.6817	649.468	20.4912
11.6822	656.343	20.5107
11.6842	651.422	20.5303
11.6857	650.436	20.5498
11.6875	659.563	20.5693
11.6889	655.4668	20.5889
11.6908	651.358	20.6084
11.6925	657.219	20.62793
11.6937	660.317	20.6475
11.69557	653.855	20.667
11.6963	658.5495	20.6865
11.6994	664.195	20.7061
11.7005	658.471	20.7256
11.7018	653.218	20.7451
11.70427	666.269	20.7646
11.7058	660.353	20.78418
11.7068	659.75	20.8037
11.7084	668.835	20.8232
11.7106	662.684	20.8428
11.7134	656.949	20.8623
11.7131	668.137	20.8818
11.715	666.908	20.9014
11.7173	661.513	20.9209
11.7188	667.668	20.94043
11.7201	672.351	20.96
11.7225	659.822	20.9795
11.7241	668.968	20.999
11.7249	672.709	21.0186
11.7273	666.239	21.0381
11.7277	667.428	21.0576
11.7301	675.942	21.0771
11.7321	665.224	21.09668
11.7325	667.505	21.1162
11.7345	677.423	21.1357
11.7361	675.1734	21.1553
11.7383	668.701	21.1748
11.7395	676.977	21.1943
11.7422	675.058	21.2139
11.74351	670.87	21.2334
11.7442	679.084	21.25293
11.7473	680.875	21.2725
11.748	673.078	21.292
11.749	675.047	21.3115
11.7508	683.526	21.3311
11.7527	676.81	21.3506
11.7548	677.873	21.3701
11.7556	685.751	21.3896
11.7575	681.099	21.40918
11.7589	674.422	21.4287
11.7604	686.833	21.4482
11.7622	683.013	21.4678
11.7636	680.453	21.4873
11.7657	688.481	21.5068
11.7667	688.979	21.5264
11.76794	674.401	21.5459
11.7707	688.863	21.56543
11.7725	691.536	21.585
11.7746	683.985	21.6045
11.77459	687.9696	21.624
11.7768	694.605	21.6436
11.7785	682.174	21.6631
11.7802	689.203	21.6826
11.7812	695.338	21.7021
11.7836	689.212	21.72168
11.7849	687.047	21.7412
11.7871	697.141	21.7607
11.7878	689.754	21.7803
11.78989	689.672	21.7998
11.7915	697.449	21.8193
11.7926	697.819	21.8389
11.796	690.613	21.8584
11.7967	696.569	21.87793
11.7984	696.421	21.8975
11.8001	691.7121	21.917
11.8012	697.8584	21.9365
11.8038	701.564	21.9561
11.8049	696.149	21.9756
11.806	692.506	21.9951
11.8087	703.523	22.0146
11.8098	699.708	22.03418
11.8118	697.423	22.0537
11.8117	703.042	22.0732
11.8145	702.634	22.0928
11.8164	696.924	22.1123
11.8173	706.729	22.1318
11.82	702.567	22.1514
11.8208	698.3941	22.1709
11.8224	705.9931	22.19043
11.82385	710.96	22.21
11.82465	696.813	22.2295
11.8276	707.471	22.249
11.8284	711.924	22.2686
11.82926	705.636	22.2881
11.8326	706.4021	22.3076
11.834	713.799	22.3271
11.8351	702.26	22.34668
11.837	707.8	22.3662
11.839	716.427	22.3857
11.8399	711.802	22.4053
11.8418	706.085	22.4248
11.8439	714.1546	22.4443
11.8451	712.205	22.4639
11.847	708.083	22.4834
11.8489	713.859	22.50293
11.849	717.677	22.5225
11.8509	712.341	22.542
11.853	715.887	22.5615
11.8555	717.775	22.5811
11.8568	712.508	22.6006
11.8578	713.751	22.6201
11.8594	723.749	22.6396
11.8615	717.669	22.65918
11.8627	710.032	22.6787
11.8642	721.458	22.6982
11.8667	720.771	22.7178
11.8681	715.085	22.7373
11.8708	723.1958	22.7568
11.8709	724.117	22.7764
11.8728	713.994	22.7959
11.87547	724.502	22.81543
11.8757	726.546	22.835
11.8769	719.988	22.8545
11.8797	721.8183	22.874
11.8817	732.614	22.8936
11.8825	718.431	22.9131
11.8841	726.075	22.9326
11.8861	730.995	22.9521
11.8882	726.751	22.97168
11.8903	723.541	22.9912
11.8907	732.395	23.0107
11.8925	723.883	23.0303
11.8944	724.823	23.0498
11.89547	732.367	23.0693
11.8971	732.828	23.0889
11.8995	724.315	23.1084
11.8999	732.2171	23.12793
11.9015	732.257	23.1475
11.9035	730.3	23.167
11.905	731.999	23.1865
11.9065	737.522	23.2061
11.9081	730.864	23.2256
11.9105	730.646	23.2451
11.912	739.115	23.2646
11.914	734.859	23.28418
11.9155	732.196	23.3037
11.9168	740.727	23.3232
11.9195	740.093	23.3428
11.92	729.299	23.3623
11.92155	739.357	23.3818
11.9234	741.408	23.4014
11.9251	734.902	23.4209
11.9261	741.161	23.44043
11.9278	745.6615	23.46
11.92977	733.094	23.4795
11.9322	743.89	23.499
11.9323	746.172	23.5186
11.9347	740.603	23.5381
11.9357	739.988	23.5576
11.9387	749.36	23.5771
11.93954	739.978	23.59668
11.9404	741.87	23.6162
11.9429	749.022	23.6357
11.9454	747.3103	23.6553
11.94509	741.527	23.6748
11.94784	750.121	23.6943
11.95	747.493	23.7139
11.9509	743.642	23.7334
11.9531	751.1001	23.75293
11.9546	754.675	23.7725
11.9553	744.964	23.792
11.9579	748.51	23.8115
11.9585	752.747	23.8311
11.96037	749.6618	23.8506
11.9619	748.3371	23.8701
11.9637	756.73	23.8896
11.966	751.136	23.90918
11.9677	747.393	23.9287
11.96926	757.0354	23.9482
11.9692	754.857	23.9678
11.9719	749.728	23.9873
11.97315	756.293	24.0068
11.97537	758.244	24.0264
11.9773	747.899	24.0459
11.97845	756.552	24.06543
11.9813	760.428	24.085
11.981	755.854	24.1045
11.9835	758.335	24.124
11.9854	766.337	24.1436
11.9871	751.579	24.1631
11.9885	757.5816	24.1826
11.9903	767.9187	24.2021
11.9917	760.352	24.22168
11.9937	757.638	24.2412
11.9945	766.162	24.2607
11.9963	760.809	24.2803
11.9991	759.112	24.2998
11.9997	766.5943	24.3193
12.0022	767.79	24.3389
12.0029	760.47	24.3584
12.0056	766.974	24.37793
12.0056	766.973	24.3975
12.0079	761.643	24.417
12.0098	766.296	24.4365
12.0119	773.184	24.4561
12.0126	765.213	24.4756
12.0144	763.505	24.4951
12.0163	770.771	24.5146
12.0184	768.722	24.53418
12.0198	765.936	24.5537
12.0214	775.437	24.5732
12.0231	769.524	24.5928
12.0237	763.847	24.6123
12.02737	773.052	24.6318
12.0277	775.356	24.6514
12.0287	766.612	24.6709
12.0311	773.346	24.69043
12.0324	777.3609	24.71
12.0336	765.929	24.7295
12.0366	771.761	24.749
12.0378	778.007	24.7686
12.039	771.595	24.7881
12.0395	773.06	24.8076
12.0424	782.795	24.8271
12.04531	771.582	24.84668
12.046	772.955	24.8662
12.0462	781.533	24.8857
12.0485	780.914	24.9053
12.0502	773.29	24.9248
12.0521	781.198	24.9443
12.0543	776.648	24.9639
12.0551	775.203	24.9834
12.0562	781.053	25.00293
12.0586	785.289	25.0225
12.0593	775.6369	25.042
12.0618	781.217	25.0615
12.0632	783.994	25.0811
12.065	780.6	25.1006
12.0677	779.279	25.1201
12.0673	788.846	25.1396
12.07	782.244	25.15918
12.07189	779.578	25.1787
12.0731	784.392	25.1982
12.0756	786.205	25.2178
12.0769	779.918	25.2373
12.07771	789.826	25.2568
12.08	787.9599	25.2764
12.081	779.771	25.2959
12.0831	786.379	25.31543
12.0847	792.622	25.335
12.0858	785.121	25.3545
12.0882	786.674	25.374
12.09024	794.763	25.3936
12.0908	783.461	25.4131
12.0921	787.118	25.4326
12.0936	794.263	25.4521
12.0957	789.471	25.47168
12.0978	786.646	25.4912
12.1001	797.88	25.5107
12.1012	791.064	25.5303
12.10318	787.648	25.5498
12.1036	794.358	25.5693
12.1052	798.155	25.5889
12.1076	788.417	25.6084
12.1092	794.933	25.62793
12.1111	794.39	25.6475
12.1116	791.528	25.667
12.1139	795.512	25.6865
12.1161	801.933	25.7061
12.1173	792.785	25.7256
12.1183	793.219	25.7451
12.1208	799.587	25.7646
12.1214	798.039	25.78418
12.1234	793.83	25.8037
12.1256	801.076	25.8232
12.1266	799.943	25.8428
12.1289	793.043	25.8623
12.1308	800.363	25.8818
12.1321	802.832	25.9014
12.1329	794.158	25.9209
12.1351	802.99	25.94043
12.1368	806.518	25.96
12.1385	794.05	25.9795
12.1396	800.244	25.999
12.1413	808.279	26.0186
12.1423	800.671	26.0381
12.145	798.528	26.0576
12.14641	809.396	26.0771
12.1475	798.926	26.09668
12.1492	801.639	26.1162
12.1512	809.835	26.1357
12.1521	806.119	26.1553
12.155	798.876	26.1748
12.1564	810.716	26.1943
12.1578	806.417	26.2139
12.159	803.358	26.2334
12.1615	806.845	26.25293
12.163	813.648	26.2725
12.1652	803.72	26.292
12.1661	806.2	26.3115
12.1673	810.284	26.3311
12.17	806.661	26.3506
12.17033	805.246	26.3701
12.1725	815.838	26.3896
12.1733	809.2207	26.40918
12.1752	805.12	26.4287
12.1772	812.726	26.4482
12.17921	814.104	26.4678
12.1797	806.023	26.4873
12.1815	814.836	26.5068
12.1842	816.2038	26.5264
12.1855	806.225	26.5459
12.1878	812.724	26.56543
12.1892	819.674	26.585
12.19089	810.215	26.6045
12.1909	812.2804	26.624
12.1935	822.018	26.6436
12.1961	809.361	26.6631
12.19663	810.961	26.6826
12.1972	822.382	26.7021
12.20053	816.349	26.72168
12.2008	813.048	26.7412
12.2028	822.039	26.7607
12.2054	814.4093	26.7803
12.2066	813.936	26.7998
12.2081	821.263	26.8193
12.2099	822.499	26.8389
12.2111	813.8125	26.8584
12.2135	821.784	26.87793
12.2147	820.011	26.8975
12.2167	816.699	26.917
12.2182	817.544	26.9365
12.22	824.872	26.9561
12.22081	816.836	26.9756
12.2229	819.23	26.9951
12.2248	822.9516	27.0146
12.2257	819.92	27.03418
12.2276	816.563	27.0537
12.2289	827.527	27.0732
12.2312	823.5097	27.0928
12.2322	816.604	27.1123
12.2345	823.52	27.1318
12.2359	828.788	27.1514
12.23717	819.019	27.1709
12.2391	825.542	27.19043
12.2406	828.75	27.21
12.2427	818.496	27.2295
12.243	822.198	27.249
12.2456	833.603	27.2686
12.2475	822.234	27.2881
12.249	823.578	27.3076
12.2503	833.252	27.3271
12.2516	823.197	27.34668
12.2528	823.228	27.3662
12.2558	831.881	27.3857
12.2571	830.488	27.4053
12.25842	823.328	27.4248
12.2592	834.644	27.4443
12.2624	828.396	27.4639
12.2645	823.428	27.4834
12.2653	830.9126	27.50293
12.26665	837.141	27.5225
12.2685	824.532	27.542
12.2698	830.7511	27.5615
12.2714	833.8175	27.5811
12.2734	830.1474	27.6006
12.2757	827.022	27.6201
12.2759	837.6156	27.6396
12.2789	830.461	27.65918
12.2803	828.816	27.6787
12.2811	835.028	27.6982
12.2825	836.086	27.7178
12.2849	826.396	27.7373
12.2868	839.242	27.7568
12.2882	839.12	27.7764
12.29	829.429	27.7959
12.2918	832.863	27.81543
12.2923	840.076	27.835
12.29515	829.759	27.8545
12.2954	835.373	27.874
12.2987	841.222	27.8936
12.2989	830.421	27.9131
12.3005	831.986	27.9326
12.3027	843.747	27.9521
12.3038	836.773	27.97168
12.3064	830.6236	27.9912
12.3082	841.745	28.0107
12.3086	836.958	28.0303
12.3112	832.377	28.0498
12.3121	840.895	28.0693
12.3137	841.5675	28.0889
12.316	833.875	28.1084
12.3174	842.2724	28.12793
12.3181	841.257	28.1475
12.3205	835.137	28.167
12.3225	838.718	28.1865
12.3229	847.822	28.2061
12.32493	838.2038	28.2256
12.3275	840.188	28.2451
12.3295	842.441	28.2646
12.3301	840.561	28.28418
12.3318	838.462	28.3037
12.3345	848.163	28.3232
12.3348	842.102	28.3428
12.3376	838.459	28.3623
12.3387	842.492	28.3818
12.3416	847.171	28.4014
12.34213	836.007	28.4209
12.3433	844.014	28.44043
12.34475	848.829	28.46
12.3464	838.79	28.4795
12.3472	839.685	28.499
12.3504	851.268	28.5186
12.3518	842.98	28.5381
12.3538	842.633	28.5576
12.3549	851.192	28.5771
12.356	842.0351	28.59668
12.3582	839.476	28.6162
12.3604	851.369	28.6357
12.3622	848.178	28.6553
12.3625	839.898	28.6748
12.3653	849.934	28.6943
12.3667	846.907	28.7139
12.3675	841.583	28.7334
12.3694	850.33	28.75293
12.3709	854.79	28.7725
12.3717	842.298	28.792
12.3743	847.702	28.8115
12.3754	850.577	28.8311
12.3774	846.309	28.8506
12.3791	844.379	28.8701
12.3815	856.468	28.8896
12.38364	848.507	28.90918
12.3844	846.932	28.9287
12.3857	850.12	28.9482
12.3864	853.293	28.9678
12.3886	844.955	28.9873
12.3897	854.428	29.0068
12.3922	853.135	29.0264
12.3944	845.811	29.0459
12.3949	849.195	29.06543
12.3967	857.66	29.085
12.3991	846.922	29.1045
12.3996	851.743	29.124
12.402	857.247	29.1436
12.4039	847.1922	29.1631
12.40511	847.171	29.1826
12.4061	858.035	29.2021
12.4086	850.0835	29.22168
12.4108	847.593	29.2412
12.4108	859.221	29.2607
12.4135	852.306	29.2803
12.4145	845.669	29.2998
12.4169	857.128	29.3193
12.41806	859.497	29.3389
12.4207	850.523	29.3584
12.4213	855.595	29.37793
12.4232	854.901	29.3975
12.4249	850.458	29.417
12.4258	855.457	29.4365
12.4275	860.648	29.4561
12.4312	851.814	29.4756
12.4306	853.939	29.4951
12.4329	858.016	29.5146
12.435	856.814	29.53418
12.4369	852.083	29.5537
12.4377	860.974	29.5732
12.439	858.883	29.5928
12.4411	852.729	29.6123
12.4425	855.802	29.6318
12.4448	861.2265	29.6514
12.44555	851.876	29.6709
12.4477	860.981	29.69043
12.4496	863.454	29.71
12.4493	853.773	29.7295
12.4525	853.813	29.749
12.4549	863.321	29.7686
12.4559	857.547	29.7881
12.45636	855.601	29.8076
12.4591	863.554	29.8271
12.4601	854.888	29.84668
12.4614	851.787	29.8662
12.4639	863.848	29.8857
12.4655	861.361	29.9053
12.4667	853.558	29.9248
12.469	863.833	29.9443
12.47	862.165	29.9639
12.47321	852.819	29.9834
12.4735	862.8493	30.00293
12.4756	864.987	30.0225
12.4777	857.551	30.042
12.4774	861.271	30.0615
12.4801	861.638	30.0811
12.4827	857.781	30.1006
12.4822	858.634	30.1201
12.4841	869.594	30.1396
12.4868	860.487	30.15918
12.4881	858.22	30.1787
12.48983	863.004	30.1982
12.4914	867.076	30.2178
12.4922	856.21	30.2373
12.49438	867.117	30.2568
12.4964	863.67	30.2764
12.4977	859.017	30.2959
12.5003	861.044	30.31543
12.5017	870.03	30.335
12.5034	859.984	30.3545
12.504	863.6825	30.374
12.5056	869.324	30.3936
12.5077	860.567	30.4131
12.5082	856.996	30.4326
12.5105	871.256	30.4521
12.5123	863.143	30.47168
12.5145	861.634	30.4912
12.5163	871.426	30.5107
12.5175	863.78	30.5303
12.5197	858.541	30.5498
12.5211	870.6897	30.5693
12.5235	868.9	30.5889
12.5232	858.479	30.6084
12.5256	866.887	30.62793
12.5267	870.128	30.6475
12.5298	860.256	30.667
12.5299	865.235	30.6865
12.5313	872.0744	30.7061
12.534	863.363	30.7256
12.536	867.476	30.7451
12.5366	871.6889	30.7646
12.539	865.134	30.78418
12.5402	862.093	30.8037
12.5411	873.824	30.8232
12.5435	870.923	30.8428
12.5448	864.941	30.8623
12.5474	867.655	30.8818
12.5491	871.83	30.9014
12.5502	863.24	30.9209
12.5515	871.147	30.94043
12.5534	872.452	30.96
12.5556	864.317	30.9795
12.5563	864.282	30.999
12.5581	873.895	31.0186
12.5595	865.207	31.0381
12.562	864.009	31.0576
12.5626	873.832	31.0771
12.5651	868.177	31.09668
12.5663	860.919	31.1162
12.5675	874.593	31.1357
12.5696	870.249	31.1553
12.5708	865.373	31.1748
12.5729	873.552	31.1943
12.5748	870.569	31.2139
12.5754	862.668	31.2334
12.5771	872.504	31.25293
12.5798	876.792	31.2725
12.5801	865.155	31.292
12.5823	870.9527	31.3115
12.5842	872.541	31.3311
12.58604	868.279	31.3506
12.5875	868.188	31.3701
12.5881	875.422	31.3896
12.5912	868.549	31.40918
12.5929	868.214	31.4287
12.5948	873.207	31.4482
12.5952	872.89	31.4678
12.5976	865.514	31.4873
12.5993	875.16	31.5068
12.6	875.899	31.5264
12.6019	868.3963	31.5459
12.6025	869.422	31.56543
12.6061	876.595	31.585
12.6072	867.503	31.6045
12.6076	873.481	31.624
12.611	877.7	31.6436
12.6116	867.969	31.6631
12.6137	866.238	31.6826
12.6158	881.483	31.7021
12.6166	872.296	31.72168
12.6184	868.725	31.7412
12.6202	877.086	31.7607
12.621	873.438	31.7803
12.6245	865.997	31.7998
12.6252	875.438	31.8193
12.6268	875.719	31.8389
12.628	867.948	31.8584
12.62917	876.922	31.87793
12.6311	876.114	31.8975
12.63217	865.757	31.917
12.635	874.295	31.9365
12.6357	880.228	31.9561
12.63751	870.612	31.9756
12.6406	870.24	31.9951
[...]
13.3549	891.185	40.5791
13.3555	888.747	40.5889
13.3561	883.65	40.5986
13.358	881.505	40.6084
13.3579	881.165	40.6182
13.3581	884.863	40.62793
13.3591	892.29	40.6377
13.36046	891.325	40.6475
13.3619	885.644	40.6572
13.3618	879.678	40.667
13.3639	882.09	40.6768
13.3639	886.138	40.6865
13.3645	888.911	40.6963
13.3653	889.916	40.7061
13.3666	887.209	40.71582
13.3676	884.261	40.7256
13.3674	878.4809	40.7354
13.369	883.205	40.7451
13.3689	886.983	40.7549
13.3699	892.64	40.7646
13.3706	890.594	40.7744
13.3721	880.676	40.78418
13.3719	880.933	40.7939
13.3737	881.47	40.8037
13.3747	888.522	40.8135
13.3751	890.263	40.8232
13.3761	888.6839	40.833
13.3767	888.125	40.8428
13.3775	879.969	40.8525
13.3788	882.768	40.8623
13.3796	885.2854	40.87207
13.3802	889.405	40.8818
13.3821	892.031	40.8916
13.3812	885.358	40.9014
13.3822	883.373	40.9111
13.38393	881.754	40.9209
13.3833	882.63	40.9307
13.3844	887.199	40.94043
13.3863	887.846	40.9502
13.3851	890.857	40.96
13.3873	887.143	40.9697
13.3876	880.675	40.9795
13.3889	881.417	40.9893
13.3899	886.26	40.999
13.391	891.231	41.0088
13.3915	888.0036	41.0186
13.3912	887.726	41.02832
13.3933	884.8576	41.0381
13.3942	881.291	41.0479
13.3949	882.257	41.0576
13.3954	885.817	41.0674
13.3962	891.188	41.0771
13.3971	891.382	41.0869
13.3985	885.84	41.09668
13.3995	879.16	41.1064
13.3996	881.828	41.1162
13.3995	888.034	41.126
13.4004	887.755	41.1357
13.4021	891.603	41.1455
13.4027	885.588	41.1553
13.4032	882.3454	41.165
13.4038	881.112	41.1748
13.4049	879.034	41.18457
13.4062	889.38	41.1943
13.40815	892.539	41.2041
13.408	887.329	41.2139
13.4087	883.677	41.2236
13.4102	877.9151	41.2334
13.4093	882.849	41.2432
13.4115	885.573	41.25293
13.4116	891.374	41.2627
13.4124	889.3913	41.2725
13.41357	884.746	41.2822
13.4138	881.987	41.292
13.4153	877.788	41.3018
13.4162	883.0412	41.3115
13.4176	892.197	41.3213
13.41742	891.494	41.3311
13.4177	886.173	41.34082
13.4187	879.021	41.3506
13.4216	878.7207	41.3604
13.4199	885.92	41.3701
13.4213	886.331	41.3799
13.4227	888.958	41.3896
13.4226	887.016	41.3994
13.4238	884.938	41.40918
13.4242	878.58	41.4189
13.425	881.821	41.4287
13.42586	885.214	41.4385
13.42693	891.384	41.4482
13.4282	890.717	41.458
13.4287	883.242	41.4678
13.4298	881.538	41.4775
13.4302	882.357	41.4873
13.4317	885.4906	41.49707
13.433	887.859	41.5068
13.4328	890.107	41.5166
13.43368	889.089	41.5264
13.4348	881.539	41.5361
13.4351	883.414	41.5459
13.4362	880.901	41.5557
13.4371	886.859	41.56543
13.4375	890.858	41.5752
13.4396	885.268	41.585
13.4389	885.09	41.5947
13.4402	880.983	41.6045
13.4411	882.807	41.6143
13.4416	886.405	41.624
13.4427	885.85	41.6338
13.4439	891.759	41.6436
13.4437	887.297	41.65332
13.4455	882.098	41.6631
13.4467	881.568	41.6729
13.4466	883.136	41.6826
13.4473	890.092	41.6924
13.4487	887.873	41.7021
13.4483	888.135	41.7119
13.4508	885.839	41.72168
13.4506	881.735	41.7314
13.4515	882.332	41.7412
13.453	883.658	41.751
13.4532	887.905	41.7607
13.45434	892.284	41.7705
13.4544	886.198	41.7803
13.4562	881.137	41.79
13.4568	878.821	41.7998
13.45605	885.336	41.80957
13.4589	887.72	41.8193
13.4587	891.301	41.8291
13.46	888.084	41.8389
13.4604	884.4726	41.8486
13.4619	881.094	41.8584
13.4614	878.662	41.8682
13.46328	886.363	41.87793
13.4637	891.104	41.8877
13.4654	890.148	41.8975
13.4658	884.853	41.9072
13.466	876.832	41.917
13.4664	880.977	41.9268
13.4676	883.264	41.9365
13.4682	891.009	41.9463
13.4703	890.565	41.9561
13.4716	885.974	41.96582
13.4719	885.5318	41.9756
13.4724	878.399	41.9854
13.4717	883.613	41.9951
13.4734	888.818	42.0049
13.4747	890.278	42.0146
13.4742	890.008	42.0244
13.4755	881.067	42.03418
13.4772	880.816	42.0439
13.4777	883.558	42.0537
13.4779	885.8783	42.0635
13.4795	890.821	42.0732
13.4803	888.698	42.083
13.4814	887.345	42.0928
13.4813	881.457	42.1025
13.4818	878.854	42.1123
13.484	884.71	42.12207
13.4849	888.108	42.1318
13.48534	890.381	42.1416
13.4858	884.697	42.1514
13.4877	882.593	42.1611
13.48711	883.576	42.1709
13.4875	883.884	42.1807
13.4882	884.292	42.19043
13.4907	888.414	42.2002
13.4911	890.052	42.21
13.4911	885.681	42.2197
13.4928	881.695	42.2295
13.4935	879.467	42.2393
13.494	885.411	42.249
13.4955	889.598	42.2588
13.495	884.433	42.2686
13.4954	887.849	42.27832
13.4971	883.473	42.2881
13.4985	882.9129	42.2979
13.4988	882.607	42.3076
13.4989	882.524	42.3174
13.4991	890.866	42.3271
13.5014	888.697	42.3369
13.50191	884.333	42.34668
13.5036	880.729	42.3564
13.5042	878.854	42.3662
13.5045	887.445	42.376
13.5051	887.766	42.3857
13.5065	890.127	42.3955
13.5076	887.032	42.4053
13.5083	880.887	42.415
13.5083	880.799	42.4248
13.5094	879.291	42.43457
13.5101	885.664	42.4443
13.5111	892.2793	42.4541
13.5115	888.321	42.4639
13.5134	881.497	42.4736
13.5134	877.376	42.4834
13.51462	882.125	42.4932
13.51467	887.063	42.50293
13.5158	890.086	42.5127
13.5164	888.727	42.5225
13.5176	884.098	42.5322
13.5183	880.186	42.542
13.5193	877.312	42.5518
13.5198	883.446	42.5615
13.52062	888.506	42.5713
13.5212	889.742	42.5811
13.5215	884.763	42.59082
13.5238	880.7818	42.6006
13.5242	880.786	42.6104
13.524	880.7536	42.6201
13.5258	887.327	42.6299
13.5266	889.292	42.6396
13.5263	886.456	42.6494
13.5287	884.437	42.65918
13.5299	876.166	42.6689
13.5294	880.703	42.6787
13.5307	884.656	42.6885
13.5312	889.714	42.6982
13.5325	889.319	42.708
13.533	881.928	42.7178
13.53403	881.071	42.7275
13.5342	879.8136	42.7373
13.5354	882.749	42.74707
13.53678	887.787	42.7568
13.537	886.989	42.7666
13.5385	889.347	42.7764
13.5391	881.815	42.7861
13.5391	880.119	42.7959
13.54096	882.636	42.8057
13.541	885.259	42.81543
13.5407	889.937	42.8252
13.5416	886.878	42.835
13.5428	883.84	42.8447
13.5433	882.036	42.8545
13.54526	881.26	42.8643
13.5457	882.572	42.874
13.5469	886.243	42.8838
13.5475	888.739	42.8936
13.5491	885.648	42.90332
13.5485	881.215	42.9131
13.5496	878.013	42.9229
13.5512	881.495	42.9326
13.55169	886.258	42.9424
13.5522	887.2049	42.9521
13.553	888.366	42.9619
13.5537	883.688	42.97168
13.5545	881.7749	42.9814
13.5561	879.848	42.9912
13.5569	881.919	43.001
13.5576	887.995	43.0107
13.5587	889.834	43.0205
13.5584	886.203	43.0303
13.5606	879.627	43.04
13.56062	877.022	43.0498
13.5619	884.063	43.05957
13.5611	883.76	43.0693
13.5631	891.222	43.0791
13.5649	888.633	43.0889
13.5649	881.5827	43.0986
13.56475	879.558	43.1084
13.5664	877.289	43.1182
13.5677	885.269	43.12793
13.5686	891.497	43.1377
13.5685	888.155	43.1475
13.5694	885.08	43.1572
13.5701	878.033	43.167
13.5711	879.576	43.1768
13.5718	884.617	43.1865
13.5722	887.626	43.1963
13.5726	890.262	43.2061
13.5744	884.953	43.21582
13.5762	882.042	43.2256
13.5762	878.0246	43.2354
13.5769	881.108	43.2451
13.5776	887.9859	43.2549
13.5785	890.4566	43.2646
13.5798	886.699	43.2744
13.5806	880.499	43.28418
13.5809	879.913	43.2939
13.5824	880.048	43.3037
13.5827	884.986	43.3135
13.5827	888.004	43.3232
13.5836	888.202	43.333
13.5857	885.547	43.3428
13.5856	877.9397	43.3525
13.587	880.891	43.3623
13.587	882.566	43.37207
13.5883	887.647	43.3818
13.5892	889.735	43.3916
13.58964	880.914	43.4014
13.5909	880.8537	43.4111
13.5924	879.807	43.4209
13.5924	881.181	43.4307
13.593	883.708	43.44043
13.5934	884.51	43.4502
13.5948	888.836	43.46
13.5962	881.22	43.4697
13.597	879.517	43.4795
13.5977	878.707	43.4893
13.5983	882.565	43.499
13.59798	889.231	43.5088
13.6003	885.196	43.5186
13.6004	884.116	43.52832
13.6017	882.493	43.5381
13.6023	877.959	43.5479
13.6034	881.166	43.5576
13.6031	881.859	43.5674
13.6051	888.472	43.5771
13.6043	887.308	43.5869
13.6064	882.34	43.59668
13.6073	877.796	43.6064
13.608	878.476	43.6162
13.6076	884.563	43.626
13.60944	886.205	43.6357
13.61005	888.572	43.6455
13.6108	884.614	43.6553
13.6117	880.3092	43.665
13.61251	877.617	43.6748
13.6137	878.1322	43.68457
13.61538	887.077	43.6943
13.6152	889.789	43.7041
13.61528	886.092	43.7139
13.6169	879.6897	43.7236
13.6183	877.794	43.7334
13.6183	881.178	43.7432
13.61884	882.881	43.75293
13.6206	887.328	43.7627
13.62106	885.686	43.7725
13.6217	883.78	43.7822
13.6213	879.423	43.792
13.6229	874.377	43.8018
13.624	882.625	43.8115
13.625	886.984	43.8213
13.6263	887.904	43.8311
13.6271	886.082	43.84082
13.6282	876.19	43.8506
13.6278	879.962	43.8604
13.6286	880.078	43.8701
13.6295	885.86	43.8799
13.6302	887.873	43.8896
13.6319	885.87	43.8994
13.6326	883.099	43.90918
13.6332	876.635	43.9189
13.6352	877.915	43.9287
13.6346	885.42	43.9385
13.6364	887.635	43.9482
13.636	886.4729	43.958
13.63753	882.006	43.9678
13.6382	878.323	43.9775
13.6389	880.0368	43.9873
13.6402	880.732	43.99707
13.6401	884.131	44.0068
13.6419	887.371	44.0166
13.6425	885.936	44.0264
13.64234	878.358	44.0361
13.64362	877.4325	44.0459
13.6446	878.414	44.0557
13.6462	885.949	44.06543
13.6458	886.053	44.0752
13.6473	884.24	44.085
13.6475	880.564	44.0947
13.6484	878.711	44.1045
13.6489	877.5799	44.1143
13.65041	881.579	44.124
13.6512	882.851	44.1338
13.6517	888.251	44.1436
13.6532	881.832	44.15332
13.6538	878.758	44.1631
13.6546	876.491	44.1729
13.6548	878.9892	44.1826
13.6568	885.315	44.1924
13.6565	882.712	44.2021
13.6573	884.438	44.2119
13.6576	882.038	44.22168
13.65938	876.322	44.2314
13.6593	878.011	44.2412
13.6611	877.747	44.251
13.6614	886.531	44.2607
13.66236	886.607	44.2705
13.6623	882.494	44.2803
13.6645	877.7561	44.29
13.66502	876.262	44.2998
13.6651	881.664	44.30957
13.666	882.745	44.3193
13.6676	886.322	44.3291
13.6684	884.846	44.3389
13.6689	881.241	44.3486
13.66986	876.085	44.3584
13.6711	876.315	44.3682
13.6712	880.977	44.37793
13.6719	887.582	44.3877
13.6724	886.824	44.3975
13.6741	879.768	44.4072
13.6751	876.829	44.417
13.6751	877.432	44.4268
13.6756	879.708	44.4365
13.6775	884.896	44.4463
13.678	884.56	44.4561
13.67938	884.662	44.46582
13.6798	877.739	44.4756
13.6795	872.349	44.4854
13.6805	878.561	44.4951
13.6817	882.938	44.5049
13.68218	887.831	44.5146
13.6836	885.005	44.5244
13.6842	876.097	44.53418
13.6848	878.214	44.5439
13.6854	876.608	44.5537
13.6867	881.152	44.5635
13.6876	884.2146	44.5732
13.688	885.896	44.583
13.6897	883.628	44.5928
13.6892	873.597	44.6025
13.691	874.999	44.6123
13.6918	882.5813	44.62207
13.69215	884.389	44.6318
13.6927	887.335	44.6416
13.6952	880.492	44.6514
13.6954	879.02	44.6611
13.6957	877.339	44.6709
13.6966	876.8653	44.6807
13.6966	882.194	44.69043
13.6981	884.646	44.7002
13.6992	886.415	44.71
13.6998	879.753	44.7197
13.7008	875.618	44.7295
13.7016	877.221	44.7393
13.7023	882.199	44.749
13.7038	883.765	44.7588
13.70287	882.947	44.7686
13.705	882.829	44.77832
13.7053	878.98	44.7881
13.7071	877.36	44.7979
13.7074	877.978	44.8076
13.7075	880.205	44.8174
13.7088	885.9118	44.8271
13.70921	881.677	44.8369
13.7105	879.354	44.84668
13.7117	873.777	44.8564
13.7114	875.863	44.8662
13.71312	881.516	44.876
13.7127	881.252	44.8857
13.7144	886.825	44.8955
13.7155	881.633	44.9053
13.7158	877.74	44.915
13.7164	874.813	44.9248
13.7178	876.017	44.93457
13.7177	884.3808	44.9443
13.7199	888.342	44.9541
13.7213	883.781	44.9639
13.7212	878.435	44.9736
13.7216	872.35	44.9834
13.7222	879.551	44.9932
13.7234	879.355	45.00293
13.7246	885.27	45.0127
13.7251	884.675	45.0225
13.7263	881.43	45.0322
13.7268	876.729	45.042
13.7276	873.098	45.0518
13.72774	879.1358	45.0615
13.7291	886.519	45.0713
13.7307	886.4707	45.0811
13.7305	879.068	45.09082
13.7313	875.023	45.1006
13.7332	876.107	45.1104
13.7326	877.982	45.1201
13.7341	881.954	45.1299
13.7346	883.547	45.1396
13.7356	883.727	45.1494
13.7363	875.819	45.15918
13.7382	872.249	45.1689
13.7383	875.956	45.1787
13.7374	880.858	45.1885
13.7396	887.652	45.1982
13.7402	883.104	45.208
13.7412	877.652	45.2178
13.7426	876.34	45.2275
13.7427	874.413	45.2373
13.7441	878.867	45.24707
13.7449	882.638	45.2568
13.7458	885.352	45.2666
13.7461	885.035	45.2764
13.747	873.435	45.2861
13.7481	875.363	45.2959
13.7486	876.339	45.3057
13.7495	880.565	45.31543
13.7497	884.39	45.3252
13.7513	879.649	45.335
13.7522	878.331	45.3447
13.7536	876.6	45.3545
13.75432	874.6391	45.3643
13.7543	877.844	45.374
13.7557	881.129	45.3838
13.7553	883.335	45.3936
13.7567	881.279	45.40332
13.7578	875.353	45.4131
13.7591	874.571	45.4229
13.7601	877.147	45.4326
13.76005	881.83	45.4424
13.761	882.241	45.4521
13.7628	879.856	45.4619
13.7625	878.4552	45.47168
13.7627	875.373	45.4814
13.7639	873.148	45.4912
13.7653	875.642	45.501
13.766	882.297	45.5107
13.7658	883.404	45.5205
13.7674	879.8548	45.5303
13.7686	872.945	45.54
13.7682	873.621	45.5498
13.7697	876.263	45.55957
13.7704	877.884	45.5693
13.7711	883.869	45.5791
13.7726	882.236	45.5889
13.7733	877.041	45.5986
13.7742	873.271	45.6084
13.77504	870.819	45.6182
13.7749	880.103	45.62793
13.7756	883.489	45.6377
13.7774	883.801	45.6475
13.7778	878.81	45.6572
13.7783	872.05	45.667
13.7787	875.882	45.6768
13.7812	874.231	45.6865
13.7808	882.321	45.6963
13.782	884.304	45.7061
13.7829	879.166	45.71582
13.784	876.926	45.7256
13.7838	869.677	45.7354
13.7852	873.388	45.7451
13.7863	881.515	45.7549
13.7877	881.521	45.7646
13.7878	881.222	45.7744
13.7878	872.063	45.78418
13.7901	872.438	45.7939
13.7903	873.947	45.8037
13.7922	877.509	45.8135
13.7923	880.791	45.8232
13.79273	881.719	45.833
13.7943	878.335	45.8428
13.7935	871.218	45.8525
13.794	870.1394	45.8623
13.7961	875.635	45.87207
13.7963	881.3045	45.8818
13.7987	881.956	45.8916
13.7977	877.823	45.9014
13.7996	872.958	45.9111
13.801	871.756	45.9209
13.8008	875.887	45.9307
13.8011	875.894	45.94043
13.8024	879.701	45.9502
13.8028	884.138	45.96
13.8042	874.832	45.9697
13.8054	872.538	45.9795
13.8066	872.059	45.9893
13.8066	876.043	45.999
13.8069	880.866	46.0088
13.8094	876.655	46.0186
13.80929	876.73	46.02832
13.8101	873.372	46.0381
13.811	871.867	46.0479
13.8105	871.901	46.0576
13.8124	875.295	46.0674
13.8139	882.044	46.0771
13.8138	877.406	46.0869
13.8151	874.138	46.09668
13.8154	871.278	46.1064
13.817	870.91	46.1162
13.8164	876.975	46.126
13.8192	877.382	46.1357
13.8186	877.681	46.1455
13.8188	877.735	46.1553
13.8199	872.074	46.165
13.8212	870.3573	46.1748
13.8219	870.182	46.18457
13.822	877.664	46.1943
13.8242	881.982	46.2041
13.8242	877.722	46.2139
13.82529	871.939	46.2236
13.8263	869.364	46.2334
13.8266	872.1366	46.2432
13.8271	871.835	46.25293
13.8284	879.176	46.2627
13.8293	880.0127	46.2725
13.8303	875.361	46.2822
13.8299	867.671	46.292
13.8327	865.547	46.3018
13.83283	873.42	46.3115
13.83351	877.303	46.3213
13.8344	879.811	46.3311
13.8349	874.167	46.34082
13.8361	868.259	46.3506
13.8356	868.724	46.3604
13.8377	868.189	46.3701
13.8381	875.551	46.3799
13.83924	877.1618	46.3896
13.84077	875.147	46.3994
13.841	873.015	46.40918
13.8409	863.7851	46.4189
13.8421	867.107	46.4287
13.8432	875.112	46.4385
13.8438	876.327	46.4482
13.8445	876.657	46.458
13.8453	869.297	46.4678
13.8465	867.801	46.4775
13.8466	866.337	46.4873
13.8477	868.79	46.49707
13.8488	875.521	46.5068
13.8493	874.152	46.5166
13.8509	873.271	46.5264
13.851	865.079	46.5361
13.8517	863.295	46.5459
13.8532	868.194	46.5557
13.8536	871.639	46.56543
13.8547	873.165	46.5752
13.85612	869.762	46.585
13.8569	866.817	46.5947
13.8582	864.5412	46.6045
13.8582	864.804	46.6143
13.8583	864.753	46.624
13.8588	869.369	46.6338
13.859	870.078	46.6436
13.8609	867.005	46.65332
13.8617	862.286	46.6631
13.8615	858.9	46.6729
13.864	861.74	46.6826
13.864	866.42	46.6924
13.8657	864.0686	46.7021
13.8658	866.622	46.7119
13.8662	862.329	46.72168
13.86653	856.8	46.7314
13.8681	855.371	46.7412
13.8688	857.147	46.751
13.8693	864.026	46.7607
13.8714	856.588	46.7705
13.8714	850.3158	46.7803
13.8723	833.845	46.79
13.8803	-81.9016	46.7998
13.8808	-21.3601	46.80957
13.8802	-58.2687	46.8193
13.8805	-46.6548	46.8291
13.8802	-47.5662	46.8389
13.8791	-51.1589	46.8486
13.88056	-49.5374	46.8584
13.8805	-55.522	46.8682
13.8812	-45.5753	46.87793
13.8825	-41.6705	46.8877
13.8824	-45.07127	46.8975
13.8838	-48.7214	46.9072
13.8835	-53.8523	46.917
13.8857	-53.34869	46.9268
13.8861	-49.7475	46.9365
13.8865	-45.6818	46.9463
13.8868	-40.6599	46.9561
13.88851	-45.6555	46.96582
13.8897	-52.3145	46.9756
13.8897	-57.1175	46.9854
13.89	-52.2071	46.9951
13.8912	-46.6095	47.0049
13.89255	-40.8157	47.0146
13.8925	-44.9393	47.0244
13.8936	-50.9134	47.03418
13.8935	-53.6414	47.0439
13.8945	-55.83289	47.0537
13.8966	-46.2034	47.0635
13.8976	-44.70475	47.0732
13.8979	-43.6088	47.083
13.8988	-46.8457	47.0928
13.899	-56.9992	47.1025
13.89973	-55.5541	47.1123
13.9003	-49.3726	47.12207
13.9011	-44.7513	47.1318
13.9006	-42.6922	47.1416
13.90245	-49.437	47.1514
13.9035	-50.0697	47.1611
13.9047	-53.4341	47.1709
13.9055	-52.5029	47.1807
13.9075	-46.3837	47.19043
13.9076	-44.103	47.2002
13.9069	-42.135	47.21
13.90913	-51.9718	47.2197
13.9101	-52.4258	47.2295
13.9107	-50.3919	47.2393
13.91209	-48.5319	47.249
13.9122	-44.5963	47.2588
13.9127	-45.5924	47.2686
13.914	-47.16666	47.27832
13.9138	-49.0417	47.2881
13.916	-53.0683	47.2979
13.9163	-50.9348	47.3076
13.917	-48.1375	47.3174
13.9183	-42.6147	47.3271
13.918	-43.858	47.3369
13.9195	-47.8118	47.34668
13.92	-52.9685	47.3564
13.9213	-51.0672	47.3662
13.9214	-46.8509	47.376
13.9232	-46.7038	47.3857
13.9238	-44.9194	47.3955
13.9244	-45.909	47.4053
13.9254	-49.43491	47.415
13.9259	-53.2981	47.4248
13.9253	-53.8504	47.43457
13.9268	-43.5742	47.4443
13.9282	-43.3367	47.4541
13.9285	-44.1002	47.4639
13.9289	-50.0948	47.4736
13.9297	-54.0146	47.4834
13.9313	-51.7834	47.4932
13.9314	-48.665	47.50293
13.9329	-42.1102	47.5127
13.9326	-43.5116	47.5225
13.9343	-46.5294	47.5322
13.9346	-50.8813	47.542
13.9362	-56.1576	47.5518
13.9376	-47.8779	47.5615
13.9377	-42.5422	47.5713
13.9392	-43.0083	47.5811
13.9396	-47.2376	47.59082
13.9407	-51.43935	47.6006
13.9401	-51.3682	47.6104
13.9419	-53.1285	47.6201
13.9432	-47.6266	47.6299
13.9434	-41.3158	47.6396
13.94483	-44.7475	47.6494
13.9452	-49.1235	47.65918
13.94528	-55.1585	47.6689
13.9461	-52.8012	47.6787
13.9463	-45.9661	47.6885
13.9484	-42.2468	47.6982
13.9489	-44.96471	47.708
13.9507	-48.6387	47.7178
13.95028	-50.6488	47.7275
13.95206	-55.20187	47.7373
13.9536	-48.1612	47.74707
13.9545	-44.2337	47.7568
13.9542	-42.1875	47.7666
13.955	-43.6837	47.7764
13.9546	-53.1278	47.7861
13.9575	-54.2863	47.7959
13.9581	-50.3345	47.8057
13.95862	-44.6786	47.81543
13.9589	-44.0842	47.8252
13.9586	-46.774	47.835
13.961	-47.0055	47.8447
13.9613	-52.5786	47.8545
13.962	-53.2939	47.8643
13.9625	-51.3764	47.874
13.9645	-46.4588	47.8838
13.9647	-42.1074	47.8936
13.966	-49.7248	47.90332
13.9664	-49.1407	47.9131
13.9671	-52.03	47.9229
13.9672	-48.4034	47.9326
13.9692	-45.6539	47.9424
13.97105	-46.6449	47.9521
13.9693	-46.1267	47.9619
13.9712	-47.5666	47.97168
13.9722	-52.6321	47.9814
13.97299	-50.52158	47.9912
13.973	-49.5211	48.001
13.97349	-42.76664	48.0107
13.9759	-43.041	48.0205
13.9758	-46.9412	48.0303
13.9772	-50.4661	48.04
13.9775	-51.9478	48.0498
13.97893	-49.8765	48.05957
13.9785	-48.0962	48.0693
13.9801	-44.2017	48.0791
13.9804	-42.1776	48.0889
13.982	-47.2739	48.0986
13.9828	-53.517	48.1084
13.9836	-52.4067	48.1182
13.9846	-45.6215	48.12793
13.9844	-43.547	48.1377
13.9862	-42.6094	48.1475
13.9866	-48.6421	48.1572
13.9864	-51.7156	48.167
13.9883	-54.1023	48.1768
13.98956	-50.8298	48.1865
13.991	-42.3724	48.1963
13.99141	-40.9866	48.2061
13.9919	-45.9805	48.21582
13.99307	-50.23254	48.2256
13.9929	-56.6237	48.2354
13.9945	-50.8649	48.2451
13.9945	-44.5991	48.2549
13.9957	-41.9985	48.2646
13.9956	-44.4312	48.2744
13.9965	-50.3185	48.28418
13.9976	-51.1576	48.2939
13.9987	-53.8983	48.3037
13.9998	-45.9963	48.3135
14	-42.0439	48.3232
14.00208	-42.93763	48.333
14.0016	-45.6474	48.3428
14.0036	-54.2346	48.3525
14.0037	-54.2315	48.3623
14.004	-46.8521	48.37207
14.0045	-45.2898	48.3818
14.0052	-44.209	48.3916
14.006	-47.007	48.4014
14.0071	-49.0619	48.4111
14.0093	-52.8188	48.4209
14.0093	-51.3519	48.4307
14.01076	-46.55415	48.44043
14.0122	-41.0728	48.4502
14.0118	-43.3696	48.46
14.0117	-49.9299	48.4697
14.0135	-52.498	48.4795
14.014	-52.2347	48.4893
14.0152	-46.6163	48.499
14.0168	-45.5718	48.5088
14.0169	-45.0278	48.5186
14.017	-45.0559	48.52832
14.01813	-50.111	48.5381
14.0186	-52.91674	48.5479
14.02068	-51.34708	48.5576
14.0203	-46.7698	48.5674
14.0222	-41.2565	48.5771
14.0214	-46.5169	48.5869
14.0222	-47.3742	48.59668
14.0239	-52.503	48.6064
14.0253	-50.2647	48.6162