File: data/processed_data_files/tensile/0.254_hd_dimension_typeiv_090_r(1).dat
MTS793|BTW|ENU|1|2|.|/|:|1|0|0|A

Data Header:			0.254_hd_dimension_typeiv_090_r0			Time:	20.0181	s	4/14/2019 12:26:09 AM
Data Acquisition:	Timed
Station Name:	ft40.cfg
Test File Name:	monotonic_0.2540_typeiv_hd_090_dimension.tst
Displacement	Force	Running Time
mm	N	s
-40.0413	-194.4019	0.0224609
-40.0409	-201.681	0.0419922
-40.04081	-193.955	0.0615234
-40.041	-194.378	0.0810547
-40.041	-198.908	0.100586
-40.03915	-197.533	0.120117
-40.0371	-191.5368	0.139648
-40.0353	-194.453	0.15918
-40.0342	-194.824	0.178711
-40.033	-190.146	0.198242
-40.0296	-187.134	0.217773
-40.02816	-191.543	0.237305
-40.0271	-191.2285	0.256836
-40.0265	-184.998	0.276367
-40.0243	-187.476	0.295898
-40.0214	-185.5	0.31543
-40.0209	-182.567	0.334961
-40.0193	-182.905	0.354492
-40.018	-184.958	0.374023
-40.0161	-175.665	0.393555
-40.0137	-180.635	0.413086
-40.0129	-181.858	0.432617
-40.0109	-176.014	0.452148
-40.0095	-172.825	0.47168
-40.0075	-181.902	0.491211
-40.005	-172.717	0.510742
-40.0048	-173.047	0.530273
-40.0033	-173.677	0.549805
-40.0023	-170.416	0.569336
-40.0006	-166.441	0.588867
-39.9974	-174.61	0.608398
-39.9964	-169.005	0.62793
-39.9948	-164.778	0.647461
-39.9935	-169.345	0.666992
-39.991	-166.6575	0.686523
-39.9898	-163.3654	0.706055
-39.9882	-165.256	0.725586
-39.9868	-164.93	0.745117
-39.985	-160.392	0.764648
-39.9837	-159.851	0.78418
-39.9819	-160.083	0.803711
-39.9794	-159.023	0.823242
-39.9777	-156.845	0.842773
-39.9769	-159.715	0.862305
-39.9755	-156.192	0.881836
-39.974	-152.103	0.901367
-39.9717	-154.232	0.920898
-39.9695	-157.039	0.94043
-39.9687	-148.098	0.959961
-39.96674	-151.85	0.979492
-39.9646	-151.153	0.999023
-39.9643	-146.368	1.01855
-39.9622	-147.703	1.03809
-39.9606	-152.859	1.05762
-39.9586	-140.849	1.07715
-39.9572	-145.564	1.09668
-39.956	-147.71	1.11621
-39.9546	-142.467	1.13574
-39.9533	-138.627	1.15527
-39.9506	-146.953	1.1748
-39.9495	-141.03	1.19434
-39.9471	-137.0881	1.21387
-39.9463	-140.7029	1.2334
-39.9436	-136.885	1.25293
-39.9411	-135.271	1.27246
-39.9416	-137.649	1.29199
-39.9389	-134.9	1.31152
-39.9369	-130.949	1.33105
-39.9355	-132.36	1.35059
-39.93483	-134.0416	1.37012
-39.9319	-130.053	1.38965
-39.9304	-127.351	1.40918
-39.9291	-131.969	1.42871
-39.9275	-127.923	1.44824
-39.9267	-126.118	1.46777
-39.9249	-124.992	1.4873
-39.9223	-127.1655	1.50684
-39.9224	-120.611	1.52637
-39.9196	-126.506	1.5459
-39.9179	-122.366	1.56543
-39.91613	-116.063	1.58496
-39.9143	-119.371	1.60449
-39.9134	-125.555	1.62402
-39.9112	-115.566	1.64355
-39.9101	-116.3694	1.66309
-39.9078	-116.491	1.68262
-39.9072	-112.263	1.70215
-39.9044	-111.8085	1.72168
-39.9026	-118.536	1.74121
-39.9029	-108.456	1.76074
-39.9006	-109.548	1.78027
-39.9	-114.537	1.7998
-39.8976	-107.906	1.81934
-39.8966	-105.071	1.83887
-39.8929	-110.1	1.8584
-39.8925	-107.161	1.87793
-39.8906	-102.02	1.89746
-39.889	-106.066	1.91699
-39.8861	-103.114	1.93652
-39.8852	-102.005	1.95605
-39.8847	-101.614	1.97559
-39.8826	-101.4409	1.99512
-39.8823	-95.0917	2.01465
-39.8786	-97.6833	2.03418
-39.8771	-100.009	2.05371
-39.8765	-99.56015	2.07324
-39.8744	-92.1559	2.09277
-39.87278	-98.1234	2.1123
-39.8701	-93.6114	2.13184
-39.8684	-89.0497	2.15137
-39.8678	-91.0673	2.1709
-39.8653	-95.0741	2.19043
-39.8648	-84.3506	2.20996
-39.864	-91.182	2.22949
-39.8618	-88.3804	2.24902
-39.8589	-81.4847	2.26855
-39.8575	-83.6831	2.28809
-39.8561	-92.8651	2.30762
-39.8537	-80.1454	2.32715
-39.8533	-80.8647	2.34668
-39.8525	-85.4436	2.36621
-39.8508	-79.3883	2.38574
-39.8486	-78.2421	2.40527
-39.8472	-82.5761	2.4248
-39.844	-75.8975	2.44434
-39.844	-74.6811	2.46387
-39.8415	-78.1729	2.4834
-39.84	-75.1263	2.50293
-39.83831	-73.1083	2.52246
-39.8372	-73.0834	2.54199
-39.8354	-75.6094	2.56152
-39.8338	-68.3337	2.58105
-39.8328	-69.8392	2.60059
-39.8299	-71.0799	2.62012
-39.8282	-69.7209	2.63965
-39.827	-65.7698	2.65918
-39.826	-70.988	2.67871
-39.8239	-62.9458	2.69824
-39.8218	-62.8487	2.71777
-39.8216	-65.1366	2.7373
-39.8181	-64.8662	2.75684
-39.8167	-55.9386	2.77637
-39.8153	-63.9853	2.7959
-39.8153	-62.7055	2.81543
-39.8122	-55.4332	2.83496
-39.8104	-58.0396	2.85449
-39.8093	-62.8695	2.87402
-39.8074	-52.9198	2.89355
-39.8065	-56.2616	2.91309
-39.8045	-55.79055	2.93262
-39.8029	-48.5101	2.95215
-39.8005	-49.1786	2.97168
-39.8	-57.19215	2.99121
-39.799	-49.3649	3.01074
-39.7963	-44.9554	3.03027
-39.795	-51.3746	3.0498
-39.7936	-47.8327	3.06934
-39.7909	-45.4324	3.08887
-39.789	-45.994	3.1084
-39.7874	-45.9036	3.12793
-39.78635	-39.3976	3.14746
-39.7858	-44.3589	3.16699
-39.784	-41.5584	3.18652
-39.7816	-39.0195	3.20605
-39.7802	-38.4606	3.22559
-39.7782	-44.6076	3.24512
-39.7772	-35.6993	3.26465
-39.7761	-34.9281	3.28418
-39.7734	-37.30999	3.30371
-39.771	-37.74247	3.32324
-39.77	-31.1383	3.34277
-39.769	-36.1805	3.3623
-39.7671	-32.2827	3.38184
-39.7654	-26.5533	3.40137
-39.7642	-32.3838	3.4209
-39.761	-33.9662	3.44043
-39.7599	-23.8142	3.45996
-39.7593	-29.4557	3.47949
-39.7575	-30.2977	3.49902
-39.7555	-21.9587	3.51855
-39.7538	-24.6225	3.53809
-39.7524	-29.1529	3.55762
-39.7502	-20.8402	3.57715
-39.749	-20.098	3.59668
-39.7475	-24.2551	3.61621
-39.7456	-17.32589	3.63574
-39.7449	-18.944	3.65527
-39.7429	-21.4983	3.6748
-39.7417	-19.3445	3.69434
-39.7392	-11.9701	3.71387
-39.7379	-17.2919	3.7334
-39.736	-15.1655	3.75293
-39.7337	-12.8256	3.77246
-39.7335	-10.2231	3.79199
-39.7306	-15.2958	3.81152
-39.7298	-8.11114	3.83105
-39.7273	-9.32096	3.85059
-39.7244	-8.19391	3.87012
-39.7252	-7.05121	3.88965
-39.7234	-3.66767	3.90918
-39.7206	-10.3501	3.92871
-39.7206	-2.69794	3.94824
-39.71917	-0.887675	3.96777
-39.7161	-5.14662	3.9873
-39.71479	-4.65746	4.00684
-39.713	2.98567	4.02637
-39.711	-1.50134	4.0459
-39.7103	0.384267	4.06543
-39.7082	5.42809	4.08496
-39.7063	1.08736	4.10449
-39.7055	-0.546314	4.12402
-39.7041	8.48846	4.14355
-39.7018	7.09377	4.16309
-39.6998	1.66721	4.18262
-39.6983	10.0897	4.20215
-39.6982	9.817997	4.22168
-39.6951	7.30952	4.24121
-39.6929	10.639	4.26074
-39.6917	14.1795	4.28027
-39.6905	9.56456	4.2998
-39.688	15.837	4.31934
-39.6857	15.1246	4.33887
-39.6851	12.8903	4.3584
-39.6835	13.8928	4.37793
-39.6817	22.7624	4.39746
-39.6806	18.956	4.41699
-39.6796	17.1386	4.43652
-39.6775	19.5832	4.45605
-39.6762	26.3895	4.47559
-39.6743	19.9503	4.49512
-39.6727	26.4172	4.51465
-39.6717	26.1337	4.53418
-39.6707	22.7183	4.55371
-39.6675	25.4657	4.57324
-39.6653	31.19248	4.59277
-39.6642	23.8236	4.6123
-39.6628	28.0654	4.63184
-39.6615	35.4979	4.65137
-39.6589	28.9917	4.6709
-39.6573	28.3472	4.69043
-39.6558	36.4926	4.70996
-39.6553	35.075	4.72949
-39.6531	31.6681	4.74902
-39.6509	40.4123	4.76855
-39.6491	34.3589	4.78809
-39.6484	35.26572	4.80762
-39.6465	39.4726	4.82715
-39.6442	41.5068	4.84668
-39.6431	35.8948	4.86621
-39.64114	42.7711	4.88574
-39.6399	43.4505	4.90527
-39.6381	45.29258	4.9248
-39.6361	43.287	4.94434
-39.6347	48.6563	4.96387
-39.6333	43.3868	4.9834
-39.6324	47.4504	5.00293
-39.6302	47.8647	5.02246
-39.6281	48.8652	5.04199
-39.6271	46.2235	5.06152
-39.6256	55.0418	5.08105
-39.6232	52.8699	5.10059
-39.6209	47.6477	5.12012
-39.62151	51.82061	5.13965
-39.6184	58.6247	5.15918
-39.61721	51.4891	5.17871
-39.6163	54.1129	5.19824
-39.6138	59.2692	5.21777
-39.6125	55.8185	5.2373
-39.6111	57.74556	5.25684
-39.6092	63.6922	5.27637
-39.60836	59.7607	5.2959
-39.6073	59.4051	5.31543
-39.6044	68.809	5.33496
-39.6019	62.15765	5.35449
-39.5999	61.0104	5.37402
-39.598	67.7755	5.39355
-39.5965	67.6399	5.41309
-39.5963	64.4482	5.43262
-39.5948	71.9898	5.45215
-39.5936	68.4653	5.47168
-39.591	68.41333	5.49121
-39.5902	72.6476	5.51074
-39.58839	76.1161	5.53027
-39.5872	70.69455	5.5498
-39.5852	74.41642	5.56934
-39.5836	76.4586	5.58887
-39.5819	76.3757	5.6084
-39.58	73.3778	5.62793
-39.5779	80.2492	5.64746
-39.576	78.906	5.66699
-39.5752	77.2317	5.68652
-39.5746	81.2001	5.70605
-39.5713	81.01899	5.72559
-39.5704	78.3146	5.74512
-39.5685	85.1504	5.76465
-39.5674	87.058	5.78418
-39.565	78.9978	5.80371
-39.5632	84.1022	5.82324
-39.5627	90.6268	5.84277
-39.5603	85.0479	5.8623
-39.5583	86.8297	5.88184
-39.5566	93.5814	5.90137
-39.5553	87.2657	5.9209
-39.5541	90.1341	5.94043
-39.5525	94.9765	5.95996
-39.5499	92.4593	5.97949
-39.5494	92.3614	5.99902
-39.5469	100.661	6.01855
-39.5459	95.5634	6.03809
-39.54377	94.8671	6.05762
-39.5436	98.889	6.07715
-39.5398	104.07	6.09668
-39.5395	97.9503	6.11621
-39.5378	101.957	6.13574
-39.5362	101.125	6.15527
-39.53434	102.342	6.1748
-39.5324	102.965	6.19434
-39.53133	108.833	6.21387
-39.5287	103.487	6.2334
-39.5275	105.482	6.25293
-39.5254	108.875	6.27246
-39.5247	109.476	6.29199
-39.522	105.798	6.31152
-39.5204	111.987	6.33105
-39.5204	113.901	6.35059
-39.5169	108.262	6.37012
-39.5175	113.096	6.38965
-39.5153	114.119	6.40918
-39.5121	111.098	6.42871
-39.5116	116.707	6.44824
-39.5093	121.995	6.46777
-39.5089	112.408	6.4873
-39.5076	118.3444	6.50684
-39.50576	122.856	6.52637
-39.5023	118.255	6.5459
-39.502	119.283	6.56543
-39.4996	127.503	6.58496
-39.5001	119.437	6.60449
-39.4966	123.978	6.62402
-39.4951	126.297	6.64355
-39.4925	125.8629	6.66309
-39.4915	125.544	6.68262
-39.4908	130.162	6.70215
-39.4876	126.597	6.72168
-39.4885	128.145	6.74121
-39.48597	130.0386	6.76074
-39.4836	134.936	6.78027
-39.4822	130.168	6.7998
-39.4806	130.937	6.81934
-39.4788	135.628	6.83887
-39.478	133.0881	6.8584
-39.4748	134.377	6.87793
-39.4744	138.5	6.89746
-39.4726	136.728	6.91699
-39.47094	134.746	6.93652
-39.4689	140.721	6.95605
-39.4668	141.502	6.97559
-39.465	138.16	6.99512
-39.4641	142.05	7.01465
-39.4614	145.192	7.03418
-39.4605	139.266	7.05371
-39.4602	143.426	7.07324
-39.457	146.643	7.09277
-39.4567	144.171	7.1123
-39.4544	147.693	7.13184
-39.452	152.562	7.15137
-39.4506	143.142	7.1709
-39.4501	149.609	7.19043
-39.449	153.62	7.20996
-39.4448	152.615	7.22949
-39.444	149.824	7.24902
-39.4427	156.31	7.26855
-39.4419	153.125	7.28809
-39.4398	155.278	7.30762
-39.43874	157.546	7.32715
-39.4358	159.694	7.34668
-39.4364	156.052	7.36621
-39.43224	162.1906	7.38574
-39.4317	160.187	7.40527
-39.42968	157.961	7.4248
-39.4281	160.927	7.44434
-39.4259	166.1783	7.46387
-39.4254	162.723	7.4834
-39.4241	162.173	7.50293
-39.4224	165.07	7.52246
-39.4219	165.954	7.54199
-39.4183	165.488	7.56152
-39.418	169.62	7.58105
-39.4153	171.193	7.60059
-39.4132	163.455	7.62012
-39.4118	173.488	7.63965
-39.4104	171.713	7.65918
-39.4085	168.05	7.67871
-39.4069	173.895	7.69824
-39.4062	178.837	7.71777
-39.4045	169.1187	7.7373
-39.402	175.267	7.75684
-39.4007	178.356	7.77637
-39.3996	176.993	7.7959
-39.3971	178.269	7.81543
-39.3959	185.869	7.83496
-39.3943	176.132	7.85449
-39.3919	179.23	7.87402
-39.3907	185.783	7.89355
-39.3906	183.467	7.91309
-39.3882	181.834	7.93262
-39.3869	187.496	7.95215
-39.3858	185.589	7.97168
-39.3828	185.175	7.99121
-39.3816	188.38	8.01074
-39.3798	189.254	8.03027
-39.3788	186.326	8.0498
-39.3765	189.58	8.06934
-39.3749	193.558	8.08887
-39.3738	189.0876	8.1084
-39.3724	191.528	8.12793
-39.3704	196.864	8.14746
-39.3679	195.358	8.16699
-39.3666	189.6774	8.18652
-39.3651	197.188	8.20605
-39.3635	198.218	8.22559
-39.3621	195.35	8.24512
-39.3598	201.102	8.26465
-39.358	203.361	8.28418
-39.3567	194.259	8.30371
-39.3557	205.219	8.32324
-39.35461	204.658	8.34277
-39.3519	199.793	8.3623
-39.3508	201.631	8.38184
-39.3489	208.696	8.40137
-39.3482	201.6273	8.4209
-39.3454	208.545	8.44043
-39.3433	209.401	8.45996
-39.3427	208.887	8.47949
-39.3404	209.151	8.49902
-39.3393	213.727	8.51855
-39.3369	208.274	8.53809
-39.3363	208.496	8.55762
-39.3342	215.178	8.57715
-39.3333	216.546	8.59668
-39.3303	211.717	8.61621
-39.3294	215.323	8.63574
-39.327	219.524	8.65527
-39.3254	215.231	8.6748
-39.3241	216.822	8.69434
-39.323	219.588	8.71387
-39.3209	218.946	8.7334
-39.3203	217.09	8.75293
-39.3181	225.465	8.77246
-39.3164	218.28	8.79199
-39.3152	219.506	8.81152
-39.3128	228.193	8.83105
-39.3122	227.894	8.85059
-39.3083	219.3689	8.87012
-39.3089	228.869	8.88965
-39.306	227.515	8.90918
-39.3046	226.204	8.92871
-39.3034	230.537	8.94824
-39.3011	232.49	8.96777
-39.30077	226.402	8.9873
-39.298	234.639	9.00684
-39.2976	235.2919	9.02637
-39.29562	230.3763	9.0459
-39.2936	232.511	9.06543
-39.2919	240.276	9.08496
-39.2902	232.885	9.10449
-39.2887	235.732	9.12402
-39.2876	240.74	9.14355
-39.2856	237.818	9.16309
-39.283	239.281	9.18262
-39.2818	240.622	9.20215
-39.2805	241.57	9.22168
-39.2776	239.768	9.24121
-39.277	245.225	9.26074
-39.276	246.359	9.28027
-39.27494	242.856	9.2998
-39.2731	241.896	9.31934
-39.2711	251.511	9.33887
-39.26857	244.835	9.3584
-39.2682	247.703	9.37793
-39.2659	251.502	9.39746
-39.2651	250.4	9.41699
-39.2624	246.084	9.43652
-39.2612	256.163	9.45605
-39.2604	250.769	9.47559
-39.258	251.267	9.49512
-39.2557	257.322	9.51465
-39.2548	258.507	9.53418
-39.2524	248.548	9.55371
-39.2511	257.629	9.57324
-39.2508	260.023	9.59277
-39.2478	256.493	9.6123
-39.2458	260.332	9.63184
-39.2453	264.675	9.65137
-39.2437	255.12	9.6709
-39.2423	260.871	9.69043
-39.23959	265.339	9.70996
-39.2391	262.641	9.72949
-39.2364	262.903	9.74902
-39.2346	267.457	9.76855
-39.234	266.0845	9.78809
-39.2319	263.489	9.80762
-39.2304	269.9223	9.82715
-39.2272	269.056	9.84668
-39.2269	267.946	9.86621
-39.2251	268.9368	9.88574
-39.2234	272.528	9.90527
-39.22184	267.919	9.9248
-39.2196	274.093	9.94434
-39.2188	277.507	9.96387
-39.21661	273.318	9.9834
-39.216	271.006	10.00293
-39.2133	281.269	10.0225
-39.2126	276.239	10.042
-39.2104	276.198	10.0615
-39.2097	279.52	10.0811
-39.2072	282.093	10.1006
-39.2062	275.151	10.1201
-39.2037	285.343	10.1396
-39.2021	282.764	10.15918
-39.201	279.927	10.1787
-39.1987	285.692	10.1982
-39.1963	289.8999	10.2178
-39.1957	279.194	10.2373
-39.1936	286.376	10.2568
-39.1931	290.39	10.2764
-39.1913	286.383	10.2959
-39.189	289.228	10.31543
-39.1877	291.336	10.335
-39.1856	289.795	10.3545
-39.1848	289.267	10.374
-39.18243	296.167	10.3936
-39.1815	291.409	10.4131
-39.1802	290.549	10.4326
-39.1778	295.55	10.4521
-39.177	299.299	10.47168
-39.1748	293.401	10.4912
-39.174	298.297	10.5107
-39.171	300.294	10.5303
-39.1703	298.422	10.5498
-39.1689	296.674	10.5693
-39.1668	304.682	10.5889
-39.1646	298.265	10.6084
-39.1633	301.737	10.62793
-39.164	307.675	10.6475
-39.1609	304.944	10.667
-39.15786	298.98	10.6865
-39.15736	311.097	10.7061
-39.1554	307.699	10.7256
-39.1528	304.596	10.7451
-39.152	309.716	10.7646
-39.1502	311.497	10.78418
-39.1502	305.232	10.8037
-39.148	312.488	10.8232
-39.1462	314.143	10.8428
-39.1426	307.89	10.8623
-39.1417	312.1	10.8818
-39.14	317.029	10.9014
-39.1384	311.01	10.9209
-39.1361	312.125	10.94043
-39.1351	319.898	10.96
-39.1348	316.813	10.9795
-39.132	316.104	10.999
-39.1307	316.312	11.0186
-39.13	319.028	11.0381
-39.1267	316.735	11.0576
-39.1255	323.913	11.0771
-39.12471	322.944	11.09668
-39.1222	321.917	11.1162
-39.1215	323.291	11.1357
-39.1198	328.354	11.1553
-39.1178	321.055	11.1748
-39.1167	326.444	11.1943
-39.1153	330.877	11.2139
-39.1131	328.382	11.2334
-39.1122	323.792	11.25293
-39.1092	333.9082	11.2725
-39.1082	329.065	11.292
-39.105	330.858	11.3115
-39.1046	336.29	11.3311
-39.1031	333.258	11.3506
-39.1014	325.491	11.3701
-39.0986	336.702	11.3896
-39.0989	337.2728	11.40918
-39.096	331.501	11.4287
-39.0955	336.814	11.4482
-39.0935	336.6669	11.4678
-39.0916	332.76	11.4873
-39.09	337.654	11.5068
-39.0882	340.052	11.5264
-39.0868	336.3251	11.5459
-39.0855	340.245	11.56543
-39.0839	341.926	11.585
-39.0824	339.569	11.6045
-39.0793	338.713	11.624
-39.07888	346.376	11.6436
-39.0774	344.071	11.6631
-39.0749	344.228	11.6826
-39.0746	343.8826	11.7021
-39.0722	348.477	11.72168
-39.0706	343.521	11.7412
-39.0692	350.123	11.7607
-39.0683	351.221	11.7803
-39.0658	346.941	11.7998
-39.0635	345.645	11.8193
-39.0624	356.187	11.8389
-39.0607	347.563	11.8584
-39.0589	350.523	11.87793
-39.0586	357.237	11.8975
-39.0561	353.141	11.917
-39.05471	350.098	11.9365
-39.0515	358.297	11.9561
-39.05143	355.308	11.9756
-39.0493	352.944	11.9951
-39.0485	362.324	12.0146
-39.0466	358.032	12.03418
-39.0449	352.6	12.0537
-39.0427	358.269	12.0732
-39.0413	364.295	12.0928
-39.0393	355.008	12.1123
-39.0385	361.479	12.1318
-39.0356	362.829	12.1514
-39.0348	362.29	12.1709
-39.0325	360.228	12.19043
-39.0305	366.218	12.21
-39.0293	361.878	12.2295
-39.0293	365.737	12.249
-39.0265	365.739	12.2686
-39.0251	368.168	12.2881
-39.0232	362.753	12.3076
-39.0222	371.486	12.3271
-39.0204	372.342	12.34668
-39.0186	367.166	12.3662
-39.0179	366.66	12.3857
-39.0148	373.367	12.4053
-39.0136	367.813	12.4248
-39.01173	373.155	12.4443
-39.0098	375.3	12.4639
-39.0083	371.885	12.4834
-39.0069	370.633	12.50293
-39.0057	381.761	12.5225
-39.0037	375.032	12.542
-39.0015	371.609	12.5615
-39.0002	380.185	12.5811
-38.9986	375.909	12.6006
-38.9977	374.594	12.6201
-38.9963	381.122	12.6396
-38.9934	382.318	12.65918
-38.9924	376.413	12.6787
-38.99081	383.202	12.6982
-38.9891	382.076	12.7178
-38.9875	378.156	12.7373
-38.985	381.426	12.7568
-38.9847	387.468	12.7764
-38.9835	383.4408	12.7959
-38.9809	383.521	12.81543
-38.9773	386.986	12.835
-38.9782	386.645	12.8545
-38.9759	382.922	12.874
-38.975	390.684	12.8936
-38.9732	389.785	12.9131
-38.97065	386.736	12.9326
-38.9689	389.666	12.9521
-38.9674	393.549	12.97168
-38.96632	385.868	12.9912
-38.9651	391.884	13.0107
-38.9631	396.3017	13.0303
-38.9613	388.008	13.0498
-38.9589	389.46	13.0693
-38.9586	398.656	13.0889
-38.9567	392.289	13.1084
-38.9552	394.115	13.12793
-38.9525	398.598	13.1475
-38.9517	393.5556	13.167
-38.95	392.152	13.1865
-38.9482	402.247	13.2061
-38.9475	398.837	13.2256
-38.945	394.621	13.2451
-38.9431	402.408	13.2646
-38.9417	400.504	13.28418
-38.9408	398.541	13.3037
-38.9382	401.528	13.3232
-38.9375	405.835	13.3428
-38.9357	398.595	13.3623
-38.9331	404.571	13.3818
-38.931	403.544	13.4014
-38.931	404.064	13.4209
-38.9297	402.351	13.44043
-38.9266	410.049	13.46
-38.9261	404.9	13.4795
-38.9248	403.355	13.499
-38.9227	408.5238	13.5186
-38.9208	409.34	13.5381
-38.9183	403.396	13.5576
-38.9179	410.516	13.5771
-38.9159	411.192	13.59668
-38.915	405.612	13.6162
-38.9127	408.518	13.6357
-38.9108	414.655	13.6553
-38.9095	406.788	13.6748
-38.9081	410.421	13.6943
-38.9062	417.23	13.7139
-38.9037	409.346	13.7334
-38.90263	410.435	13.75293
-38.9009	416.902	13.7725
-38.8995	415.228	13.792
-38.8973	412.912	13.8115
-38.8963	420.595	13.8311
-38.8944	414.5914	13.8506
-38.8934	414.562	13.8701
-38.8909	418.706	13.8896
-38.8889	421.509	13.90918
-38.8886	413.999	13.9287
-38.8864	422.221	13.9482
-38.8849	419.142	13.9678
-38.8846	416.959	13.9873
-38.8821	417.75	14.0068
-38.8802	424.023	14.0264
-38.87743	420.241	14.0459
-38.8766	419.267	14.06543
-38.8755	421.281	14.085
-38.875	421.982	14.1045
-38.8714	419.822	14.124
-38.8698	427.52	14.1436
-38.86887	424.074	14.1631
-38.8668	419.229	14.1826
-38.8654	424.805	14.2021
-38.8639	428.184	14.22168
-38.8619	422.195	14.2412
-38.8607	424.942	14.2607
-38.8595	428.76	14.2803
-38.8577	422.8	14.2998
-38.8569	424.1572	14.3193
-38.8536	430.196	14.3389
-38.8534	424.318	14.3584
-38.85017	425.889	14.37793
-38.8499	432.787	14.3975
-38.8478	422.999	14.417
-38.84692	424.211	14.4365
-38.8445	432.013	14.4561
-38.84251	432.324	14.4756
-38.84148	426.864	14.4951
-38.839	434.105	14.5146
-38.8372	429.3009	14.53418
-38.8366	428.966	14.5537
-38.835	431.905	14.5732
-38.8334	436.101	14.5928
-38.8307	427.318	14.6123
-38.82933	433.8165	14.6318
-38.8278	434.04	14.6514
-38.8269	433.369	14.6709
-38.82526	429.735	14.69043
-38.8231	438.333	14.71
-38.8206	434.913	14.7295
-38.8189	431.563	14.749
-38.8175	434.888	14.7686
-38.8172	435.821	14.7881
-38.8161	431.375	14.8076
-38.8134	437.289	14.8271
-38.8112	437.971	14.84668
-38.8099	430.448	14.8662
-38.8092	435.916	14.8857
-38.8079	439.346	14.9053
-38.8055	433.84	14.9248
-38.8046	436.385	14.9443
-38.8024	442.003	14.9639
-38.8004	434.982	14.9834
-38.7993	436.244	15.00293
-38.7968	439.8959	15.0225
-38.7959	437.445	15.042
-38.7928	434.919	15.0615
-38.7918	443.479	15.0811
-38.7903	436.958	15.1006
-38.7896	437.696	15.1201
-38.7877	439.619	15.1396
-38.7862	442.821	15.15918
-38.7836	437.922	15.1787
-38.7822	441.033	15.1982
-38.7812	438.39	15.2178
-38.7788	438.24	15.2373
-38.7778	441.84	15.2568
-38.7759	442.759	15.2764
-38.7746	438.995	15.2959
-38.7725	437.77	15.31543
-38.7699	442.211	15.335
-38.7704	441.125	15.3545
-38.76717	438.374	15.374
-38.7674	444.575	15.3936
-38.7647	444.377	15.4131
-38.7634	436.334	15.4326
-38.76152	442.016	15.4521
-38.7598	443.148	15.47168
-38.75819	440.287	15.4912
-38.75658	442.325	15.5107
-38.7551	445.981	15.5303
-38.75449	436.2417	15.5498
-38.7512	442.3414	15.5693
-38.7499	445.128	15.5889
-38.7471	439.19	15.6084
-38.74662	438.026	15.62793
-38.7444	448.199	15.6475
-38.7431	440.548	15.667
-38.7412	441.882	15.6865
-38.739	445.195	15.7061
-38.7377	444.928	15.7256
-38.7362	440.55	15.7451
-38.7344	446.9939	15.7646
-38.7336	442.012	15.78418
-38.73246	440.359	15.8037
-38.7307	444.206	15.8232
-38.72913	447.577	15.8428
-38.7268	442.016	15.8623
-38.7248	442.957	15.8818
-38.7245	444.164	15.9014
-38.7213	442.816	15.9209
-38.7218	443.993	15.94043
-38.71994	447.474	15.96
-38.71682	442.588	15.9795
-38.7155	439.694	15.999
-38.7147	446.233	16.0186
-38.713	444.13	16.0381
-38.71172	441.225	16.0576
-38.70903	445.358	16.0771
-38.7073	447.668	16.09668
-38.7056	438.1528	16.1162
-38.704	445.439	16.1357
-38.7025	445.89	16.1553
-38.7013	442.763	16.1748
-38.6998	442.791	16.1943
-38.698	448.45	16.2139
-38.6972	437.249	16.2334
-38.694	442.925	16.25293
-38.6927	445.959	16.2725
-38.6922	444.179	16.292
-38.6892	439.559	16.3115
-38.68824	446.757	16.3311
-38.6859	441.065	16.3506
-38.68483	440.5845	16.3701
-38.6831	444.372	16.3896
-38.6802	445.9697	16.40918
-38.6788	440.505	16.4287
-38.6794	444.606	16.4482
-38.6763	443.508	16.4678
-38.6749	440.148	16.4873
-38.67392	443.832	16.5068
-38.6715	446.159	16.5264
-38.6696	441.915	16.5459
-38.669	437.24	16.56543
-38.6671	443.796	16.585
-38.6651	442.294	16.6045
-38.6639	441.594	16.624
-38.66188	444.5061	16.6436
-38.6601	443.496	16.6631
-38.6585	434.867	16.6826
-38.656	446.578	16.7021
-38.6555	442.1376	16.72168
-38.6549	438.145	16.7412
-38.6516	443.002	16.7607
-38.6505	444.868	16.7803
-38.6498	434.828	16.7998
-38.6473	441.592	16.8193
-38.6457	442.606	16.8389
-38.6434	440.156	16.8584
-38.643	440.38	16.87793
-38.6405	444.007	16.8975
-38.6397	436.523	16.917
-38.6374	438.591	16.9365
-38.6364	442.514	16.9561
-38.6343	441.685	16.9756
-38.63327	435.631	16.9951
-38.632	441.034	17.0146
-38.6292	438.791	17.03418
-38.6275	437.072	17.0537
-38.62524	438.792	17.0732
-38.6237	439.688	17.0928
-38.6227	437.714	17.1123
-38.622	438.623	17.1318
-38.6186	440.859	17.1514
-38.6176	435.863	17.1709
-38.6157	437.532	17.19043
-38.6141	442.366	17.21
-38.613	439.363	17.2295
-38.6123	432.354	17.249
-38.6099	443.05	17.2686
-38.6082	438.122	17.2881
-38.6068	435.296	17.3076
-38.6047	440.15	17.3271
-38.6037	440.221	17.34668
-38.60294	431.261	17.3662
-38.6005	441.091	17.3857
-38.5983	439.55	17.4053
-38.5971	434.04	17.4248
-38.5963	437.04	17.4443
-38.5948	440.938	17.4639
-38.592	430.6	17.4834
-38.59026	436.055	17.50293
-38.5882	439.876	17.5225
-38.586	436.733	17.542
-38.586	435.269	17.5615
-38.5848	438.939	17.5811
-38.5824	433.651	17.6006
-38.58046	433.697	17.6201
-38.5788	438.45	17.6396
-38.5771	437.19	17.65918
-38.5764	431.033	17.6787
-38.5741	434.094	17.6982
-38.572	435.471	17.7178
-38.5708	432.468	17.7373
-38.5697	435.3078	17.7568
-38.5683	437.43	17.7764
-38.5654	433.89	17.7959
-38.56498	431.198	17.81543
-38.5625	438.53	17.835
-38.56086	432.52	17.8545
-38.5601	430.959	17.874
-38.5579	439.125	17.8936
-38.5562	437.506	17.9131
-38.5547	427.712	17.9326
-38.55304	436.261	17.9521
-38.5498	436.016	17.97168
-38.5514	430.576	17.9912
-38.5473	435.015	18.0107
-38.5469	435.643	18.0303
-38.5446	427.2883	18.0498
-38.543	433.544	18.0693
-38.5412	436.351	18.0889
-38.5395	431.365	18.1084
-38.5391	431.83	18.12793
-38.5369	437.028	18.1475
-38.5354	429.232	18.167
-38.5344	429.74	18.1865
-38.53191	435.076	18.2061
-38.5304	433.898	18.2256
-38.5286	428.893	18.2451
-38.5267	431.296	18.2646
-38.5256	432.364	18.28418
-38.5233	428.585	18.3037
-38.5217	434.714	18.3232
-38.5202	434.65	18.3428
-38.5191	428.055	18.3623
-38.5171	427.119	18.3818
-38.5148	435.274	18.4014
-38.5143	429.844	18.4209
-38.5126	431.772	18.44043
-38.5115	434.367	18.46
-38.5087	430.958	18.4795
-38.5068	426.598	18.499
-38.5057	434.251	18.5186
-38.5049	431.203	18.5381
-38.5019	428.6749	18.5576
-38.5012	433.853	18.5771
-38.4994	433.303	18.59668
-38.4972	423.67	18.6162
-38.4967	432.115	18.6357
-38.494	432.446	18.6553
-38.4927	427.665	18.6748
-38.492	428.9863	18.6943
-38.4894	432.586	18.7139
-38.4875	425.7431	18.7334
-38.48637	428.966	18.75293
-38.485	432.535	18.7725
-38.4828	428.488	18.792
-38.4805	425.852	18.8115
-38.47987	431.4877	18.8311
-38.478	429.82	18.8506
-38.4766	424.326	18.8701
-38.4743	430.9729	18.8896
-38.4736	432.259	18.90918
-38.4721	428.7431	18.9287
-38.4703	427.252	18.9482
-38.4684	433.663	18.9678
-38.4665	423.304	18.9873
-38.4654	429.382	19.0068
-38.4635	432.951	19.0264
-38.4618	427.128	19.0459
-38.46	424.19	19.06543
-38.4578	434.904	19.085
-38.4575	427.404	19.1045
-38.4559	426.348	19.124
-38.4553	431.763	19.1436
-38.4518	429.2099	19.1631
-38.45026	422.214	19.1826
-38.4485	430.954	19.2021
-38.4472	429.012	19.22168
-38.4452	425.14	19.2412
-38.444	430.483	19.2607
-38.4427	428.698	19.2803
-38.4403	421.762	19.2998
-38.4389	428.107	19.3193
-38.4375	432.033	19.3389
-38.43615	426.584	19.3584
-38.4348	427.262	19.37793
-38.43177	428.102	19.3975
-38.4313	426.727	19.417
-38.4292	426.529	19.4365
-38.4277	432.288	19.4561
-38.4261	427.3786	19.4756
-38.4262	425.819	19.4951
-38.4225	426.846	19.5146
-38.4204	429.108	19.53418
-38.4204	422.581	19.5537
-38.4181	430.075	19.5732
-38.4163	430.454	19.5928
-38.4156	425.932	19.6123
-38.4125	423.196	19.6318
-38.4111	430.397	19.6514
-38.409	424.961	19.6709
-38.4067	427.977	19.69043
-38.4072	430.189	19.71
-38.4042	425.417	19.7295
-38.4013	420.16	19.749
-38.402	432.8454	19.7686
-38.3995	426.764	19.7881
-38.3977	423.315	19.8076
-38.3963	428.829	19.8271
-38.3956	429.452	19.84668
-38.3916	421.941	19.8662
-38.3912	426.398	19.8857
-38.3903	428.09	19.9053
-38.3887	421.799	19.9248
-38.3876	429.214	19.9443
-38.3845	428.804	19.9639
-38.3849	421.634	19.9834
-38.3828	424.57	20.00293
-38.3814	429.932	20.0127

Data Header:			0.254_hd_dimension_typeiv_090_r0			Time:	36.0347	s	4/14/2019 12:26:25 AM
Data Acquisition:	Timed
Station Name:	ft40.cfg
Test File Name:	monotonic_0.2540_typeiv_hd_090_dimension.tst
Displacement	Force	Running Time
mm	N	s
-38.3804	431.092	20.0225
-38.3783	426.767	20.042
-38.3775	425.3045	20.0615
-38.3757	427.085	20.0811
-38.3741	427.625	20.1006
-38.372	422.786	20.1201
-38.3699	429.905	20.1396
-38.3694	426.497	20.15918
-38.3669	423.504	20.1787
-38.3666	424.769	20.1982
-38.3642	430.871	20.2178
-38.3619	421.7663	20.2373
-38.3611	424.631	20.2568
-38.3601	430.587	20.2764
-38.3585	425.015	20.2959
-38.3562	420.028	20.31543
-38.3549	429.433	20.335
-38.3508	424.859	20.3545
-38.3508	424.222	20.374
-38.3493	428.331	20.3936
-38.3477	424.772	20.4131
-38.346	419.6868	20.4326
-38.3437	429.497	20.4521
-38.3432	429.474	20.47168
-38.3406	421.3187	20.4912
-38.3395	427.666	20.5107
-38.338	429.171	20.5303
-38.336	422.111	20.5498
-38.3333	425.218	20.5693
-38.3334	427.67	20.5889
-38.3313	422.675	20.6084
-38.3302	426.215	20.62793
-38.3265	426.3212	20.6475
-38.3273	425.975	20.667
-38.3256	420.441	20.6865
-38.3227	429.648	20.7061
-38.3216	426.77	20.7256
-38.32	422.611	20.7451
-38.3188	423.44	20.7646
-38.3172	429.135	20.78418
-38.3149	421.688	20.8037
-38.3144	426.976	20.8232
-38.3129	427.654	20.8428
-38.3101	421.125	20.8623
-38.3091	422.9707	20.8818
-38.307	429.844	20.9014
-38.3062	421.933	20.9209
-38.304	422.976	20.94043
-38.3014	429.05	20.96
-38.3003	423.764	20.9795
-38.29908	418.6814	20.999
-38.2967	427.43	21.0186
-38.29512	426.6525	21.0381
-38.2946	421.11	21.0576
-38.293	428.0369	21.0771
-38.2909	424.819	21.09668
-38.2893	419.612	21.1162
-38.2877	427.375	21.1357
-38.2864	428.283	21.1553
-38.2849	420.961	21.1748
-38.2822	424.025	21.1943
-38.2802	425.588	21.2139
-38.2798	423.0708	21.2334
-38.2775	421.459	21.25293
-38.2759	428.098	21.2725
-38.2744	425.767	21.292
-38.2731	422.658	21.3115
-38.2726	424.192	21.3311
-38.2693	425.2157	21.3506
-38.2681	418.763	21.3701
-38.2663	427.541	21.3896
-38.265	426.02	21.40918
-38.2628	420.595	21.4287
-38.2621	420.945	21.4482
-38.2592	428.391	21.4678
-38.25774	421.331	21.4873
-38.2562	423.782	21.5068
-38.255	427.1	21.5264
-38.2531	420.603	21.5459
-38.2519	418.681	21.56543
-38.251	427.924	21.585
-38.2498	422.559	21.6045
-38.2469	420.998	21.624
-38.2447	429.606	21.6436
-38.2431	423.551	21.6631
-38.2422	418.992	21.6826
-38.2403	424.369	21.7021
-38.2399	426.3678	21.72168
-38.2373	419.845	21.7412
-38.2354	426.894	21.7607
-38.23407	422.686	21.7803
-38.2317	420.559	21.7998
-38.2298	422.127	21.8193
-38.2284	427.358	21.8389
-38.22736	419.7886	21.8584
-38.2261	420.202	21.87793
-38.2231	423.775	21.8975
-38.2232	423.812	21.917
-38.2211	418.084	21.9365
-38.21986	425.823	21.9561
-38.2178	425.39	21.9756
-38.2158	420.621	21.9951
-38.2136	422.457	22.0146
-38.2133	426.768	22.03418
-38.2122	418.947	22.0537
-38.2096	423.982	22.0732
-38.2074	425.967	22.0928
-38.2064	419.704	22.1123
-38.204	419.309	22.1318
-38.2028	428.554	22.1514
-38.2008	422.451	22.1709
-38.1999	420.49	22.19043
-38.1973	426.0387	22.21
-38.1966	419.241	22.2295
-38.1945	420.585	22.249
-38.1938	425.486	22.2686
-38.1932	424.954	22.2881
-38.1897	418.85	22.3076
-38.1894	426.467	22.3271
-38.1873	422.868	22.34668
-38.18523	420.192	22.3662
-38.1833	422.181	22.3857
-38.1825	427.54	22.4053
-38.1801	420.779	22.4248
-38.1791	423.377	22.4443
-38.17717	421.976	22.4639
-38.1752	421.468	22.4834
-38.17326	422.104	22.50293
-38.1709	427.001	22.5225
-38.171	420.617	22.542
-38.1698	420.676	22.5615
-38.1668	423.3132	22.5811
-38.1644	425.718	22.6006
-38.1639	418.64	22.6201
-38.1633	424.067	22.6396
-38.1603	425.127	22.65918
-38.1584	419.093	22.6787
-38.1577	420.073	22.6982
-38.1567	427.065	22.7178
-38.1532	418.78	22.7373
-38.1526	421.917	22.7568
-38.151	427.586	22.7764
-38.1503	417.197	22.7959
-38.1475	419.235	22.81543
-38.1468	424.607	22.835
-38.1446	422.625	22.8545
-38.1434	418.605	22.874
-38.1407	425.319	22.8936
-38.13858	420.301	22.9131
-38.1382	418.652	22.9326
-38.1361	424.297	22.9521
-38.1342	423.944	22.97168
-38.1324	419.843	22.9912
-38.1307	425.128	23.0107
-38.1296	423.66	23.0303
-38.12748	419.699	23.0498
-38.1269	419.168	23.0693
-38.1252	427.209	23.0889
-38.1228	420.718	23.1084
-38.1213	419.053	23.12793
-38.1205	421.288	23.1475
-38.1185	422.223	23.167
-38.1181	420.672	23.1865
-38.1153	425.157	23.2061
-38.114	423.706	23.2256
-38.1109	416.962	23.2451
-38.1106	423.2	23.2646
-38.1091	424.632	23.28418
-38.1067	418.694	23.3037
-38.105	421.615	23.3232
-38.1035	426.5235	23.3428
-38.1019	416.769	23.3623
-38.1006	420.776	23.3818
-38.0991	423.761	23.4014
-38.0977	420.622	23.4209
-38.0954	418.987	23.44043
-38.094	426.806	23.46
-38.0922	418.2088	23.4795
-38.0921	418.016	23.499
-38.0892	424.293	23.5186
-38.0875	424.502	23.5381
-38.08593	419.356	23.5576
-38.08416	424.775	23.5771
-38.0832	421.0625	23.59668
-38.0808	421.675	23.6162
-38.0795	422.706	23.6357
-38.0771	423.646	23.6553
-38.0758	417.331	23.6748
-38.074	422.5845	23.6943
-38.073	423.8847	23.7139
-38.0705	421.971	23.7334
-38.0692	418.55	23.75293
-38.0684	426.102	23.7725
-38.0671	423.8566	23.792
-38.0654	418.0127	23.8115
-38.0631	422.485	23.8311
-38.0607	422.086	23.8506
-38.0595	417.978	23.8701
-38.0581	423.378	23.8896
-38.0566	423.334	23.90918
-38.0549	416.6311	23.9287
-38.0521	421.335	23.9482
-38.0514	424.6434	23.9678
-38.0494	419.181	23.9873
-38.0486	418.873	24.0068
-38.0471	427.611	24.0264
-38.04488	418.112	24.0459
-38.0442	420.442	24.06543
-38.0415	422.77	24.085
-38.0405	421.863	24.1045
-38.0387	421.097	24.124
-38.0372	427.262	24.1436
-38.0354	417.4	24.1631
-38.0348	418.0806	24.1826
-38.0315	422.598	24.2021
-38.0314	426.642	24.22168
-38.0289	419.062	24.2412
-38.0272	421.909	24.2607
-38.02507	421.511	24.2803
-38.0229	420.813	24.2998
-38.0225	420.838	24.3193
-38.0207	425.83	24.3389
-38.019	420.121	24.3584
-38.0176	418.411	24.37793
-38.0154	422.839	24.3975
-38.0137	420.082	24.417
-38.01302	418.4538	24.4365
-38.0111	422.847	24.4561
-38.00824	423.472	24.4756
-38.0077	417.166	24.4951
-38.0057	422.012	24.5146
-38.0043	423.88	24.53418
-38.0043	418.841	24.5537
-38.002	423.3233	24.5732
-37.9999	424.342	24.5928
-37.9978	414.292	24.6123
-37.9954	423.223	24.6318
-37.9951	424.186	24.6514
-37.9926	421.818	24.6709
-37.99147	419.545	24.69043
-37.9902	426.256	24.71
-37.98727	418.179	24.7295
-37.9861	420.312	24.749
-37.985	423.0899	24.7686
-37.9828	422.183	24.7881
-37.9816	419.121	24.8076
-37.9803	423.711	24.8271
-37.9784	419.736	24.84668
-37.9766	417.793	24.8662
-37.9743	423.66	24.8857
-37.9741	423.011	24.9053
-37.97274	418.091	24.9248
-37.9701	418.591	24.9443
-37.9691	421.3	24.9639
-37.9664	420.283	24.9834
-37.966	419.641	25.00293
-37.9634	421.136	25.0225
-37.9623	421.34	25.042
-37.9606	415.858	25.0615
-37.9587	424.063	25.0811
-37.95805	420.872	25.1006
-37.9565	418.8826	25.1201
-37.9539	422.6893	25.1396
-37.9517	425.468	25.15918
-37.952	413.589	25.1787
-37.9493	421.82	25.1982
-37.9476	422.42	25.2178
-37.9459	420.719	25.2373
-37.94445	421.445	25.2568
-37.9428	424.918	25.2764
-37.9423	415.352	25.2959
-37.93985	421.839	25.31543
-37.9379	424.958	25.335
-37.9355	422.026	25.3545
-37.9342	417.1	25.374
-37.9327	424.272	25.3936
-37.931	417.889	25.4131
-37.92931	418.094	25.4326
-37.9277	420.984	25.4521
-37.92572	421.297	25.47168
-37.9241	418.737	25.4912
-37.9229	420.496	25.5107
-37.9218	421.286	25.5303
-37.9201	418.404	25.5498
-37.918	421.188	25.5693
-37.9169	424.484	25.5889
-37.9138	418.876	25.6084
-37.9126	417.365	25.62793
-37.9113	423.445	25.6475
-37.9104	420.231	25.667
-37.90937	419.703	25.6865
-37.9066	422.9556	25.7061
-37.9039	423.485	25.7256
-37.9039	416.264	25.7451
-37.9014	424.328	25.7646
-37.9001	422.053	25.78418
-37.8984	418.051	25.8037
-37.8967	422.578	25.8232
-37.89473	424.605	25.8428
-37.89325	414.041	25.8623
-37.8925	422.084	25.8818
-37.8905	425.787	25.9014
-37.8882	419.928	25.9209
-37.8874	419.296	25.94043
-37.8858	423.768	25.96
-37.8826	416.282	25.9795
-37.883	419.751	25.999
-37.8811	424.304	26.0186
-37.8781	418.035	26.0381
-37.87878	416.489	26.0576
-37.87677	420.436	26.0771
-37.8732	419.895	26.09668
-37.8721	418.97	26.1162
-37.8714	420.262	26.1357
-37.8689	421.395	26.1553
-37.8669	419.054	26.1748
-37.8662	417.542	26.1943
-37.8637	421.985	26.2139
-37.8621	418.695	26.2334
-37.8601	418.3551	26.25293
-37.8608	424.723	26.2725
-37.858	419.253	26.292
-37.8545	413.502	26.3115
-37.8558	422.631	26.3311
-37.8525	420.281	26.3506
-37.8499	419.145	26.3701
-37.8498	420.856	26.3896
-37.8479	422.448	26.40918
-37.8459	412.382	26.4287
-37.8446	423.633	26.4482
-37.8438	420.846	26.4678
-37.842	416.0051	26.4873
-37.8395	420.687	26.5068
-37.8391	424.81	26.5264
-37.8369	414.542	26.5459
-37.8351	419.157	26.56543
-37.8335	422.552	26.585
-37.8321	421.446	26.6045
-37.8304	417.63	26.624
-37.82843	422.05	26.6436
-37.8275	417.942	26.6631
-37.825	417.175	26.6826
-37.8244	423.5918	26.7021
-37.8221	421.846	26.72168
-37.8208	416.903	26.7412
-37.8186	419.993	26.7607
-37.8179	422.827	26.7803
-37.8146	417.188	26.7998
-37.8147	420.338	26.8193
-37.813	421.9924	26.8389
-37.8111	418.352	26.8584
-37.8099	414.826	26.87793
-37.8077	424.138	26.8975
-37.8059	416.69	26.917
-37.80442	418.423	26.9365
-37.8027	423.958	26.9561
-37.8004	422.3519	26.9756
-37.8004	412.138	26.9951
-37.7972	423.772	27.0146
-37.7949	422.402	27.03418
-37.795	418.985	27.0537
-37.79237	421.302	27.0732
-37.7911	421.919	27.0928
-37.7891	414.689	27.1123
-37.7868	422.094	27.1318
-37.7874	423.345	27.1514
-37.7859	419.084	27.1709
-37.7826	417.922	27.19043
-37.7804	422.399	27.21
-37.7796	417.081	27.2295
-37.7773	418.7189	27.249
-37.7765	424.333	27.2686
-37.7751	422.01	27.2881
-37.773	419.559	27.3076
-37.7719	419.8017	27.3271
-37.7695	421.937	27.34668
-37.7685	417.79	27.3662
-37.76741	422.882	27.3857
-37.7656	422.454	27.4053
-37.7639	417.946	27.4248
-37.7624	416.985	27.4443
-37.76	425.556	27.4639
-37.7592	418.744	27.4834
-37.7579	417.96	27.50293
-37.7551	424.068	27.5225
-37.7534	420.2876	27.542
-37.75148	415.537	27.5615
-37.7508	424.011	27.5811
-37.7494	420.61	27.6006
-37.7481	418.416	27.6201
-37.7461	424.204	27.6396
-37.744	421.506	27.65918
-37.7424	412.659	27.6787
-37.7404	423.276	27.6982
-37.7396	423.722	27.7178
-37.7381	417.092	27.7373
-37.736	419.074	27.7568
-37.7346	423.367	27.7764
-37.73278	415.448	27.7959
-37.7312	420.207	27.81543
-37.7291	423.0564	27.835
-37.729	417.827	27.8545
-37.7257	419.118	27.874
-37.7238	420.695	27.8936
-37.7231	420.507	27.9131
-37.7204	414.934	27.9326
-37.7204	423.926	27.9521
-37.7186	422.697	27.97168
-37.716	416.595	27.9912
-37.7153	416.52	28.0107
-37.7139	423.029	28.0303
-37.7119	416.737	28.0498
-37.71	421.655	28.0693
-37.7073	423.47	28.0889
-37.7061	417.871	28.1084
-37.7052	413.982	28.12793
-37.7034	427.682	28.1475
-37.702	418.2038	28.167
-37.7001	417.299	28.1865
-37.6984	424.637	28.2061
-37.69688	420.97	28.2256
-37.6964	414.3577	28.2451
-37.6941	422.746	28.2646
-37.6908	422.45	28.28418
-37.6901	416.755	28.3037
-37.6881	422.29	28.3232
-37.6876	420.429	28.3428
-37.6861	413.2338	28.3623
-37.6835	420.2941	28.3818
-37.6819	425.625	28.4014
-37.6801	417.229	28.4209
-37.679	417.437	28.44043
-37.6773	421.571	28.46
-37.6758	420.69	28.4795
-37.6743	418.452	28.499
-37.6725	424.056	28.5186
-37.6708	422.0809	28.5381
-37.6691	419.093	28.5576
-37.6671	421.281	28.5771
-37.6663	423.131	28.59668
-37.6662	415.404	28.6162
-37.6618	422.57	28.6357
-37.66053	425.304	28.6553
-37.6596	417.626	28.6748
-37.6565	415.263	28.6943
-37.6557	425.43	28.7139
-37.6536	418.775	28.7334
-37.6539	418.597	28.75293
-37.651	422.459	28.7725
-37.6493	417.598	28.792
-37.6474	414.626	28.8115
-37.6468	425.101	28.8311
-37.6442	419.4819	28.8506
-37.6426	414.7269	28.8701
-37.6407	423.317	28.8896
-37.6399	421.668	28.90918
-37.6383	414.514	28.9287
-37.6359	420.778	28.9482
-37.6352	422.012	28.9678
-37.6326	416.379	28.9873
-37.632	419.789	29.0068
-37.6307	420.163	29.0264
-37.6294	415.93	29.0459
-37.6278	417.597	29.06543
-37.6245	425.421	29.085
-37.6245	418.5741	29.1045
-37.6221	417.271	29.124
-37.621	419.138	29.1436
-37.6178	420.755	29.1631
-37.6178	414.538	29.1826
-37.6153	421.839	29.2021
-37.6131	419.882	29.22168
-37.6121	416.856	29.2412
-37.61095	418.769	29.2607
-37.6088	424.545	29.2803
-37.607	415.6803	29.2998
-37.60614	420.512	29.3193
-37.6034	423.745	29.3389
-37.6034	418.037	29.3584
-37.6007	411.7114	29.37793
-37.59985	423.031	29.3975
-37.5969	418.017	29.417
-37.5955	416.35	29.4365
-37.5942	423.46	29.4561
-37.59425	419.953	29.4756
-37.5907	413.677	29.4951
-37.5894	422.5112	29.5146
-37.5874	421.448	29.53418
-37.586	414.035	29.5537
-37.5834	420.628	29.5732
-37.583	419.775	29.5928
-37.5821	415.436	29.6123
-37.5801	418.084	29.6318
-37.5781	422.071	29.6514
-37.5759	415.829	29.6709
-37.5756	418.487	29.69043
-37.57325	419.371	29.71
-37.5723	419.651	29.7295
-37.5704	414.413	29.749
-37.5677	423.8847	29.7686
-37.5676	420.935	29.7881
-37.5648	415.102	29.8076
-37.5645	418.531	29.8271
-37.5612	422.401	29.84668
-37.5609	415.437	29.8662
-37.55772	418.477	29.8857
-37.5564	421.237	29.9053
-37.556	416.72	29.9248
-37.5528	415.5921	29.9443
-37.55164	423.343	29.9639
-37.5503	415.051	29.9834
-37.5498	416.53	30.00293
-37.5472	422.733	30.0225
-37.5452	415.786	30.042
-37.5434	410.625	30.0615
-37.5416	422.207	30.0811
-37.5407	420.485	30.1006
-37.5394	414.374	30.1201
-37.5383	421.912	30.1396
-37.5354	417.369	30.15918
-37.5345	414.188	30.1787
-37.5331	419.246	30.1982
-37.53	420.272	30.2178
-37.5285	414.913	30.2373
-37.5277	419.02	30.2568
-37.5267	419.577	30.2764
-37.5249	417.0932	30.2959
-37.5227	414.471	30.31543
-37.5211	422.901	30.335
-37.5198	419.089	30.3545
-37.5186	416.118	30.374
-37.5158	417.006	30.3936
-37.5143	418.5343	30.4131
-37.51379	413.864	30.4326
-37.5116	421.474	30.4521
-37.5085	420.733	30.47168
-37.5076	413.628	30.4912
-37.5064	417.1662	30.5107
-37.5042	422.185	30.5303
-37.50351	416.236	30.5498
-37.502	416.383	30.5693
-37.4994	421.8822	30.5889
-37.49754	414.831	30.6084
-37.4964	413.848	30.62793
-37.4949	421.614	30.6475
-37.4935	418.235	30.667
-37.4908	414.224	30.6865
-37.4899	423.004	30.7061
-37.4879	415.741	30.7256
-37.4872	413.536	30.7451
-37.4847	419.917	30.7646
-37.484	421.796	30.78418
-37.4829	414.957	30.8037
-37.48016	418.929	30.8232
-37.4792	417.475	30.8428
-37.4775	415.661	30.8623
-37.4762	417.365	30.8818
-37.47337	421.23	30.9014
-37.4722	414.104	30.9209
-37.4711	416.543	30.94043
-37.4701	417.81	30.96
-37.4668	417.681	30.9795
-37.4653	413.418	30.999
-37.46413	421.212	31.0186
-37.4629	418.9	31.0381
-37.4598	413.405	31.0576
-37.4603	416.962	31.0771
-37.4572	418.943	31.09668
-37.4552	414.124	31.1162
-37.4553	417.593	31.1357
-37.4527	421.345	31.1553
-37.45158	411.156	31.1748
-37.4496	414.36	31.1943
-37.448	419.9852	31.2139
-37.4471	415.608	31.2334
-37.4439	413.082	31.25293
-37.4439	423.211	31.2725
-37.4423	415.656	31.292
-37.4394	415.552	31.3115
-37.4389	419.163	31.3311
-37.4371	417.656	31.3506
-37.4347	413.595	31.3701
-37.4347	422.004	31.3896
-37.4314	415.236	31.40918
-37.4298	412.033	31.4287
-37.4293	417.877	31.4482
-37.4263	420.03	31.4678
-37.4254	413.179	31.4873
-37.4243	416.452	31.5068
-37.4223	416.364	31.5264
-37.4203	415.824	31.5459
-37.4182	414.033	31.56543
-37.41729	419.084	31.585
-37.415	414.701	31.6045
-37.4139	412.854	31.624
-37.4113	416.647	31.6436
-37.4102	418.062	31.6631
-37.40897	411.87	31.6826
-37.4072	417.853	31.7021
-37.4055	420.802	31.72168
-37.4039	412.415	31.7412
-37.4017	414.074	31.7607
-37.4002	418.002	31.7803
-37.4002	415.247	31.7998
-37.3968	415.901	31.8193
-37.3963	420.0206	31.8389
-37.39373	410.444	31.8584
-37.3933	414.809	31.87793
-37.391	418.864	31.8975
-37.3892	415.278	31.917
-37.38792	413.067	31.9365
-37.386	421.47	31.9561
-37.3846	414.1384	31.9756
-37.3828	413.188	31.9951
-37.3808	415.712	32.0146
-37.3802	417.744	32.03418
-37.3792	412.367	32.0537
-37.3763	418.264	32.0732
-37.3739	414.8728	32.0928
-37.3728	411.698	32.1123
-37.3718	411.8111	32.1318
-37.36932	419.529	32.1514
-37.3682	414.512	32.1709
-37.3665	410.953	32.19043
-37.3651	415.243	32.21
-37.363	414.65	32.2295
-37.3614	411.7756	32.249
-37.3592	417.606	32.2686
-37.358	416.435	32.2881
-37.35714	409.309	32.3076
-37.3547	416.787	32.3271
-37.35368	415.419	32.34668
-37.3513	409.757	32.3662
-37.3496	415.0672	32.3857
-37.3479	419.793	32.4053
-37.3479	407.613	32.4248
-37.3446	412.864	32.4443
-37.3439	416.109	32.4639
-37.3422	413.178	32.4834
-37.3405	411.762	32.50293
-37.3388	417.855	32.5225
-37.3377	408.198	32.542
-37.335	410.676	32.5615
-37.3336	415.661	32.5811
-37.3331	412.666	32.6006
-37.3307	407.551	32.6201
-37.3302	413.998	32.6396
-37.327	409.012	32.65918
-37.32655	407.995	32.6787
-37.3242	407.069	32.6982
-37.3215	410.502	32.7178
-37.3212	405.868	32.7373
-37.3192	405.305	32.7568
-37.31773	403.003	32.7764
-37.3129	30.3653	32.7959
-37.312	-41.5301	32.81543
-37.31	-33.6438	32.835
-37.31	-39.97332	32.8545
-37.3081	-44.42078	32.874
-37.3073	-37.8181	32.8936
-37.3057	-37.0052	32.9131
-37.30344	-41.2584	32.9326
-37.302	-37.29599	32.9521
-37.3009	-36.7252	32.97168
-37.2997	-45.3442	32.9912
-37.2983	-37.0854	33.0107
-37.2965	-37.95166	33.0303
-37.2941	-41.107	33.0498
-37.2931	-39.532	33.0693
-37.2913	-33.8485	33.0889
-37.2901	-43.72	33.1084
-37.2886	-40.25861	33.12793
-37.2867	-35.783	33.1475
-37.2844	-37.80862	33.167
-37.2836	-41.3417	33.1865
-37.28083	-38.9077	33.2061
-37.2798	-41.977	33.2256
-37.2781	-40.5511	33.2451
-37.2772	-37.0636	33.2646
-37.275	-36.4827	33.28418
-37.2724	-42.8857	33.3037
-37.2717	-38.6054	33.3232
-37.2699	-37.3148	33.3428
-37.2683	-40.5811	33.3623
-37.2668	-38.9912	33.3818
-37.2655	-36.90012	33.4014
-37.2647	-37.6141	33.4209
-37.2622	-42.3255	33.44043
-37.2603	-35.9049	33.46
-37.25877	-39.7528	33.4795
-37.2574	-40.0717	33.499
-37.255	-34.6174	33.5186
-37.2535	-36.8225	33.5381
-37.2516	-45.5573	33.5576
-37.2521	-37.5846	33.5771
-37.2487	-36.8499	33.59668
-37.24646	-40.93523	33.6162
-37.24493	-38.2755	33.6357
-37.2442	-34.2616	33.6553
-37.2427	-44.4097	33.6748
-37.2406	-37.4651	33.6943
-37.2391	-33.9684	33.7139
-37.2375	-37.8828	33.7334
-37.2359	-39.4403	33.75293
-37.2335	-33.362	33.7725
-37.2329	-41.9411	33.792
-37.2312	-41.0911	33.8115
-37.2294	-34.8398	33.8311
-37.2285	-37.0861	33.8506
-37.2269	-41.5052	33.8701
-37.2256	-38.6712	33.8896
-37.2222	-38.2273	33.90918
-37.2215	-39.4149	33.9287
-37.2202	-38.016	33.9482
-37.2176	-37.0959	33.9678
-37.2167	-39.685	33.9873
-37.2144	-40.8974	34.0068
-37.2129	-35.6108	34.0264
-37.21217	-39.987	34.0459
-37.2105	-39.90213	34.06543
-37.2083	-34.702	34.085
-37.2073	-36.5382	34.1045
-37.2047	-43.5416	34.124
-37.2029	-36.2833	34.1436
-37.2016	-39.4974	34.1631
-37.19978	-40.7568	34.1826
-37.1982	-34.554	34.2021
-37.1964	-36.4293	34.22168
-37.19664	-45.8184	34.2412
-37.1931	-35.939	34.2607
-37.19231	-36.2427	34.2803
-37.1906	-40.0812	34.2998
-37.1896	-40.29	34.3193
-37.1877	-35.4505	34.3389
-37.18425	-42.5472	34.3584
-37.1837	-38.1663	34.37793
-37.182	-34.7316	34.3975
-37.1809	-40.1998	34.417
-37.1789	-39.23381	34.4365
-37.1771	-37.8281	34.4561
-37.17485	-40.8942	34.4756
-37.1748	-41.3402	34.4951
-37.1732	-36.851	34.5146
-37.1714	-36.5687	34.53418
-37.1696	-41.3074	34.5537
-37.1671	-42.6856	34.5732
-37.1658	-37.2278	34.5928
-37.1647	-42.455	34.6123
-37.1632	-39.1828	34.6318
-37.161	-35.7479	34.6514
-37.1603	-40.4167	34.6709
-37.1573	-41.0321	34.69043
-37.1565	-33.0351	34.71
-37.1545	-39.5553	34.7295
-37.1535	-39.7208	34.749
-37.1521	-34.18222	34.7686
-37.1491	-34.5265	34.7881
-37.1478	-42.6941	34.8076
-37.1459	-36.1503	34.8271
-37.1443	-38.0868	34.84668
-37.14283	-40.7762	34.8662
-37.1411	-35.8225	34.8857
-37.14	-37.915	34.9053
-37.139	-45.2494	34.9248
-37.1362	-37.7702	34.9443
-37.1359	-34.74091	34.9639
-37.1333	-40.5616	34.9834
-37.1315	-41.09594	35.00293
-37.1308	-37.3657	35.0225
-37.1295	-39.0417	35.042
-37.1266	-41.0197	35.0615
-37.1254	-35.784	35.0811
-37.123	-38.124	35.1006
-37.1225	-39.8386	35.1201
-37.1198	-38.4334	35.1396
-37.1206	-38.1768	35.15918
-37.1173	-42.9332	35.1787
-37.1149	-35.9586	35.1982
-37.1142	-33.4671	35.2178
-37.1114	-39.6982	35.2373
-37.1115	-43.076	35.2568
-37.1079	-32.1233	35.2764
-37.1084	-40.5368	35.2959
-37.1059	-38.2318	35.31543
-37.1044	-33.3168	35.335
-37.1017	-39.94	35.3545
-37.1006	-44.0344	35.374
-37.0993	-34.35321	35.3936
-37.0968	-36.5296	35.4131
-37.0966	-40.823	35.4326
-37.0943	-36.15765	35.4521
-37.0931	-36.0495	35.47168
-37.0908	-42.6897	35.4912
-37.0894	-38.01931	35.5107
-37.0879	-34.8682	35.5303
-37.086	-40.0314	35.5498
-37.0854	-37.7306	35.5693
-37.0835	-37.8257	35.5889
-37.0815	-42.2053	35.6084
-37.07991	-38.49424	35.62793
-37.07806	-32.5968	35.6475
-37.0762	-40.0857	35.667
-37.0745	-40.6992	35.6865
-37.0742	-37.2603	35.7061
-37.0728	-36.1507	35.7256
-37.0705	-41.4702	35.7451
-37.0676	-35.2885	35.7646
-37.0663	-35.66272	35.78418
-37.0653	-39.6687	35.8037
-37.0642	-39.6762	35.8232
-37.0617	-35.1208	35.8428
-37.0611	-42.3627	35.8623
-37.0589	-38.55307	35.8818
-37.0571	-34.4253	35.9014
-37.0561	-38.8442	35.9209
-37.0535	-45.3206	35.94043
-37.0531	-33.1663	35.96
-37.0508	-39.26918	35.9795
-37.0486	-40.93174	35.999
-37.048	-36.0446	36.0186
-37.0465	-35.5074	36.02832