File: data/processed_data_files/tensile/0.254_solid_uprint_typeiv_090_r(4).dat
MTS793|BTW|ENU|1|2|.|/|:|1|0|0|A

Data Header:			0.254_solid_uprint_typeiv_090_r0			Time:	20.0181	s	4/14/2019 1:06:27 AM
Data Acquisition:	Timed
Station Name:	ft40.cfg
Test File Name:	monotonic_0.2540_typeiv_solid_090_uprint.tst
Displacement	Force	Running Time
mm	N	s
-40.0411	-64.3732	0.0229492
-40.04142	-65.1015	0.0424805
-40.0397	-67.4378	0.0620117
-40.0409	-62.0156	0.081543
-40.0384	-66.377	0.101074
-40.0389	-65.8062	0.120605
-40.037	-66.5542	0.140137
-40.035	-58.327	0.159668
-40.0323	-61.0701	0.179199
-40.0309	-61.5056	0.19873
-40.03096	-60.6571	0.218262
-40.029	-58.9149	0.237793
-40.0274	-59.8286	0.257324
-40.025	-53.4365	0.276855
-40.0232	-55.3238	0.296387
-40.0221	-57.9256	0.315918
-40.0199	-54.4749	0.335449
-40.0191	-49.29937	0.35498
-40.0168	-55.3384	0.374512
-40.0148	-51.0426	0.394043
-40.0143	-45.5152	0.413574
-40.0113	-51.7284	0.433105
-40.0113	-51.1207	0.452637
-40.0083	-42.812	0.472168
-40.0066	-45.4929	0.491699
-40.00507	-45.8383	0.51123
-40.0036	-38.99144	0.530762
-40.0029	-46.1696	0.550293
-40.001	-43.8916	0.569824
-39.9984	-39.9512	0.589355
-39.9985	-38.0282	0.608887
-39.9969	-41.34856	0.628418
-39.9943	-36.2804	0.647949
-39.9927	-37.3811	0.66748
-39.9911	-37.1922	0.687012
-39.9894	-33.727	0.706543
-39.9879	-31.60796	0.726074
-39.9867	-35.51329	0.745605
-39.9846	-31.0171	0.765137
-39.9818	-30.8405	0.784668
-39.9823	-30.6098	0.804199
-39.9808	-32.5587	0.82373
-39.9785	-24.6454	0.843262
-39.9767	-26.5317	0.862793
-39.9745	-28.74	0.882324
-39.972	-26.3236	0.901855
-39.9718	-22.6661	0.921387
-39.9688	-25.7855	0.940918
-39.9688	-20.0763	0.960449
-39.966	-19.9409	0.97998
-39.9656	-26.5173	0.999512
-39.9632	-20.7083	1.019043
-39.9619	-16.29637	1.03857
-39.9608	-20.5074	1.05811
-39.9586	-18.9274	1.07764
-39.9571	-12.3073	1.097168
-39.9562	-17.5058	1.1167
-39.9531	-16.048	1.13623
-39.95248	-11.0859	1.15576
-39.9504	-9.59016	1.175293
-39.9487	-12.1504	1.19482
-39.9465	-4.56145	1.21436
-39.9466	-9.70611	1.23389
-39.9446	-10.2855	1.253418
-39.9432	-5.36835	1.27295
-39.9406	-0.967599	1.29248
-39.9387	-7.53399	1.31201
-39.9367	-3.62579	1.331543
-39.9362	-3.79653	1.35107
-39.9335	-1.99138	1.37061
-39.9338	-1.4456	1.39014
-39.9303	2.81178	1.409668
-39.9295	0.415545	1.4292
-39.928	-0.0189033	1.44873
-39.9257	2.67676	1.46826
-39.9233	3.44982	1.487793
-39.9229	0.435544	1.50732
-39.9216	7.69269	1.52686
-39.919	8.470046	1.54639
-39.9184	3.966568	1.565918
-39.9157	7.3859	1.58545
-39.9145	11.809	1.60498
-39.9127	9.22342	1.62451
-39.912	12.6946	1.644043
-39.90976	15.92572	1.66357
-39.9076	8.62041	1.68311
-39.9058	12.7318	1.70264
-39.904	19.1633	1.722168
-39.9037	15.804	1.7417
-39.9028	14.2068	1.76123
-39.89954	24.3	1.78076
-39.8988	15.9505	1.800293
-39.8972	19.4479	1.81982
-39.8947	22.7292	1.83936
-39.8936	24.3237	1.85889
-39.8911	22.1663	1.878418
-39.8902	27.42458	1.89795
-39.8893	22.8228	1.91748
-39.8877	24.1761	1.93701
-39.8851	27.7832	1.956543
-39.8844	32.5736	1.97607
-39.8809	27.7906	1.99561
-39.88113	29.2843	2.01514
-39.8789	31.9282	2.034668
-39.8777	33.7228	2.0542
-39.8755	32.7971	2.07373
-39.8734	36.8892	2.09326
-39.873	35.1897	2.112793
-39.8703	32.7562	2.13232
-39.8688	38.46278	2.15186
-39.867	39.1304	2.17139
-39.8652	35.0997	2.190918
-39.8647	40.82375	2.21045
-39.8628	45.1641	2.22998
-39.8605	37.9428	2.24951
-39.859	40.9244	2.269043
-39.8586	45.7043	2.28857
-39.8563	44.0137	2.30811
-39.8551	46.54129	2.32764
-39.85207	51.1672	2.347168
-39.8511	42.8849	2.3667
-39.8503	47.6898	2.38623
-39.8478	53.0705	2.40576
-39.8461	49.8948	2.425293
-39.8451	49.2139	2.44482
-39.8426	57.9399	2.46436
-39.841	53.395	2.48389
-39.8401	52.5538	2.503418
-39.8376	55.2945	2.52295
-39.8371	58.2725	2.54248
-39.8348	55.1946	2.56201
-39.8341	59.7577	2.581543
-39.8325	58.524	2.60107
-39.8297	58.67028	2.62061
-39.8277	59.9162	2.64014
-39.8256	67.3379	2.659668
-39.8256	62.3166	2.6792
-39.8238	61.4437	2.69873
-39.8222	66.6338	2.71826
-39.8205	67.7706	2.737793
-39.8182	65.394	2.75732
-39.8164	69.2472	2.77686
-39.8163	68.7785	2.79639
-39.8149	64.98748	2.815918
-39.812	70.241	2.83545
-39.8107	75.223	2.85498
-39.80883	68.877	2.87451
-39.8071	73.2954	2.894043
-39.8052	78.7519	2.91357
-39.8034	70.8451	2.93311
-39.8025	74.6665	2.95264
-39.8002	79.2514	2.972168
-39.7996	77.7289	2.9917
-39.7973	79.016	3.01123
-39.7952	84.8931	3.03076
-39.7938	77.2253	3.050293
-39.7927	82.16655	3.06982
-39.7908	85.5978	3.08936
-39.7886	86.2023	3.10889
-39.7878	83.38575	3.128418
-39.78569	88.4876	3.14795
-39.7846	86.9319	3.16748
-39.7824	87.008	3.18701
-39.7809	87.6831	3.206543
-39.7802	91.9853	3.22607
-39.7783	89.4382	3.24561
-39.7769	91.0549	3.26514
-39.7748	93.5615	3.284668
-39.7728	93.2755	3.3042
-39.7723	91.7308	3.32373
-39.7709	100.748	3.34326
-39.7679	98.3831	3.362793
-39.7655	93.5584	3.38232
-39.7655	99.2139	3.40186
-39.7626	101.3536	3.42139
-39.7615	98.8005	3.440918
-39.7597	101.953	3.46045
-39.7588	104.876	3.47998
-39.7564	98.0351	3.49951
-39.7552	104.643	3.519043
-39.7536	107.889	3.53857
-39.753	104.09	3.55811
-39.7509	106.031	3.57764
-39.7496	112.954	3.597168
-39.747	104.871	3.6167
-39.7447	108.6801	3.63623
-39.7441	112.198	3.65576
-39.7417	113.561	3.675293
-39.7406	111.09	3.69482
-39.7374	118.989	3.71436
-39.7361	111.534	3.73389
-39.7346	114.458	3.753418
-39.73391	117.309	3.77295
-39.7324	120.147	3.79248
-39.7305	116.561	3.81201
-39.7295	118.548	3.831543
-39.7283	120.826	3.85107
-39.72578	120.703	3.87061
-39.72332	120.712	3.89014
-39.7224	126.732	3.909668
-39.7211	124.036	3.9292
-39.72	122.1932	3.94873
-39.7183	128.424	3.96826
-39.7154	127.784	3.987793
-39.7151	125.734	4.00732
-39.7124	132.29	4.02686
-39.7108	131.288	4.04639
-39.7107	126.272	4.065918
-39.70866	130.948	4.08545
-39.7073	135.201	4.10498
-39.70459	132.279	4.12451
-39.704	135.152	4.144043
-39.7013	139.536	4.16357
-39.7001	131.4155	4.18311
-39.6981	139.747	4.20264
-39.6957	140.869	4.222168
-39.69463	139.757	4.2417
-39.6935	137.764	4.26123
-39.6913	145.549	4.28076
-39.6905	139.02	4.300293
-39.6876	141.266	4.31982
-39.6872	144.693	4.33936
-39.68502	147.216	4.35889
-39.6831	142.642	4.378418
-39.6804	149.622	4.39795
-39.6811	146.0414	4.41748
-39.67849	146.061	4.43701
-39.6771	149.84	4.456543
-39.6756	153.57	4.47607
-39.6737	149.065	4.49561
-39.6721	150.428	4.51514
-39.671	154.443	4.534668
-39.6688	156.129	4.5542
-39.6668	153.826	4.57373
-39.665	157.448	4.59326
-39.6637	157.33	4.612793
-39.6627	153.856	4.63232
-39.6612	160.699	4.65186
-39.6603	158.5258	4.67139
-39.6592	156.238	4.690918
-39.6569	162.685	4.71045
-39.6543	166.241	4.72998
-39.65358	157.779	4.74951
-39.6514	163.714	4.769043
-39.6495	168.29	4.78857
-39.6478	164.114	4.80811
-39.6458	165.53	4.82764
-39.6449	171.434	4.847168
-39.6439	165.447	4.8667
-39.6413	169.8896	4.88623
-39.6394	173.426	4.90576
-39.6383	171.225	4.925293
-39.6361	171.649	4.94482
-39.6356	178.219	4.96436
-39.6336	172.986	4.98389
-39.631	175.475	5.003418
-39.6307	175.17	5.02295
-39.6287	180.344	5.04248
-39.6274	176.7515	5.06201
-39.6242	179.098	5.081543
-39.6239	179.668	5.10107
-39.6208	179.502	5.12061
-39.6204	180.329	5.14014
-39.6194	186.509	5.159668
-39.6169	182.672	5.1792
-39.6154	180.961	5.19873
-39.6143	187.951	5.21826
-39.6119	187.203	5.237793
-39.6101	184.35	5.25732
-39.6082	189.673	5.27686
-39.6079	190.82	5.29639
-39.6068	185.214	5.315918
-39.6035	194.063	5.33545
-39.6025	193.011	5.35498
-39.6005	190.031	5.37451
-39.5995	195.03	5.394043
-39.5985	200.817	5.41357
-39.5963	188.453	5.43311
-39.5945	194.558	5.45264
-39.5934	199.521	5.472168
-39.5919	198.587	5.4917
-39.5901	198.191	5.51123
-39.5878	204.564	5.53076
-39.5872	197.039	5.550293
-39.5839	200.801	5.56982
-39.58297	204.771	5.58936
-39.5815	205.782	5.60889
-39.5795	199.905	5.628418
-39.5787	208.854	5.64795
-39.5763	207.4664	5.66748
-39.5748	206.505	5.68701
-39.5733	207.951	5.706543
-39.5712	211.505	5.72607
-39.56995	208.047	5.74561
-39.5684	207.342	5.76514
-39.5663	212.082	5.784668
-39.5643	210.363	5.8042
-39.5626	210.904	5.82373
-39.5608	217.85	5.84326
-39.5601	217.101	5.862793
-39.558	210.998	5.88232
-39.5566	219.955	5.90186
-39.5543	217.865	5.92139
-39.5526	216.129	5.940918
-39.55217	220.257	5.96045
-39.5501	223.662	5.97998
-39.5471	217.918	5.99951
-39.5464	226.681	6.019043
-39.54578	224.946	6.03857
-39.5429	222.12	6.05811
-39.5423	224.5807	6.07764
-39.5405	231.257	6.097168
-39.5396	223.181	6.1167
-39.5371	226.552	6.13623
-39.5357	229.945	6.15576
-39.5336	230.229	6.175293
-39.5316	229.735	6.19482
-39.5304	234.312	6.21436
-39.5293	229.39	6.23389
-39.5283	231.845	6.253418
-39.525	234.664	6.27295
-39.5237	237.304	6.29248
-39.52356	231.757	6.31201
-39.5219	235.965	6.331543
-39.51955	241.102	6.35107
-39.5176	236.158	6.37061
-39.5151	238.121	6.39014
-39.5153	242.926	6.409668
-39.5123	242.3278	6.4292
-39.512	238.958	6.44873
-39.5093	245.549	6.46826
-39.5083	242.145	6.487793
-39.5067	243.321	6.50732
-39.5042	249.44	6.52686
-39.50272	250.036	6.54639
-39.5007	242.198	6.565918
-39.4995	250.973	6.58545
-39.4992	251.1521	6.60498
-39.4965	249.813	6.62451
-39.4949	252.09	6.644043
-39.4934	256.731	6.66357
-39.4909	247.842	6.68311
-39.4903	255.324	6.70264
-39.48859	257.442	6.722168
-39.4862	254.529	6.7417
-39.4861	254.38	6.76123
-39.4835	263.683	6.78076
-39.481	254.729	6.800293
-39.48053	257.362	6.81982
-39.4783	262.994	6.83936
-39.4768	263.959	6.85889
-39.4755	259.877	6.878418
-39.4747	262.764	6.89795
-39.4722	262.116	6.91748
-39.4708	263.9375	6.93701
-39.4693	267.575	6.956543
-39.4677	269.27	6.97607
-39.4666	265.712	6.99561
-39.46394	265.736	7.01514
-39.4622	271.91	7.034668
-39.4604	267.567	7.0542
-39.46014	268.0144	7.07373
-39.4579	273.3	7.09326
-39.4566	274.046	7.112793
-39.4529	268.182	7.13232
-39.4521	277.6803	7.15186
-39.4513	273.518	7.17139
-39.4502	274.465	7.190918
-39.4479	279.951	7.21045
-39.4461	281.7879	7.22998
-39.4441	271.907	7.24951
-39.4431	281.987	7.269043
-39.441	283.441	7.28857
-39.4402	280.992	7.30811
-39.438	282.705	7.32764
-39.4359	287.8793	7.347168
-39.4362	280.004	7.3667
-39.4327	285.95	7.38623
-39.431	287.763	7.40576
-39.4299	285.188	7.425293
-39.4288	285.139	7.44482
-39.4274	292.612	7.46436
-39.4249	286.902	7.48389
-39.4237	286.15	7.503418
-39.422	293.013	7.52295
-39.42	293.706	7.54248
-39.4191	291.08	7.56201
-39.4162	292.27	7.581543
-39.4146	294.255	7.60107
-39.4135	293.015	7.62061
-39.4121	297.4	7.64014
-39.4112	301.09	7.659668
-39.4084	297.301	7.6792
-39.4076	293.297	7.69873
-39.4046	303.5463	7.71826
-39.4035	299.661	7.737793
-39.4016	299.226	7.75732
-39.4013	304.401	7.77686
-39.3993	304.67	7.79639
-39.3982	297.883	7.815918
-39.3953	307.381	7.83545
-39.3935	305.507	7.85498
-39.3924	304.595	7.87451
-39.3905	309.638	7.894043
-39.389	313.076	7.91357
-39.3877	301.513	7.93311
-39.3863	308.816	7.95264
-39.3839	312.919	7.972168
-39.3818	310.372	7.9917
-39.3809	310.214	8.01123
-39.3797	315.767	8.03076
-39.3781	311.164	8.050293
-39.3772	313.2	8.06982
-39.3739	317.1347	8.08936
-39.3727	316.633	8.10889
-39.3717	313.267	8.128418
-39.37011	317.594	8.14795
-39.368	317.681	8.16748
-39.3661	314.065	8.18701
-39.36348	319.267	8.206543
-39.3636	322.699	8.22607
-39.36129	321.448	8.24561
-39.3601	319.004	8.26514
-39.3583	325.547	8.284668
-39.35709	322.289	8.3042
-39.3561	323.908	8.32373
-39.353	330.056	8.34326
-39.35	327.1095	8.362793
-39.3513	319.999	8.38232
-39.34687	333.237	8.40186
-39.3468	328.84	8.42139
-39.3463	327.056	8.440918
-39.3443	331.826	8.46045
-39.342	333.9621	8.47998
-39.3406	326.255	8.49951
-39.339	335.447	8.519043
-39.3373	334.884	8.53857
-39.3359	332.362	8.55811
-39.3334	336.573	8.57764
-39.3323	340.254	8.597168
-39.3307	331.674	8.6167
-39.329	336.525	8.63623
-39.3269	341.459	8.65576
-39.3242	340.088	8.675293
-39.3235	337.517	8.69482
-39.3229	340.66	8.71436
-39.32056	340.043	8.73389
-39.3186	339.979	8.753418
-39.3158	344.509	8.77295
-39.3154	344.111	8.79248
-39.3143	341.371	8.81201
-39.3136	345.8111	8.831543
-39.3122	349.495	8.85107
-39.3097	343.2182	8.87061
-39.3076	345.383	8.89014
-39.306	351.255	8.909668
-39.3037	351.329	8.9292
-39.3035	345.133	8.94873
-39.3015	353.286	8.96826
-39.3005	350.589	8.987793
-39.2985	351.609	9.00732
-39.2961	356.953	9.02686
-39.2945	357.071	9.04639
-39.2931	347.943	9.065918
-39.2921	359.712	9.08545
-39.29	358.663	9.10498
-39.2883	353.5517	9.12451
-39.2868	359.144	9.144043
-39.2841	364.26	9.16357
-39.28294	355.615	9.18311
-39.2816	361.104	9.20264
-39.2794	362.89	9.222168
-39.2793	360.266	9.2417
-39.2757	362.217	9.26123
-39.2763	367.333	9.28076
-39.2738	361.424	9.300293
-39.2717	362.33	9.31982
-39.2704	367.9827	9.33936
-39.2682	367.597	9.35889
-39.2681	364.7569	9.378418
-39.2653	367.915	9.39795
-39.2641	369.5025	9.41748
-39.2612	366.534	9.43701
-39.2599	370.46	9.456543
-39.2584	374.413	9.47607
-39.25713	370.769	9.49561
-39.2566	369.784	9.51514
-39.2537	376.661	9.534668
-39.252	370.929	9.5542
-39.2503	373.191	9.57373
-39.2495	378.276	9.59326
-39.2484	378.3999	9.612793
-39.24522	370.737	9.63232
-39.2445	380.739	9.65186
-39.2425	377.698	9.67139
-39.2415	375.355	9.690918
-39.2386	381.797	9.71045
-39.2375	385.032	9.72998
-39.2358	374.637	9.74951
-39.2356	385.044	9.769043
-39.233	385.696	9.78857
-39.23164	380.55	9.80811
-39.2294	382.453	9.82764
-39.2271	390.347	9.847168
-39.2264	381.812	9.8667
-39.2248	386.467	9.88623
-39.2231	389.485	9.90576
-39.2212	386.287	9.925293
-39.2194	387.715	9.94482
-39.219	389.972	9.96436
-39.2159	388.643	9.98389
-39.2161	385.412	10.0034
-39.2136	393.679	10.0229
-39.2124	394.411	10.04248
-39.2099	390.826	10.062
-39.21	391.321	10.0815
-39.2063	395.994	10.1011
-39.2047	391.694	10.1206
-39.2035	395.379	10.1401
-39.2025	398.982	10.1597
-39.2006	396.751	10.1792
-39.19944	394.156	10.19873
-39.1977	403.432	10.2183
-39.1946	397.351	10.2378
-39.1948	396.291	10.2573
-39.1916	404.085	10.2769
-39.1901	404.143	10.2964
-39.1891	396.65	10.3159
-39.18771	404.165	10.3354
-39.1849	405.107	10.35498
-39.1841	401.967	10.3745
-39.182	407.009	10.394
-39.1802	410.333	10.4136
-39.18	397.91	10.4331
-39.1781	407.972	10.4526
-39.17598	409.481	10.4722
-39.1754	406.25	10.4917
-39.1735	407.165	10.51123
-39.1707	411.083	10.5308
-39.1686	407.413	10.5503
-39.1676	408.238	10.5698
-39.1666	411.646	10.5894
-39.1657	410.46	10.6089
-39.1625	409.5	10.6284
-39.1605	414.017	10.6479
-39.161	414.961	10.66748
-39.1575	410.435	10.687
-39.1574	415.88	10.7065
-39.1536	418.7327	10.7261
-39.1528	415.263	10.7456
-39.1512	411.709	10.7651
-39.1501	421.375	10.7847
-39.1489	414.535	10.8042
-39.1463	418.898	10.82373
-39.145	422.181	10.8433
-39.1428	420.794	10.8628
-39.1423	414.5752	10.8823
-39.1389	426.229	10.9019
-39.1378	421.745	10.9214
-39.1365	417.918	10.9409
-39.1359	423.992	10.9604
-39.1331	427.562	10.97998
-39.1331	418.09	10.9995
-39.1306	425.893	11.019
-39.1297	427.432	11.0386
-39.12677	423.627	11.0581
-39.1249	427.069	11.0776
-39.1234	430.996	11.0972
-39.1222	422.561	11.1167
-39.1202	427.0571	11.13623
-39.11882	431.996	11.1558
-39.1174	428.843	11.1753
-39.11528	427.291	11.1948
-39.1146	431.289	11.2144
-39.1116	430.464	11.2339
-39.1112	427.852	11.2534
-39.1094	433.081	11.2729
-39.1077	434.198	11.29248
-39.106	431.697	11.312
-39.1037	432.97	11.3315
-39.1031	437.064	11.3511
-39.101	430.666	11.3706
-39.0993	435.201	11.3901
-39.0972	439.14	11.4097
-39.0963	436.617	11.4292
-39.0945	431.451	11.44873
-39.09304	441.7821	11.4683
-39.091	436.182	11.4878
-39.0901	436.1347	11.5073
-39.0872	441.59	11.5269
-39.08746	439.7359	11.5464
-39.0843	433.876	11.5659
-39.08334	445.219	11.5854
-39.082	441.309	11.60498
-39.0809	438.8002	11.6245
-39.0782	442.24	11.644
-39.0769	445.0979	11.6636
-39.0745	436.508	11.6831
-39.0739	442.632	11.7026
-39.0716	446.778	11.7222
-39.0698	440.4205	11.7417
-39.0685	443.2037	11.76123
-39.0672	445.873	11.7808
-39.0658	442.157	11.8003
-39.0636	442.603	11.8198
-39.0622	448.54	11.8394
-39.06	446.427	11.8589
-39.059	443.817	11.8784
-39.0569	446.035	11.8979
-39.05645	449.274	11.91748
-39.0547	443.893	11.937
-39.0522	449.6246	11.9565
-39.0501	450.222	11.9761
-39.0484	447.662	11.9956
-39.0469	446.543	12.0151
-39.0455	453.684	12.0347
-39.0432	447.515	12.0542
-39.0428	448.281	12.07373
-39.0408	455.458	12.0933
-39.039	451.12	12.1128
-39.0397	443.534	12.1323
-39.0356	454.6713	12.1519
-39.0344	451.126	12.1714
-39.0323	450.641	12.1909
-39.0312	454.575	12.2104
-39.0298	453.6788	12.22998
-39.028	446.6	12.2495
-39.0268	454.137	12.269
-39.0244	455.465	12.2886
-39.0228	450.978	12.3081
-39.0218	452.818	12.3276
-39.0191	457.64	12.3472
-39.0171	450.929	12.3667
-39.016	452.455	12.38623
-39.01458	457.236	12.4058
-39.0139	453.731	12.4253
-39.0105	454.175	12.4448
-39.0087	455.54	12.4644
-39.0074	454.832	12.4839
-39.0077	449.698	12.5034
-39.0046	459.476	12.5229
-39.0025	458.408	12.54248
-39.0009	453.996	12.562
-39.0005	452.822	12.5815
-38.9985	461.525	12.6011
-38.9961	453.773	12.6206
-38.9964	456.019	12.6401
-38.99332	461.326	12.6597
-38.9926	456.314	12.6792
-38.9897	453.623	12.69873
-38.9897	462.367	12.7183
-38.9867	454.998	12.7378
-38.9868	456.703	12.7573
-38.9846	462.76	12.7769
-38.9827	461.045	12.7964
-38.9798	452.414	12.8159
-38.9789	461.116	12.8354
-38.9778	460.55	12.85498
-38.9761	455.383	12.8745
-38.9741	459.716	12.894
-38.9724	460.463	12.9136
-38.9696	453.793	12.9331
-38.9694	459.376	12.9526
-38.9675	464.406	12.9722
-38.96656	457.183	12.9917
-38.9643	459.154	13.01123
-38.9632	461.274	13.0308
-38.9615	457.386	13.0503
-38.9591	456.191	13.0698
-38.9587	461.18	13.0894
-38.958	459.891	13.1089
-38.9548	457.23	13.1284
-38.953	460.23	13.1479
-38.9506	461.472	13.16748
-38.9497	455.961	13.187
-38.949	460.4379	13.2065
-38.9459	463.781	13.2261
-38.9449	459.441	13.2456
-38.9436	455.731	13.2651
-38.9412	465.718	13.2847
-38.9403	458.486	13.3042
-38.938	458.717	13.32373
-38.9372	464.073	13.3433
-38.9344	460.763	13.3628
-38.9323	454.172	13.3823
-38.9311	465.502	13.4019
-38.9306	460.168	13.4214
-38.9294	456.797	13.4409
-38.927	462.886	13.4604
-38.925	462.198	13.47998
-38.9226	453.887	13.4995
-38.9229	458.599	13.519
-38.9206	462.547	13.5386
-38.9186	456.251	13.5581
-38.91769	459.821	13.5776
-38.9166	461.827	13.5972
-38.9136	455.385	13.6167
-38.9118	458.313	13.63623
-38.9104	463.543	13.6558
-38.9094	459.723	13.6753
-38.9084	458.827	13.6948
-38.9063	458.828	13.7144
-38.904	462.135	13.7339
-38.9026	456.475	13.7534
-38.9011	460.926	13.7729
-38.8993	459.761	13.79248
-38.8981	457.885	13.812
-38.8956	456.9436	13.8315
-38.895	464.784	13.8511
-38.8921	453.685	13.8706
-38.8922	459.39	13.8901
-38.8892	462.955	13.9097
-38.8878	458.78	13.9292
-38.8863	450.967	13.94873
-38.8857	463.059	13.9683
-38.8831	458.4718	13.9878
-38.8813	455.9845	14.0073
-38.8793	460.389	14.0269
-38.8777	458.1777	14.0464
-38.877	453.438	14.0659
-38.8745	463.667	14.0854
-38.874	459.003	14.10498
-38.8722	453.9646	14.1245
-38.8699	458.682	14.144
-38.8681	460.423	14.1636
-38.8671	453.4129	14.1831
-38.8656	456.9946	14.2026
-38.8637	460.426	14.2222
-38.8616	454.883	14.2417
-38.8596	457.683	14.26123
-38.8592	457.678	14.2808
-38.8581	454.113	14.3003
-38.8549	453.989	14.3198
-38.8524	459.456	14.3394
-38.85323	457.076	14.3589
-38.8512	453.131	14.3784
-38.8476	454.626	14.3979
-38.8463	461.156	14.41748
-38.8459	452.595	14.437
-38.8436	456.722	14.4565
-38.8433	459.026	14.4761
-38.8408	454.498	14.4956
-38.8392	452.906	14.5151
-38.8377	462.66	14.5347
-38.8354	452.077	14.5542
-38.83297	452.516	14.57373
-38.8321	460.128	14.5933
-38.83112	455.512	14.6128
-38.8284	449.313	14.6323
-38.8275	458.64	14.6519
-38.8273	454.848	14.6714
-38.8244	451.652	14.6909
-38.8229	456.157	14.7104
-38.82156	455.256	14.72998
-38.8197	448.126	14.7495
-38.8181	456.412	14.769
-38.81691	457.879	14.7886
-38.8151	450.463	14.8081
-38.8128	453.893	14.8276
-38.8127	456.172	14.8472
-38.8108	450.247	14.8667
-38.80769	450.616	14.88623
-38.8077	455.592	14.9058
-38.8056	451.4	14.9253
-38.8026	450.6	14.9448
-38.8012	454.153	14.9644
-38.8002	453.563	14.9839
-38.7987	447.599	15.0034
-38.7962	456.123	15.0229
-38.7954	455.417	15.04248
-38.7934	449.906	15.062
-38.7913	449.513	15.0815
-38.7896	455.904	15.1011
-38.7891	449.212	15.1206
-38.787	450.756	15.1401
-38.7854	456.321	15.1597
-38.7832	451.133	15.1792
-38.7824	446.29	15.19873
-38.7802	456.348	15.2183
-38.7788	449.398	15.2378
-38.77742	447.847	15.2573
-38.7762	455.503	15.2769
-38.7733	453.942	15.2964
-38.7723	443.218	15.3159
-38.7703	452.966	15.3354
-38.769	453.254	15.35498
-38.7679	446.832	15.3745
-38.7658	451.948	15.394
-38.7647	451.573	15.4136
-38.7629	445.259	15.4331
-38.76189	449.709	15.4526
-38.7594	454.013	15.4722
-38.7577	447.909	15.4917
-38.7567	449.289	15.51123
-38.7532	450.924	15.5308
-38.7528	450.091	15.5503
-38.7521	445.455	15.5698
-38.7493	451.402	15.5894
-38.749	449.712	15.6089
-38.7467	446.976	15.6284
-38.7453	448.86	15.6479
-38.74258	451.524	15.66748
-38.741	441.814	15.687
-38.7407	448.464	15.7065
-38.7376	452.884	15.7261
-38.7368	446.4176	15.7456
-38.7346	443.515	15.7651
-38.7337	452.674	15.7847
-38.73119	446.6553	15.8042
-38.7286	446.515	15.82373
-38.728	451.9946	15.8433
-38.7268	447.217	15.8628
-38.7247	442.787	15.8823
-38.7228	451.966	15.9019
-38.7221	447.7341	15.9214
-38.7201	443.453	15.9409
-38.7186	448.9892	15.9604
-38.7174	450.434	15.97998
-38.7152	440.396	15.9995
-38.7134	447.609	16.019
-38.7123	447.749	16.0386
-38.71022	443.501	16.0581
-38.7085	446.449	16.0776
-38.7068	447.489	16.0972
-38.70575	443.787	16.1167
-38.7044	443.356	16.13623
-38.7035	451.262	16.1558
-38.7007	446.382	16.1753
-38.6986	444.114	16.1948
-38.6981	445.527	16.2144
-38.6951	448.337	16.2339
-38.6938	442.74	16.2534
-38.69165	447.583	16.2729
-38.6903	448.386	16.29248
-38.6894	443.839	16.312
-38.68816	442.627	16.3315
-38.6866	450.368	16.3511
-38.6852	441.196	16.3706
-38.68354	445.76	16.3901
-38.6815	449.518	16.4097
-38.6791	445.487	16.4292
-38.6793	439.2034	16.44873
-38.6757	449.911	16.4683
-38.67437	445.453	16.4878
-38.6725	440.739	16.5073
-38.671	446.897	16.5269
-38.6698	445.636	16.5464
-38.6669	438.251	16.5659
-38.6663	446.685	16.5854
-38.6644	445.782	16.60498
-38.664	439.255	16.6245
-38.6612	445.3364	16.644
-38.65947	446.822	16.6636
-38.6594	438.944	16.6831
-38.65799	442.8389	16.7026
-38.6551	447.756	16.7222
-38.6541	443.1944	16.7417
-38.6512	443.134	16.76123
-38.6508	444.815	16.7808
-38.6484	442.935	16.8003
-38.6469	440.159	16.8198
-38.6444	447.444	16.8394
-38.6439	445.398	16.8589
-38.6424	441.606	16.8784
-38.6397	442.356	16.8979
-38.6389	446.9649	16.91748
-38.63723	438.862	16.937
-38.6353	444.093	16.9565
-38.6341	446.775	16.9761
-38.6328	441.352	16.9956
-38.63015	438.758	17.0151
-38.6291	448.45	17.0347
-38.628	439.437	17.0542
-38.6275	441.232	17.07373
-38.624	446.396	17.0933
-38.6221	443.123	17.1128
-38.62027	435.397	17.1323
-38.6194	445.462	17.1519
-38.6176	443.778	17.1714
-38.6163	439.248	17.1909
-38.6138	444.528	17.2104
-38.6131	443.526	17.22998
-38.6116	438.29	17.2495
-38.6096	443.8208	17.269
-38.6083	444.83	17.2886
-38.607	438.06	17.3081
-38.6046	443.092	17.3276
-38.6023	445.2215	17.3472
-38.60228	439.985	17.3667
-38.5994	438.914	17.38623
-38.5973	445.244	17.4058
-38.5958	442.508	17.4253
-38.59536	440.621	17.4448
-38.5916	442.251	17.4644
-38.5923	442.8829	17.4839
-38.5894	438.604	17.5034
-38.5891	445.546	17.5229
-38.5873	444.247	17.54248
-38.5851	438.591	17.562
-38.5844	439.793	17.5815
-38.5811	447.422	17.6011
-38.5796	438.823	17.6206
-38.5796	439.6821	17.6401
-38.5771	445.011	17.6597
-38.5746	440.189	17.6792
-38.5747	437.16	17.69873
-38.5727	444.9	17.7183
-38.5704	440.71	17.7378
-38.5694	438.985	17.7573
-38.5677	445.405	17.7769
-38.5656	441.324	17.7964
-38.56345	434.951	17.8159
-38.5632	441.846	17.8354
-38.5606	443.707	17.85498
-38.5591	437.257	17.8745
-38.5578	442.699	17.894
-38.5564	441.241	17.9136
-38.5545	436.475	17.9331
-38.5536	441.006	17.9526
-38.5512	445.694	17.9722
-38.549	439.438	17.9917
-38.5469	439.07	18.01123
-38.5464	443.157	18.0308
-38.5447	440.782	18.0503
-38.5423	435.248	18.0698
-38.54	443.471	18.0894
-38.539	441.489	18.1089
-38.5386	438.419	18.1284
-38.5351	438.993	18.1479
-38.5331	443.927	18.16748
-38.53249	436.63	18.187
-38.5308	441.267	18.2065
-38.5304	443.65	18.2261
-38.5273	437.388	18.2456
-38.5279	435.89	18.2651
-38.5245	444.959	18.2847
-38.5235	438.952	18.3042
-38.5223	436.418	18.32373
-38.5195	443.06	18.3433
-38.5183	440.217	18.3628
-38.51683	435.935	18.3823
-38.5143	443.592	18.4019
-38.5128	439.4415	18.4214
-38.5113	434.964	18.4409
-38.51	441.614	18.4604
-38.5081	439.944	18.47998
-38.5067	433.971	18.4995
-38.5052	438.421	18.519
-38.5036	443.108	18.5386
-38.5028	436.442	18.5581
-38.5	439.636	18.5776
-38.4987	439.183	18.5972
-38.4976	437.289	18.6167
-38.4956	435.872	18.63623
-38.4939	442.9845	18.6558
-38.4927	439.228	18.6753
-38.4903	436.715	18.6948
-38.4895	437.826	18.7144
-38.48756	442.408	18.7339
-38.485	435.15	18.7534
-38.4849	440.065	18.7729
-38.4823	441.439	18.79248
-38.4812	438.254	18.812
-38.4797	436.591	18.8315
-38.478	443.499	18.8511
-38.477	434.903	18.8706
-38.4751	437.235	18.8901
-38.4725	443.97	18.9097
-38.4707	436.742	18.9292
-38.47	433.217	18.94873
-38.4683	442.758	18.9683
-38.4665	437.508	18.9878
-38.4652	435.109	19.0073
-38.463	441.733	19.0269
-38.4616	438.837	19.0464
-38.4608	433.2384	19.0659
-38.458	439.977	19.0854
-38.45649	442.291	19.10498
-38.455	434.415	19.1245
-38.4532	439.714	19.144
-38.4515	441.879	19.1636
-38.4498	435.465	19.1831
-38.4471	435.635	19.2026
-38.4475	442.148	19.2222
-38.4453	435.837	19.2417
-38.444	438.178	19.26123
-38.44273	437.68	19.2808
-38.44035	438.175	19.3003
-38.4396	435.865	19.3198
-38.4374	442.914	19.3394
-38.4362	440.342	19.3589
-38.43288	435.795	19.3784
-38.4327	437.305	19.3979
-38.4309	441.5079	19.41748
-38.4293	433.762	19.437
-38.4271	438.04	19.4565
-38.42643	442.77	19.4761
-38.4245	436.54	19.4956
-38.4231	434.486	19.5151
-38.4207	441.948	19.5347
-38.4194	434.37	19.5542
-38.4185	436.196	19.57373
-38.4142	442.4722	19.5933
-38.4144	437.245	19.6128
-38.4133	430.368	19.6323
-38.41048	441.333	19.6519
-38.4087	438.674	19.6714
-38.4079	433.321	19.6909
-38.4064	439.25	19.7104
-38.4047	439.116	19.72998
-38.4027	433.491	19.7495
-38.40126	437.599	19.769
-38.4006	441.0065	19.7886
-38.3977	433.976	19.8081
-38.3965	437.734	19.8276
-38.3946	439.28	19.8472
-38.3947	436.811	19.8667
-38.39159	432.517	19.88623
-38.3901	441.229	19.9058
-38.3884	439.678	19.9253
-38.387	435.507	19.9448
-38.3853	436.8385	19.9644
-38.3841	440.068	19.9839
-38.3824	432.363	20.0034
-38.3817	432.103	20.0132

Data Header:			0.254_solid_uprint_typeiv_090_r0			Time:	35.23584	s	4/14/2019 1:06:42 AM
Data Acquisition:	Timed
Station Name:	ft40.cfg
Test File Name:	monotonic_0.2540_typeiv_solid_090_uprint.tst
Displacement	Force	Running Time
mm	N	s
-38.3789	440.292	20.0229
-38.3791	440.287	20.04248
-38.377	434.699	20.062
-38.3748	435.915	20.0815
-38.3744	443.568	20.1011
-38.3715	434.5358	20.1206
-38.37	436.369	20.1401
-38.3688	440.901	20.1597
-38.3673	436.689	20.1792
-38.3667	433.6	20.19873
-38.3644	442.524	20.2183
-38.3623	437.611	20.2378
-38.3608	434.688	20.2573
-38.36031	442.476	20.2769
-38.3578	436.715	20.2964
-38.3563	432.028	20.3159
-38.3538	439.533	20.3354
-38.3532	439.719	20.35498
-38.3517	433.978	20.3745
-38.3485	439.612	20.394
-38.3478	438.291	20.4136
-38.3458	434.897	20.4331
-38.345	437.571	20.4526
-38.3434	442.54	20.4722
-38.3415	435.018	20.4917
-38.3397	437.081	20.51123
-38.3387	438.952	20.5308
-38.336	439.357	20.5503
-38.3345	432.478	20.5698
-38.3332	440.777	20.5894
-38.3315	439.765	20.6089
-38.33	435.985	20.6284
-38.328	435.36	20.6479
-38.3274	440.156	20.66748
-38.3252	432.29	20.687
-38.3232	439.862	20.7065
-38.3218	440.935	20.7261
-38.32	434.1387	20.7456
-38.3176	432.706	20.7651
-38.31662	441.819	20.7847
-38.3148	435.052	20.8042
-38.3145	435.089	20.82373
-38.3125	440.003	20.8433
-38.3109	434.884	20.8628
-38.3097	431.154	20.8823
-38.3069	440.2843	20.9019
-38.3045	438.437	20.9214
-38.3031	431.581	20.9409
-38.3021	440.058	20.9604
-38.2997	439.034	20.97998
-38.29958	432.74	20.9995
-38.2966	437.073	21.019
-38.2944	441.2099	21.0386
-38.2937	434.194	21.0581
-38.2919	437.305	21.0776
-38.2916	437.701	21.0972
-38.2886	436.1788	21.1167
-38.287	433.863	21.13623
-38.2861	441.2803	21.1558
-38.28418	436.324	21.1753
-38.2831	435.514	21.1948
-38.2818	437.524	21.2144
-38.2795	440.802	21.2339
-38.2779	431.939	21.2534
-38.2762	439.002	21.2729
-38.2738	442.186	21.29248
-38.2714	434.484	21.312
-38.2711	434.857	21.3315
-38.2694	441.397	21.3511
-38.2675	433.206	21.3706
-38.2662	436.387	21.3901
-38.2656	440.442	21.4097
-38.26247	433.387	21.4292
-38.2605	431.211	21.44873
-38.2598	442.109	21.4683
-38.2574	436.9	21.4878
-38.2565	432.193	21.5073
-38.2555	440.107	21.5269
-38.252	434.672	21.5464
-38.2525	431.502	21.5659
-38.2498	437.896	21.5854
-38.2489	438.9827	21.60498
-38.2464	433.169	21.6245
-38.245	438.532	21.644
-38.2433	439.174	21.6636
-38.2419	433.505	21.6831
-38.2397	433.73	21.7026
-38.2395	442.536	21.7222
-38.2364	435.505	21.7417
-38.2359	435.8	21.76123
-38.2334	436.0571	21.7808
-38.2322	438.691	21.8003
-38.2304	431.875	21.8198
-38.2295	440.252	21.8394
-38.227	439.511	21.8589
-38.2249	432.531	21.8784
-38.2239	435.148	21.8979
-38.2223	440.468	21.91748
-38.2206	432.122	21.937
-38.219	436.809	21.9565
-38.2174	439.941	21.9761
-38.2164	434.089	21.9956
-38.2133	432.269	22.0151
-38.2127	440.083	22.0347
-38.2107	431.575	22.0542
-38.20969	433.299	22.07373
-38.2081	440.3638	22.0933
-38.2053	432.298	22.1128
-38.2039	431.4906	22.1323
-38.2031	438.825	22.1519
-38.2013	437.637	22.1714
-38.1994	431.482	22.1909
-38.1978	440.029	22.2104
-38.1953	436.898	22.22998
-38.1956	433.816	22.2495
-38.1931	435.464	22.269
-38.1922	439.735	22.2886
-38.1883	432.834	22.3081
-38.1879	436.226	22.3276
-38.18626	437.23	22.3472
-38.1849	433.814	22.3667
-38.183	432.26	22.38623
-38.1827	440.667	22.4058
-38.17992	436.197	22.4253
-38.1784	435.237	22.4448
-38.1766	435.571	22.4644
-38.1746	439.2301	22.4839
-38.1735	431.861	22.5034
-38.1721	436.864	22.5229
-38.1704	437.59	22.54248
-38.1682	432.024	22.562
-38.1665	432.585	22.5815
-38.1665	441.007	22.6011
-38.163	433.387	22.6206
-38.162	436.216	22.6401
-38.1617	440.979	22.6597
-38.1584	434.46	22.6792
-38.1567	431.815	22.69873
-38.1553	437.953	22.7183
-38.1541	436.33	22.7378
-38.1524	431.8447	22.7573
-38.1509	441.869	22.7769
-38.1493	434.627	22.7964
-38.1479	429.886	22.8159
-38.146	437.114	22.8354
-38.1435	439.474	22.85498
-38.144	432.759	22.8745
-38.1415	436.572	22.894
-38.1399	436.391	22.9136
-38.1376	434.025	22.9331
-38.1354	434.828	22.9526
-38.1344	439.575	22.9722
-38.1334	434.726	22.9917
-38.1303	436.265	23.01123
-38.1302	436.127	23.0308
-38.1281	437.183	23.0503
-38.1271	430.157	23.0698
-38.12307	439.116	23.0894
-38.12418	437.261	23.1089
-38.1218	431.722	23.1284
-38.1209	434.476	23.1479
-38.11797	440.017	23.16748
-38.116	433.032	23.187
-38.1137	436.805	23.2065
-38.1129	439.5256	23.2261
-38.1113	432.976	23.2456
-38.1104	432.7912	23.2651
-38.1096	440.256	23.2847
-38.1068	434.073	23.3042
-38.1044	432.82	23.32373
-38.1039	439.539	23.3433
-38.1019	435.4335	23.3628
-38.1002	431.044	23.3823
-38.0989	437.37	23.4019
-38.0963	437.981	23.4214
-38.0966	431.147	23.4409
-38.0935	439.185	23.4604
-38.0922	435.52	23.47998
-38.0896	431.991	23.4995
-38.0882	435.739	23.519
-38.0866	439.9346	23.5386
-38.0862	433.455	23.5581
-38.0832	435.197	23.5776
-38.081	436.39	23.5972
-38.0794	434.776	23.6167
-38.079	431.961	23.63623
-38.0778	438.324	23.6558
-38.0755	435.763	23.6753
-38.0739	433.226	23.6948
-38.0734	435.881	23.7144
-38.0703	436.92	23.7339
-38.0688	431.264	23.7534
-38.0681	437.984	23.7729
-38.0666	437.899	23.79248
-38.0639	432.384	23.812
-38.0624	431.439	23.8315
-38.0604	437.824	23.8511
-38.0594	433.163	23.8706
-38.0575	434.951	23.8901
-38.0564	438.596	23.9097
-38.0557	432.01	23.9292
-38.0539	432.2926	23.94873
-38.0532	439.527	23.9683
-38.0506	435.841	23.9878
-38.0476	431.3111	24.0073
-38.0456	438.933	24.0269
-38.04565	433.7518	24.0464
-38.04311	432.076	24.0659
-38.042	435.418	24.0854
-38.0395	438.398	24.10498
-38.0376	433.358	24.1245
-38.037	438.395	24.144
-38.0354	436.448	24.1636
-38.0334	434.787	24.1831
-38.0321	434.133	24.2026
-38.03	441.36	24.2222
-38.0279	434.391	24.2417
-38.0268	434.69	24.26123
-38.0251	433.958	24.2808
-38.0238	436.569	24.3003
-38.0212	432.04	24.3198
-38.0199	436.762	24.3394
-38.018	435.706	24.3589
-38.0187	431.7941	24.3784
-38.0155	435.297	24.3979
-38.0131	440.643	24.41748
-38.0118	431.639	24.437
-38.0107	436.323	24.4565
-38.0082	439.92	24.4761
-38.0079	431.811	24.4956
-38.0053	432.0155	24.5151
-38.0038	438.73	24.5347
-38.003	435.142	24.5542
-38.0002	433.734	24.57373
-37.9993	441.135	24.5933
-37.9974	432.394	24.6128
-37.99567	430.498	24.6323
-37.9948	439.063	24.6519
-37.9927	437.822	24.6714
-37.9911	431.638	24.6909
-37.9893	439.799	24.7104
-37.9876	435.018	24.72998
-37.9865	432.503	24.7495
-37.9838	433.683	24.769
-37.9824	438.077	24.7886
-37.9804	433.252	24.8081
-37.9791	436.74	24.8276
-37.9775	436.334	24.8472
-37.9769	433.514	24.8667
-37.9747	432.029	24.88623
-37.9742	440.445	24.9058
-37.9714	435.839	24.9253
-37.97	430.87	24.9448
-37.9685	433.627	24.9644
-37.9658	437.423	24.9839
-37.9648	432.17	25.0034
-37.9632	436.742	25.0229
-37.962	436.498	25.04248
-37.9604	430.956	25.062
-37.959	433.282	25.0815
-37.9569	438.926	25.1011
-37.9552	432.961	25.1206
-37.9533	430.389	25.1401
-37.9507	441.267	25.1597
-37.95	431.7785	25.1792
-37.9487	431.5957	25.19873
-37.9472	438.142	25.2183
-37.9447	435.733	25.2378
-37.9439	432.3522	25.2573
-37.9427	438.198	25.2769
-37.9398	431.728	25.2964
-37.9391	431.282	25.3159
-37.937	436.1	25.3354
-37.9359	438.541	25.35498
-37.9338	430.5488	25.3745
-37.9317	435.997	25.394
-37.9306	435.021	25.4136
-37.93	433.322	25.4331
-37.9271	433.634	25.4526
-37.9266	437.432	25.4722
-37.9246	433.95	25.4917
-37.9231	434.179	25.51123
-37.9215	434.729	25.5308
-37.9191	435.178	25.5503
-37.9184	429.45	25.5698
-37.9151	438.6853	25.5894
-37.9146	437.299	25.6089
-37.9141	430.553	25.6284
-37.9113	433.881	25.6479
-37.9084	440.201	25.66748
-37.9084	431.595	25.687
-37.9062	434.163	25.7065
-37.9045	437.99	25.7261
-37.9035	430.017	25.7456
-37.9009	433.913	25.7651
-37.8997	439.228	25.7847
-37.8991	433.649	25.8042
-37.8962	431.134	25.82373
-37.8944	439.329	25.8433
-37.8941	433.456	25.8628
-37.8907	432.387	25.8823
-37.8894	435.89	25.9019
-37.88797	437.119	25.9214
-37.8866	431.744	25.9409
-37.8857	437.459	25.9604
-37.8855	432.2518	25.97998
-37.8823	433.534	25.9995
-37.8807	435.41	26.019
-37.8786	437.706	26.0386
-37.8779	430.721	26.0581
-37.876	433.248	26.0776
-37.8724	437.463	26.0972
-37.872	435.465	26.1167
-37.8707	429.4675	26.13623
-37.8695	437.1358	26.1558
-37.8668	435.246	26.1753
-37.8648	432.744	26.1948
-37.8647	434.6604	26.2144
-37.8623	435.3237	26.2339
-37.86129	430.214	26.2534
-37.8597	435.417	26.2729
-37.857	439.34	26.29248
-37.8568	430.287	26.312
-37.8553	431.915	26.3315
-37.8534	437.116	26.3511
-37.8507	431.9238	26.3706
-37.8488	433.0817	26.3901
-37.8479	438.713	26.4097
-37.8453	429.85	26.4292
-37.8456	431.844	26.44873
-37.8425	438.0892	26.4683
-37.8413	433.821	26.4878
-37.8386	430.2197	26.5073
-37.8375	438.287	26.5269
-37.8355	433.588	26.5464
-37.835	431.475	26.5659
-37.8329	434.747	26.5854
-37.8322	437.53	26.60498
-37.82914	433.028	26.6245
-37.8282	436.393	26.644
-37.82634	433.533	26.6636
-37.8252	433.488	26.6831
-37.8221	432.072	26.7026
-37.8223	439.878	26.7222
-37.8193	431.694	26.7417
-37.8184	431.854	26.76123
-37.8173	435.279	26.7808
-37.8152	436.285	26.8003
-37.8133	430.91	26.8198
-37.8129	436.402	26.8394
-37.8103	435.672	26.8589
-37.8081	429.413	26.8784
-37.8074	433.269	26.8979
-37.80574	437.17	26.91748
-37.804	431.3551	26.937
-37.8023	434.85	26.9565
-37.8006	438.806	26.9761
-37.7985	429.713	26.9956
-37.7974	431.044	27.0151
-37.7966	436.956	27.0347
-37.7932	433.182	27.0542
-37.792	431.667	27.07373
-37.7907	438.249	27.0933
-37.7894	430.873	27.1128
-37.7884	433.776	27.1323
-37.7848	437.697	27.1519
-37.784	436.213	27.1714
-37.7825	430.311	27.1909
-37.7804	437.884	27.2104
-37.7802	433.318	27.22998
-37.778	432.149	27.2495
-37.7768	433.356	27.269
-37.775	437.677	27.2886
-37.7723	432.745	27.3081
-37.7715	434.819	27.3276
-37.771	433.086	27.3472
-37.7683	434.091	27.3667
-37.7672	430.777	27.38623
-37.7646	439.576	27.4058
-37.7641	434.2496	27.4253
-37.7616	429.027	27.4448
-37.76	433.987	27.4644
-37.7586	438.026	27.4839
-37.7561	431.387	27.5034
-37.7552	433.768	27.5229
-37.7533	435.906	27.54248
-37.7524	429.128	27.562
-37.7497	433.759	27.5815
-37.7481	438.144	27.6011
-37.7465	432.386	27.6206
-37.7457	433.147	27.6401
-37.7444	440.959	27.6597
-37.7411	429.129	27.6792
-37.7399	430.819	27.69873
-37.73822	436.432	27.7183
-37.7369	433.21	27.7378
-37.7353	431.212	27.7573
-37.7344	438.138	27.7769
-37.7321	431.502	27.7964
-37.7302	433.25	27.8159
-37.7288	436.09	27.8354
-37.726	438.24	27.85498
-37.7261	430.612	27.8745
-37.7249	434.569	27.894
-37.7228	434.982	27.9136
-37.72094	432.456	27.9331
-37.71788	430.588	27.9526
-37.7183	437.767	27.9722
-37.7156	433.733	27.9917
-37.7141	432.422	28.01123
-37.71307	434.3757	28.0308
-37.7112	434.023	28.0503
-37.7103	430.107	28.0698
-37.7093	437.142	28.0894
-37.7066	434.556	28.1089
-37.7043	428.57	28.1284
-37.7038	433.853	28.1479
-37.7014	437.295	28.16748
-37.6992	430.914	28.187
-37.6991	432.241	28.2065
-37.69585	438.479	28.2261
-37.6944	430.311	28.2456
-37.6938	434.03	28.2651
-37.6911	436.036	28.2847
-37.6904	432.243	28.3042
-37.689	431.176	28.32373
-37.6868	438.926	28.3433
-37.6832	431.135	28.3628
-37.6833	431.51	28.3823
-37.68317	436.533	28.4019
-37.6812	436.079	28.4214
-37.6785	431.678	28.4409
-37.6764	436.799	28.4604
-37.6762	432.789	28.47998
-37.6744	432.652	28.4995
-37.6727	434.161	28.519
-37.6706	437.961	28.5386
-37.6685	430.101	28.5581
-37.6682	432.243	28.5776
-37.6665	436.1153	28.5972
-37.6641	432.919	28.6167
-37.6618	429.818	28.63623
-37.6609	434.945	28.6558
-37.6588	433.47	28.6753
-37.6581	430.949	28.6948
-37.6559	433.188	28.7144
-37.6538	432.734	28.7339
-37.6527	429.657	28.7534
-37.6517	434.623	28.7729
-37.6492	438.173	28.79248
-37.6483	427.903	28.812
-37.6442	433.649	28.8315
-37.6456	435.964	28.8511
-37.643	431.738	28.8706
-37.6409	431.802	28.8901
-37.6393	436.245	28.9097
-37.6383	430.074	28.9292
-37.6369	433.289	28.94873
-37.63435	436.344	28.9683
-37.634	433.375	28.9878
-37.6309	430.44	29.0073
-37.6283	437.763	29.0269
-37.6288	431.195	29.0464
-37.6274	429.789	29.0659
-37.6247	433.825	29.0854
-37.6224	436.701	29.10498
-37.6224	430.627	29.1245
-37.61903	434.4812	29.144
-37.6192	430.857	29.1636
-37.6157	432.868	29.1831
-37.6146	430.923	29.2026
-37.6141	436.3251	29.2222
-37.6118	430.85	29.2417
-37.6104	430.558	29.26123
-37.6095	435.397	29.2808
-37.6064	432.523	29.3003
-37.6057	430.0116	29.3198
-37.60355	432.998	29.3394
-37.6009	434.4118	29.3589
-37.6009	427.138	29.3784
-37.5993	432.911	29.3979
-37.5972	434.823	29.41748
-37.5949	429.433	29.437
-37.5936	433.191	29.4565
-37.5931	437.077	29.4761
-37.59	425.0864	29.4956
-37.5883	429.287	29.5151
-37.587	434.596	29.5347
-37.5865	432.135	29.5542
-37.5849	430.293	29.57373
-37.5825	435.569	29.5933
-37.5809	428.743	29.6128
-37.5798	430.36	29.6323
-37.5772	433.847	29.6519
-37.5762	434.926	29.6714
-37.5746	428.234	29.6909
-37.5714	434.722	29.7104
-37.5723	431.78	29.72998
-37.5697	427.659	29.7495
-37.5678	429.97	29.769
-37.5661	436.164	29.7886
-37.5649	429.537	29.8081
-37.56332	431.556	29.8276
-37.5617	431.132	29.8472
-37.5594	429.868	29.8667
-37.5585	431.4274	29.88623
-37.5566	435.814	29.9058
-37.55574	431.284	29.9253
-37.5537	426.968	29.9448
-37.5524	432.959	29.9644
-37.5502	432.6037	29.9839
-37.5485	428.786	30.0034
-37.5468	431.495	30.0229
-37.5458	434.695	30.04248
-37.5439	428.651	30.062
-37.5425	432.859	30.0815
-37.5404	433.3378	30.1011
-37.5391	429.985	30.1206
-37.5365	430.37	30.1401
-37.5356	436.68	30.1597
-37.5339	426.259	30.1792
-37.532	431.082	30.19873
-37.5299	435.775	30.2183
-37.5295	433.848	30.2378
-37.5274	431.282	30.2573
-37.5254	434.617	30.2769
-37.5238	429.334	30.2964
-37.5226	431.3356	30.3159
-37.5218	432.283	30.3354
-37.5195	434.228	30.35498
-37.5178	428.572	30.3745
-37.5153	433.396	30.394
-37.5137	434.085	30.4136
-37.5122	429.723	30.4331
-37.5115	429.849	30.4526
-37.5089	435.925	30.4722
-37.5086	431.772	30.4917
-37.5069	428.997	30.51123
-37.5037	432.924	30.5308
-37.5024	432.651	30.5503
-37.501	428.0423	30.5698
-37.4992	435.06	30.5894
-37.4984	433.069	30.6089
-37.4973	425.777	30.6284
-37.4951	431.924	30.6479
-37.49358	435.422	30.66748
-37.4909	428.149	30.687
-37.4888	430.604	30.7065
-37.488	435.3111	30.7261
-37.4862	426.628	30.7456
-37.48539	429.5715	30.7651
-37.4836	432.351	30.7847
-37.481	429.046	30.8042
-37.4805	428.018	30.82373
-37.4789	435.798	30.8433
-37.4764	427.142	30.8628
-37.475	427.336	30.8823
-37.473	431.854	30.9019
-37.471	432.9715	30.9214
-37.4699	425.906	30.9409
-37.469	431.665	30.9604
-37.4676	430.186	30.97998
-37.4654	430.051	30.9995
-37.4641	430.663	31.019
-37.4605	433.211	31.0386
-37.4606	428.3	31.0581
-37.459	429.771	31.0776
-37.4574	430.934	31.0972
-37.4554	428.448	31.1167
-37.4537	425.507	31.13623
-37.45179	432.732	31.1558
-37.45068	431.453	31.1753
-37.4497	425.802	31.1948
-37.4473	430.313	31.2144
-37.4468	429.489	31.2339
-37.4441	425.868	31.2534
-37.4429	432.61	31.2729
-37.4408	433.403	31.29248
-37.4393	423.22	31.312
-37.4379	430.207	31.3315
-37.4372	432.921	31.3511
-37.4343	427.509	31.3706
-37.4329	428.75	31.3901
-37.4315	434.518	31.4097
-37.4301	424.813	31.4292
-37.4283	429.356	31.44873
-37.4259	431.174	31.4683
-37.4244	428.146	31.4878
-37.4231	426.249	31.5073
-37.42112	434.285	31.5269
-37.4206	427.614	31.5464
-37.4188	425.662	31.5659
-37.417	429.119	31.5854
-37.414	431.58	31.60498
-37.4134	426.9523	31.6245
-37.4117	428.543	31.644
-37.4095	428.377	31.6636
-37.4089	426.163	31.6831
-37.4062	426.194	31.7026
-37.4055	430.904	31.7222
-37.4041	425.835	31.7417
-37.4025	423.274	31.76123
-37.4003	430.887	31.7808
-37.398	428.003	31.8003
-37.3973	423.094	31.8198
-37.3955	429.291	31.8394
-37.3932	430.73	31.8589
-37.3916	422.89	31.8784
-37.3906	428.85	31.8979
-37.3886	429.195	31.91748
-37.38802	424.452	31.937
-37.3846	428.643	31.9565
-37.3831	431.968	31.9761
-37.3824	420.863	31.9956
-37.3804	427.517	32.0151
-37.378	430.428	32.0347
-37.3787	427.396	32.0542
-37.3756	423.992	32.07373
-37.37405	431.385	32.0933
-37.3727	424.524	32.1128
-37.3708	426.293	32.1323
-37.3692	427.717	32.1519
-37.3675	428.347	32.1714
-37.3664	423.5932	32.1909
-37.3637	429.677	32.2104
-37.3617	427.199	32.22998
-37.3626	422.4386	32.2495
-37.3601	426.958	32.269
-37.35828	428.446	32.2886
-37.3563	424.535	32.3081
-37.3543	423.101	32.3276
-37.3531	426.927	32.3472
-37.351	423.4028	32.3667
-37.3493	423.619	32.38623
-37.3484	427.545	32.4058
-37.3469	425.692	32.4253
-37.3436	419.879	32.4448
-37.3429	426.796	32.4644
-37.3415	426.054	32.4839
-37.3402	420.45	32.5034
-37.3373	424.629	32.5229
-37.3372	427.505	32.54248
-37.33419	418.614	32.562
-37.3328	424.018	32.5815
-37.3323	423.284	32.6011
-37.3305	421.09	32.6206
-37.3278	422.2565	32.6401
-37.3275	426.319	32.6597
-37.3247	417.183	32.6792
-37.3244	420.647	32.69873
-37.32148	423.693	32.7183
-37.3197	423.989	32.7378
-37.3184	420.157	32.7573
-37.3172	423.107	32.7769
-37.3155	417.049	32.7964
-37.3132	414.768	32.8159
-37.3099	-17.2766	32.8354
-37.309	-51.2767	32.85498
-37.3086	-42.9506	32.8745
-37.3068	-40.237	32.894
-37.3047	-40.0944	32.9136
-37.3035	-44.4528	32.9331
-37.3019	-44.0641	32.9526
-37.301	-39.3989	32.9722
-37.2989	-41.4298	32.9917
-37.297	-43.963	33.01123
-37.29694	-40.5876	33.0308
-37.2937	-43.9807	33.0503
-37.2919	-43.1473	33.0698
-37.2909	-39.7884	33.0894
-37.2886	-39.2513	33.1089
-37.288	-48.096	33.1284
-37.2861	-39.2781	33.1479
-37.2841	-38.9984	33.16748
-37.2829	-44.3181	33.187
-37.2813	-41.385	33.2065
-37.2799	-35.8073	33.2261
-37.2781	-46.1291	33.2456
-37.2769	-41.5083	33.2651
-37.2752	-40.8376	33.2847
-37.2718	-41.9195	33.3042
-37.2715	-43.5801	33.32373
-37.2698	-36.2256	33.3433
-37.2679	-44.2951	33.3628
-37.26775	-45.7665	33.3823
-37.2653	-38.6505	33.4019
-37.2629	-40.2801	33.4214
-37.2621	-44.0918	33.4409
-37.26	-40.7452	33.4604
-37.2579	-41.6038	33.47998
-37.2558	-43.4125	33.4995
-37.2541	-41.2948	33.519
-37.2542	-39.9373	33.5386
-37.2524	-43.8209	33.5581
-37.2511	-44.5866	33.5776
-37.2488	-38.6406	33.5972
-37.2474	-42.9222	33.6167
-37.2458	-44.6325	33.63623
-37.244	-40.79303	33.6558
-37.2428	-38.9997	33.6753
-37.2402	-48.0324	33.6948
-37.2386	-41.8055	33.7144
-37.2373	-41.67186	33.7339
-37.2366	-43.8771	33.7534
-37.2347	-40.0109	33.7729
-37.233	-37.5053	33.79248
-37.2302	-48.7792	33.812
-37.2285	-41.176	33.8315
-37.2286	-38.8664	33.8511
-37.2261	-42.1248	33.8706
-37.2241	-42.7694	33.8901
-37.2232	-36.58289	33.9097
-37.2213	-45.5191	33.9292
-37.21854	-42.32991	33.94873
-37.2175	-39.7558	33.9683
-37.2156	-40.8044	33.9878
-37.2155	-45.2961	34.0073
-37.213	-37.6693	34.0269
-37.2105	-43.3371	34.0464
-37.2105	-44.354	34.0659
-37.2075	-42.3075	34.0854
-37.2067	-39.6722	34.10498
-37.2052	-43.7045	34.1245
-37.2032	-42.4261	34.144
-37.2017	-40.5607	34.1636
-37.1983	-44.4925	34.1831
-37.198	-41.701	34.2026
-37.1966	-40.4424	34.2222
-37.1954	-42.3103	34.2417
-37.194	-47.0362	34.26123
-37.192	-38.2252	34.2808
-37.1892	-43.2926	34.3003
-37.1883	-46.6035	34.3198
-37.1878	-41.3612	34.3394
-37.1863	-38.7009	34.3589
-37.183	-47.464	34.3784
-37.1817	-40.0942	34.3979
-37.179	-41.6451	34.41748
-37.1796	-43.6042	34.437
-37.1768	-41.8943	34.4565
-37.1751	-38.0441	34.4761
-37.1743	-47.4481	34.4956
-37.1718	-40.8706	34.5151
-37.1707	-38.9732	34.5347
-37.169	-43.1014	34.5542
-37.1673	-44.3922	34.57373
-37.1661	-38.3394	34.5933
-37.1636	-44.338	34.6128
-37.1622	-42.7148	34.6323
-37.1603	-40.1895	34.6519
-37.159	-41.1027	34.6714
-37.1581	-45.5559	34.6909
-37.1554	-40.3784	34.7104
-37.1545	-42.0203	34.72998
-37.1521	-44.2426	34.7495
-37.1505	-43.4172	34.769
-37.1497	-38.8136	34.7886
-37.1485	-43.1218	34.8081
-37.1462	-43.4577	34.8276
-37.1452	-41.675	34.8472
-37.1429	-43.6758	34.8667
-37.1406	-44.4498	34.88623
-37.1398	-39.7744	34.9058
-37.1386	-41.7021	34.9253
-37.1376	-47.1402	34.9448
-37.1346	-38.7457	34.9644
-37.1335	-41.1486	34.9839
-37.1302	-45.2833	35.0034
-37.1302	-40.8374	35.0229
-37.1292	-36.3523	35.04248
-37.1269	-47.3842	35.062
-37.1255	-42.35519	35.0815
-37.12302	-39.3376	35.1011
-37.12228	-42.861	35.1206
-37.1216	-42.2888	35.1401
-37.1179	-37.827	35.1597
-37.1169	-47.0112	35.1792
-37.1157	-41.9198	35.19873
-37.1132	-38.2801	35.2183
-37.1127	-41.6636	35.228