File: data/processed_data_files/tensile/0.254_hd_uprint_typeiv_4545_r(7).dat
MTS793|BTW|ENU|1|2|.|/|:|1|0|0|A

Data Header:			0.254_hd_uprint_typeiv_4545_r0			Time:	20.019	s	4/13/2019 7:29:01 PM
Data Acquisition:	Timed
Station Name:	ft40.cfg
Test File Name:	monotonic_0.2540_typeiv_hd_4545_uprint.tst
Displacement	Force	Running Time
mm	N	s
-40.0351	-123.098	0.0224609
-40.0352	-115.31	0.0419922
-40.0353	-117.756	0.0615234
-40.0341	-116.398	0.0810547
-40.0323	-119.107	0.100586
-40.0313	-112.013	0.120117
-40.0291	-116.291	0.139648
-40.0279	-115.937	0.15918
-40.0263	-112.419	0.178711
-40.0243	-106.965	0.198242
-40.02293	-111.189	0.217773
-40.0207	-110.1795	0.237305
-40.0195	-107.219	0.256836
-40.0178	-106.753	0.276367
-40.0156	-106.95	0.295898
-40.014	-102.142	0.31543
-40.01368	-106.152	0.334961
-40.0108	-107.827	0.354492
-40.0094	-100.948	0.374023
-40.0079	-100.533	0.393555
-40.0052	-103.95	0.413086
-40.0045	-98.1852	0.432617
-40.0033	-95.6297	0.452148
-40.0014	-102.659	0.47168
-39.9993	-96.4021	0.491211
-39.9975	-93.9695	0.510742
-39.9961	-95.4041	0.530273
-39.9945	-93.2741	0.549805
-39.9932	-86.9968	0.569336
-39.9923	-97.1706	0.588867
-39.9897	-91.8285	0.608398
-39.9883	-87.5878	0.62793
-39.9868	-88.468	0.647461
-39.9839	-89.48912	0.666992
-39.9839	-85.2758	0.686523
-39.9812	-87.99028	0.706055
-39.9804	-87.4193	0.725586
-39.9791	-81.4692	0.745117
-39.9775	-80.6353	0.764648
-39.9746	-84.7875	0.78418
-39.9742	-80.1739	0.803711
-39.971	-78.9458	0.823242
-39.9703	-80.9739	0.842773
-39.9693	-79.9085	0.862305
-39.968	-73.6839	0.881836
-39.9657	-76.9854	0.901367
-39.9636	-78.28376	0.920898
-39.9626	-74.6217	0.94043
-39.9607	-73.3213	0.959961
-39.9598	-73.6877	0.979492
-39.9582	-68.1445	0.999023
-39.956	-68.1417	1.01855
-39.95528	-76.1231	1.03809
-39.9527	-66.7439	1.05762
-39.951	-65.2707	1.07715
-39.9498	-69.3016	1.09668
-39.9473	-64.4845	1.11621
-39.9466	-61.1843	1.13574
-39.9439	-69.6505	1.15527
-39.9431	-62.2262	1.1748
-39.9411	-58.6131	1.19434
-39.9385	-60.5208	1.21387
-39.9378	-60.3116	1.2334
-39.9355	-53.7993	1.25293
-39.9354	-60.8807	1.27246
-39.93259	-58.3381	1.29199
-39.9316	-55.2731	1.31152
-39.9304	-54.0789	1.33105
-39.9278	-55.9404	1.35059
-39.9265	-51.3827	1.37012
-39.925	-53.3387	1.38965
-39.9232	-51.494	1.40918
-39.9221	-48.574	1.42871
-39.9203	-45.3652	1.44824
-39.9179	-50.6274	1.46777
-39.9164	-45.7289	1.4873
-39.9145	-42.6915	1.50684
-39.91378	-45.526	1.52637
-39.9119	-46.0357	1.5459
-39.9108	-39.0145	1.56543
-39.9075	-40.9549	1.58496
-39.9064	-46.675	1.60449
-39.905	-38.5053	1.62402
-39.9045	-37.8631	1.64355
-39.9024	-39.59338	1.66309
-39.9005	-34.7199	1.68262
-39.8991	-32.9844	1.70215
-39.8975	-41.6055	1.72168
-39.8955	-32.263	1.74121
-39.8947	-30.2716	1.76074
-39.8931	-34.6662	1.78027
-39.8914	-33.998	1.7998
-39.8888	-25.9219	1.81934
-39.8878	-34.4107	1.83887
-39.8868	-28.53595	1.8584
-39.885	-24.2635	1.87793
-39.8833	-28.3998	1.89746
-39.8802	-28.8667	1.91699
-39.8799	-21.9068	1.93652
-39.8786	-26.685	1.95605
-39.8753	-25.2322	1.97559
-39.8747	-21.6916	1.99512
-39.8731	-17.8822	2.01465
-39.8718	-21.7285	2.03418
-39.8697	-20.1125	2.05371
-39.8679	-19.4852	2.07324
-39.867	-19.55735	2.09277
-39.8633	-15.728	2.1123
-39.8629	-11.9755	2.13184
-39.861	-15.099	2.15137
-39.8603	-16.52511	2.1709
-39.8588	-10.3595	2.19043
-39.8567	-11.4342	2.20996
-39.8543	-13.0319	2.22949
-39.853	-7.74769	2.24902
-39.8521	-7.0934	2.26855
-39.8521	-12.6571	2.28809
-39.8481	-4.93249	2.30762
-39.8459	-4.647264	2.32715
-39.84536	-7.59743	2.34668
-39.8432	-2.38977	2.36621
-39.8428	1.38219	2.38574
-39.8405	-8.93075	2.40527
-39.8387	0.214001	2.4248
-39.8375	4.71945	2.44434
-39.835	-0.202633	2.46387
-39.8339	0.955871	2.4834
-39.8318	6.67742	2.50293
-39.8289	-0.021855	2.52246
-39.8298	3.54731	2.54199
-39.8278	8.33588	2.56152
-39.8252	7.7331	2.58105
-39.8232	6.059288	2.60059
-39.8225	10.2112	2.62012
-39.82	9.59951	2.63965
-39.8191	7.547802	2.65918
-39.8174	10.7331	2.67871
-39.8161	16.9965	2.69824
-39.8153	11.4019	2.71777
-39.8127	13.2571	2.7373
-39.8112	16.7284	2.75684
-39.8085	16.02527	2.77637
-39.8079	16.6637	2.7959
-39.8069	23.1953	2.81543
-39.8042	20.3383	2.83496
-39.8033	14.327	2.85449
-39.8019	24.0155	2.87402
-39.79977	22.6542	2.89355
-39.7988	20.6608	2.91309
-39.7964	25.0813	2.93262
-39.796	29.2823	2.95215
-39.7922	21.0879	2.97168
-39.79245	29.243	2.99121
-39.7895	30.2102	3.01074
-39.7884	27.7247	3.03027
-39.78764	30.5531	3.0498
-39.7846	35.3795	3.06934
-39.78458	26.1154	3.08887
-39.7818	31.9596	3.1084
-39.78035	36.155	3.12793
-39.7784	35.18792	3.14746
-39.7767	34.0194	3.16699
-39.77602	38.3853	3.18652
-39.7737	35.335	3.20605
-39.772	36.7614	3.22559
-39.7709	42.7998	3.24512
-39.7689	40.7165	3.26465
-39.7686	37.6725	3.28418
-39.7656	43.0958	3.30371
-39.7632	45.0363	3.32324
-39.7628	42.5002	3.34277
-39.7604	44.9588	3.3623
-39.7595	49.7754	3.38184
-39.7576	46.9962	3.40137
-39.7565	45.515	3.4209
-39.7558	51.0748	3.44043
-39.752	48.5969	3.45996
-39.7514	51.4341	3.47949
-39.7495	55.26643	3.49902
-39.7475	54.7	3.51855
-39.7463	48.871	3.53809
-39.7446	59.3276	3.55762
-39.7418	57.944	3.57715
-39.7404	56.2848	3.59668
-39.7398	59.0925	3.61621
-39.7388	63.4838	3.63574
-39.7365	54.7021	3.65527
-39.7334	62.277	3.6748
-39.733	64.0355	3.69434
-39.7319	61.1744	3.71387
-39.7306	60.9041	3.7334
-39.728	68.1788	3.75293
-39.7259	61.42926	3.77246
-39.7257	64.4457	3.79199
-39.7226	69.4197	3.81152
-39.7222	70.4753	3.83105
-39.7192	66.9188	3.85059
-39.7178	70.8699	3.87012
-39.7165	68.6332	3.88965
-39.715	70.1022	3.90918
-39.714	74.0331	3.92871
-39.7119	76.0525	3.94824
-39.7108	74.3158	3.96777
-39.707	74.4013	3.9873
-39.7074	78.7927	4.00684
-39.7052	77.8928	4.02637
-39.7039	77.93895	4.0459
-39.7019	83.23674	4.06543
-39.7002	81.9601	4.08496
-39.698	77.2185	4.10449
-39.697	85.2798	4.12402
-39.6959	82.5702	4.14355
-39.69376	83.2016	4.16309
-39.6923	87.1083	4.18262
-39.6895	89.5514	4.20215
-39.68853	80.9555	4.22168
-39.6876	90.73558	4.24121
-39.68549	91.2282	4.26074
-39.6848	88.7581	4.28027
-39.6826	90.7114	4.2998
-39.6816	95.8844	4.31934
-39.6792	88.6413	4.33887
-39.6781	95.5407	4.3584
-39.67598	97.8551	4.37793
-39.675	94.0506	4.39746
-39.67329	95.3602	4.41699
-39.671	100.578	4.43652
-39.6696	96.8877	4.45605
-39.6674	96.481	4.47559
-39.6673	101.867	4.49512
-39.6647	104.247	4.51465
-39.6635	101.569	4.53418
-39.6606	102.601	4.55371
-39.6598	106.07	4.57324
-39.6585	103.422	4.59277
-39.6556	106.48	4.6123
-39.655	110.802	4.63184
-39.6531	107.472	4.65137
-39.6511	104.494	4.6709
-39.6498	114.589	4.69043
-39.6482	109.635	4.70996
-39.6451	110.4405	4.72949
-39.6449	115.974	4.74902
-39.6434	115.701	4.76855
-39.6425	109.323	4.78809
-39.6402	119.005	4.80762
-39.6392	116.05	4.82715
-39.6375	114.995	4.84668
-39.6354	120.002	4.86621
-39.6331	123.428	4.88574
-39.6324	114.379	4.90527
-39.6309	121.675	4.9248
-39.62859	125.0703	4.94434
-39.6265	122.188	4.96387
-39.6257	123.205	4.9834
-39.62421	126.194	5.00293
-39.6233	122.423	5.02246
-39.6204	125.859	5.04199
-39.6193	130.714	5.06152
-39.6172	127.994	5.08105
-39.6157	126.852	5.10059
-39.6153	131.1138	5.12012
-39.6134	133.163	5.13965
-39.6104	129.6797	5.15918
-39.6086	133.165	5.17871
-39.6077	137.035	5.19824
-39.6072	135.081	5.21777
-39.60487	133.911	5.2373
-39.6022	139.353	5.25684
-39.60133	135.863	5.27637
-39.6008	138.357	5.2959
-39.5981	143.46	5.31543
-39.5972	139.945	5.33496
-39.5944	136.833	5.35449
-39.5937	146.244	5.37402
-39.5923	144.734	5.39355
-39.59	142.051	5.41309
-39.5875	146.445	5.43262
-39.5872	148.632	5.45215
-39.5852	141.864	5.47168
-39.5844	149.042	5.49121
-39.5815	151.261	5.51074
-39.58107	147.853	5.53027
-39.5771	151.801	5.5498
-39.5772	155.588	5.56934
-39.5746	148.237	5.58887
-39.5737	153.337	5.6084
-39.5719	159.068	5.62793
-39.5695	155.696	5.64746
-39.5693	154.558	5.66699
-39.5671	157.708	5.68652
-39.56525	155.264	5.70605
-39.5646	155.875	5.72559
-39.5619	161.831	5.74512
-39.5601	161.954	5.76465
-39.5593	159.436	5.78418
-39.5581	160.688	5.80371
-39.55563	166.896	5.82324
-39.5542	162.565	5.84277
-39.5527	164.841	5.8623
-39.5502	169.689	5.88184
-39.5489	166.125	5.90137
-39.54797	164.231	5.9209
-39.5452	170.858	5.94043
-39.5441	168.814	5.95996
-39.5421	170.112	5.97949
-39.5409	175.5079	5.99902
-39.5399	174.785	6.01855
-39.5384	166.455	6.03809
-39.5362	177.8093	6.05762
-39.5345	177.004	6.07715
-39.5341	173.639	6.09668
-39.5306	177.239	6.11621
-39.5292	181.851	6.13574
-39.5282	173.869	6.15527
-39.52705	181.925	6.1748
-39.5248	184.207	6.19434
-39.5229	180.341	6.21387
-39.5212	183.3	6.2334
-39.5202	186.993	6.25293
-39.5189	179.768	6.27246
-39.5174	183.36	6.29199
-39.5152	190.284	6.31152
-39.514	187.862	6.33105
-39.511	186.246	6.35059
-39.5106	188.194	6.37012
-39.5084	187.7877	6.38965
-39.5064	187.545	6.40918
-39.5056	194.826	6.42871
-39.5032	197.758	6.44824
-39.5026	192.656	6.46777
-39.5006	191.855	6.4873
-39.4992	199.012	6.50684
-39.4971	193.784	6.52637
-39.4943	197.246	6.5459
-39.4942	201.1846	6.56543
-39.492	200.404	6.58496
-39.49057	194.846	6.60449
-39.4884	204.363	6.62402
-39.48587	202.3109	6.64355
-39.485	201.772	6.66309
-39.4847	206.5	6.68262
-39.482	207.639	6.70215
-39.4822	199.313	6.72168
-39.4796	210.001	6.74121
-39.4782	210.325	6.76074
-39.47715	207.864	6.78027
-39.4746	208.6579	6.7998
-39.4729	212.67	6.81934
-39.4722	205.451	6.83887
-39.4693	213.351	6.8584
-39.4676	216.21	6.87793
-39.4664	212.673	6.89746
-39.46524	212.952	6.91699
-39.4633	219.059	6.93652
-39.4619	215.253	6.95605
-39.4607	215.1636	6.97559
-39.4579	220.912	6.99512
-39.4559	222.801	7.01465
-39.4551	219.366	7.03418
-39.4538	221.082	7.05371
-39.45203	223.532	7.07324
-39.4497	220.328	7.09277
-39.44907	225.924	7.1123
-39.4466	228.168	7.13184
-39.4445	223.765	7.15137
-39.4434	220.0537	7.1709
-39.4423	231.81	7.19043
-39.4394	227.68	7.20996
-39.4394	228.899	7.22949
-39.4372	231.644	7.24902
-39.435	233.704	7.26855
-39.4325	226.855	7.28809
-39.4325	236.208	7.30762
-39.4287	235.488	7.32715
-39.4287	233.202	7.34668
-39.4274	237.96	7.36621
-39.4262	241.894	7.38574
-39.4242	231.915	7.40527
-39.4221	238.763	7.4248
-39.42165	242.055	7.44434
-39.4188	240.42	7.46387
-39.4185	241.232	7.4834
-39.4159	243.971	7.50293
-39.4138	240.408	7.52246
-39.4133	242.067	7.54199
-39.4112	249.078	7.56152
-39.409	244.413	7.58105
-39.4081	244.032	7.60059
-39.407	249.558	7.62012
-39.4048	249.794	7.63965
-39.4029	245.8	7.65918
-39.4006	250.401	7.67871
-39.4	253.664	7.69824
-39.398	252.099	7.71777
-39.39576	250.409	7.7373
-39.394	259.768	7.75684
-39.3927	252.41	7.77637
-39.3926	255.455	7.7959
-39.3894	260.976	7.81543
-39.3876	258.844	7.83496
-39.3879	251.7989	7.85449
-39.3853	265.981	7.87402
-39.3825	261.2226	7.89355
-39.3812	259.007	7.91309
-39.3806	263.763	7.93262
-39.3785	264.659	7.95215
-39.3768	258.434	7.97168
-39.3747	268.077	7.99121
-39.3732	268.032	8.01074
-39.3725	263.603	8.03027
-39.3707	268.993	8.0498
-39.368	272.742	8.06934
-39.3679	264.636	8.08887
-39.3658	268.625	8.1084
-39.3642	274.242	8.12793
-39.363	272.702	8.14746
-39.3608	271.314	8.16699
-39.3594	275.952	8.18652
-39.3562	273.485	8.20605
-39.355	273.162	8.22559
-39.3547	279.7168	8.24512
-39.3522	279.188	8.26465
-39.3499	275.645	8.28418
-39.3491	276.672	8.30371
-39.3479	283.638	8.32324
-39.346	277.035	8.34277
-39.3447	280.717	8.3623
-39.3415	287.321	8.38184
-39.3409	282.582	8.40137
-39.3389	279.805	8.4209
-39.3367	290.321	8.44043
-39.33699	283.608	8.45996
-39.3354	286.012	8.47949
-39.3337	293.099	8.49902
-39.332	289.428	8.51855
-39.3292	281.858	8.53809
-39.3281	294.328	8.55762
-39.3262	293.726	8.57715
-39.3252	289.365	8.59668
-39.3236	293.956	8.61621
-39.3216	295.833	8.63574
-39.3192	288.704	8.65527
-39.3181	295.703	8.6748
-39.3173	299.744	8.69434
-39.3148	295.206	8.71387
-39.3128	297.28	8.7334
-39.3127	300.589	8.75293
-39.3103	296.663	8.77246
-39.3083	297.167	8.79199
-39.3071	305.581	8.81152
-39.3043	303.215	8.83105
-39.3039	301.153	8.85059
-39.3018	303.662	8.87012
-39.3005	303.802	8.88965
-39.2988	301.263	8.90918
-39.2961	309.853	8.92871
-39.29594	310.385	8.94824
-39.2936	306.204	8.96777
-39.2923	305.161	8.9873
-39.2893	315.303	9.00684
-39.2891	308.84	9.02637
-39.2869	310.52	9.0459
-39.285	315.882	9.06543
-39.2846	313.114	9.08496
-39.2824	308.823	9.10449
-39.2809	319.923	9.12402
-39.27887	316.661	9.14355
-39.2767	314.924	9.16309
-39.276	319.498	9.18262
-39.2744	320.68	9.20215
-39.2731	311.08	9.22168
-39.2715	321.9516	9.24121
-39.2684	324.4895	9.26074
-39.2669	319.719	9.28027
-39.2667	321.136	9.2998
-39.2639	325.209	9.31934
-39.2633	319.948	9.33887
-39.2608	324.603	9.3584
-39.2599	330.968	9.37793
-39.2585	325.201	9.39746
-39.2564	326.117	9.41699
-39.2548	329.632	9.43652
-39.2535	329.814	9.45605
-39.25135	326.998	9.47559
-39.2492	333.567	9.49512
-39.2476	333.114	9.51465
-39.2477	332.597	9.53418
-39.2453	332.278	9.55371
-39.2429	338.215	9.57324
-39.242	331.946	9.59277
-39.2395	338.096	9.6123
-39.238	342.229	9.63184
-39.2374	337.731	9.65137
-39.2352	334.194	9.6709
-39.2329	344.8877	9.69043
-39.2323	340.7594	9.70996
-39.23	339.4592	9.72949
-39.2284	344.4411	9.74902
-39.22747	344.81	9.76855
-39.2261	337.052	9.78809
-39.2243	349.759	9.80762
-39.2217	345.766	9.82715
-39.2214	342.299	9.84668
-39.21838	349.4339	9.86621
-39.2175	350.8645	9.88574
-39.216	342.283	9.90527
-39.214	349.022	9.9248
-39.2123	355.753	9.94434
-39.211	350.24	9.96387
-39.209	352.086	9.9834
-39.2067	355.573	10.00293
-39.2069	351.07	10.0225
-39.20446	352.325	10.042
-39.2025	359.683	10.0615
-39.2002	355.532	10.0811
-39.1994	354.144	10.1006
-39.1978	357.878	10.1201
-39.19659	361.695	10.1396
-39.1941	356.451	10.15918
-39.1925	360.948	10.1787
-39.1912	364.779	10.1982
-39.1899	361.757	10.2178
-39.1872	360.698	10.2373
-39.1859	368.679	10.2568
-39.1852	362.791	10.2764
-39.1828	364.401	10.2959
-39.1806	369.822	10.31543
-39.1798	366.832	10.335
-39.1787	361.188	10.3545
-39.1763	373.977	10.374
-39.1755	369.383	10.3936
-39.1735	369.203	10.4131
-39.1713	373.975	10.4326
-39.1706	374.225	10.4521
-39.1685	366.987	10.47168
-39.1675	375.644	10.4912
-39.1654	377.584	10.5107
-39.1628	372.1326	10.5303
-39.1618	375.144	10.5498
-39.1594	380.47	10.5693
-39.1585	373.859	10.5889
-39.1574	377.421	10.6084
-39.155	383.25	10.62793
-39.1539	379.545	10.6475
-39.15197	380.086	10.667
-39.1506	381.361	10.6865
-39.1484	381.4458	10.7061
-39.14732	379.74	10.7256
-39.146	388.198	10.7451
-39.1449	389.179	10.7646
-39.1428	384.127	10.78418
-39.1407	385.7027	10.8037
-39.1385	391.839	10.8232
-39.1371	385.81	10.8428
-39.13665	389.243	10.8623
-39.1344	394.165	10.8818
-39.1324	390.689	10.9014
-39.1308	387.4971	10.9209
-39.1296	396.686	10.94043
-39.1285	389.891	10.96
-39.1264	391.648	10.9795
-39.1259	399.031	10.999
-39.1236	397.535	11.0186
-39.1225	390.185	11.0381
-39.1199	400.171	11.0576
-39.1189	400.048	11.0771
-39.1151	395.494	11.09668
-39.1151	401.145	11.1162
-39.1138	400.947	11.1357
-39.1116	395.084	11.1553
-39.1096	402.48	11.1748
-39.1085	406.653	11.1943
-39.1067	400.071	11.2139
-39.1051	402.918	11.2334
-39.10347	406.185	11.25293
-39.1019	404.928	11.2725
-39.1007	403.415	11.292
-39.0989	411.331	11.3115
-39.0968	408.601	11.3311
-39.0948	407.49	11.3506
-39.0927	409.844	11.3701
-39.09201	412.304	11.3896
-39.0904	408.415	11.40918
-39.0883	415.38	11.4287
-39.0868	417.035	11.4482
-39.0853	411.938	11.4678
-39.0842	409.445	11.4873
-39.0827	420.1492	11.5068
-39.0806	413.086	11.5264
-39.078	416.618	11.5459
-39.0779	420.078	11.56543
-39.0757	417.8367	11.585
-39.0728	413.13	11.6045
-39.0719	424.53	11.624
-39.0713	419.482	11.6436
-39.06937	418.159	11.6631
-39.06765	425.149	11.6826
-39.0662	423.523	11.7021
-39.0635	416.458	11.72168
-39.0618	424.253	11.7412
-39.0617	427.904	11.7607
-39.0596	423.394	11.7803
-39.0585	426.942	11.7998
-39.0559	429.134	11.8193
-39.0543	422.652	11.8389
-39.0522	428.051	11.8584
-39.0515	434.0159	11.87793
-39.0496	428.597	11.8975
-39.0484	428.727	11.917
-39.0463	432.388	11.9365
-39.0456	433.148	11.9561
-39.0436	429.837	11.9756
-39.0408	436.63	11.9951
-39.0404	437.198	12.0146
-39.0383	433.714	12.03418
-39.0382	434.861	12.0537
-39.0351	440.724	12.0732
-39.0341	432.933	12.0928
-39.0321	439.432	12.1123
-39.0309	442.836	12.1318
-39.0287	438.035	12.1514
-39.026	435.339	12.1709
-39.0248	446.158	12.19043
-39.0241	439.46	12.21
-39.0225	441.194	12.2295
-39.0193	446.273	12.249
-39.0186	443.578	12.2686
-39.0163	437.818	12.2881
-39.0157	449.695	12.3076
-39.0141	446.357	12.3271
-39.0117	442.418	12.34668
-39.0105	448.541	12.3662
-39.0094	450	12.3857
-39.0071	443.645	12.4053
-39.0057	449.558	12.4248
-39.0038	453.501	12.4443
-39.0025	448.637	12.4639
-39.00116	452.1337	12.4834
-38.9987	454.286	12.50293
-38.9967	451.591	12.5225
-38.9956	450.476	12.542
-38.9935	458.583	12.5615
-38.9926	456.605	12.5811
-38.9921	453.9722	12.6006
-38.9908	457.327	12.6201
-38.98798	458.298	12.6396
-38.9863	453.706	12.65918
-38.9846	459.401	12.6787
-38.9834	462.505	12.6982
-38.9817	457.5195	12.7178
-38.9804	457.594	12.7373
-38.9784	465.935	12.7568
-38.9776	458.346	12.7764
-38.976	460.831	12.7959
-38.97266	468.3772	12.81543
-38.97258	464.173	12.835
-38.9696	456.714	12.8545
-38.96854	469.349	12.874
-38.9676	467.314	12.8936
-38.9645	463.256	12.9131
-38.9628	469.283	12.9326
-38.9617	468.974	12.9521
-38.9607	461.734	12.97168
-38.9587	470.3454	12.9912
-38.95631	472.95	13.0107
-38.95546	466.4	13.0303
-38.953	471.062	13.0498
-38.9522	473.073	13.0693
-38.9497	469.48	13.0889
-38.9486	469.774	13.1084
-38.9464	477.975	13.12793
-38.9456	473.66	13.1475
-38.9446	473.92	13.167
-38.9434	476.569	13.1865
-38.9399	476.299	13.2061
-38.9391	473.309	13.2256
-38.93726	480.356	13.2451
-38.9364	480.049	13.2646
-38.9339	475.917	13.28418
-38.9321	477.704	13.3037
-38.9312	483.763	13.3232
-38.9291	477.674	13.3428
-38.92738	480.777	13.3623
-38.92569	485.088	13.3818
-38.9247	480.483	13.4014
-38.9224	478.118	13.4209
-38.9205	488.66	13.44043
-38.9191	482.047	13.46
-38.918	482.7644	13.4795
-38.9165	488.716	13.499
-38.91534	487.002	13.5186
-38.9123	481.033	13.5381
-38.9101	490.728	13.5576
-38.9095	489.45	13.5771
-38.9093	484.618	13.59668
-38.9068	490.207	13.6162
-38.90469	489.344	13.6357
-38.9023	483.983	13.6553
-38.9016	490.624	13.6748
-38.9	494.917	13.6943
-38.8989	488.378	13.7139
-38.8962	490.873	13.7334
-38.8947	494.069	13.75293
-38.8937	492.089	13.7725
-38.891	492.013	13.792
-38.8908	496.074	13.8115
-38.889	494.7149	13.8311
-38.887	492.553	13.8506
-38.8852	495.747	13.8701
-38.8837	498.29	13.8896
-38.88269	491.222	13.90918
-38.8811	500.41	13.9287
-38.8794	501.928	13.9482
-38.8774	497.389	13.9678
-38.8762	494.114	13.9873
-38.8737	504.559	14.0068
-38.8718	497.746	14.0264
-38.8699	500.834	14.0459
-38.8684	504.429	14.06543
-38.868	500.933	14.085
-38.8647	495.89	14.1045
-38.864	506.6282	14.124
-38.8634	503.481	14.1436
-38.8617	499.767	14.1631
-38.8601	507.326	14.1826
-38.85733	505.565	14.2021
-38.8563	498.922	14.22168
-38.8549	507.682	14.2412
-38.85331	508.97	14.2607
-38.8509	502.696	14.2803
-38.8498	507.09	14.2998
-38.8485	507.302	14.3193
-38.846	503.88	14.3389
-38.84523	505.368	14.3584
-38.8418	514.224	14.37793
-38.8412	509.4537	14.3975
-38.83926	506.4028	14.417
-38.8378	510.517	14.4365
-38.8368	512.2998	14.4561
-38.8346	508.473	14.4756
-38.8325	514.407	14.4951
-38.8311	513.704	14.5146
-38.8301	510.575	14.53418
-38.8279	511.015	14.5537
-38.826	518.894	14.5732
-38.8258	511.104	14.5928
-38.8232	512.106	14.6123
-38.8226	519.897	14.6318
-38.819	513.284	14.6514
-38.81889	508.208	14.6709
-38.81715	520.868	14.69043
-38.8155	514.9646	14.71
-38.8142	513.915	14.7295
-38.8119	520.561	14.749
-38.8109	518.233	14.7686
-38.8089	510.3833	14.7881
-38.8063	520.385	14.8076
-38.8054	519.1557	14.8271
-38.8039	515.272	14.84668
-38.8022	521.085	14.8662
-38.8015	520.151	14.8857
-38.7982	515.712	14.9053
-38.79784	520.0282	14.9248
-38.7968	522.491	14.9443
-38.7943	518.232	14.9639
-38.7919	519.709	14.9834
-38.7901	522.5799	15.00293
-38.7901	519.646	15.0225
-38.78775	518.206	15.042
-38.7859	526.612	15.0615
-38.7844	524.419	15.0811
-38.783	520.491	15.1006
-38.781	522.17	15.1201
-38.7802	525.717	15.1396
-38.779	520.978	15.15918
-38.7766	527.423	15.1787
-38.7738	526.173	15.1982
-38.7731	521.318	15.2178
-38.7715	521.441	15.2373
-38.769	531.088	15.2568
-38.76852	522.048	15.2764
-38.766	524.413	15.2959
-38.7647	530.799	15.31543
-38.7635	526.751	15.335
-38.76273	519.617	15.3545
-38.76004	529.573	15.374
-38.7587	527.774	15.3936
-38.7564	525.967	15.4131
-38.7548	530.094	15.4326
-38.7538	528.858	15.4521
-38.7512	521.9115	15.47168
-38.75029	529.834	15.4912
-38.7489	533.312	15.5107
-38.74651	526.088	15.5303
-38.74601	528.408	15.5498
-38.7435	529.813	15.5693
-38.742	525.834	15.5889
-38.73999	526.6	15.6084
-38.73848	533.075	15.62793
-38.7367	528.071	15.6475
-38.7356	527.633	15.667
-38.7352	530.416	15.6865
-38.7329	530.3653	15.7061
-38.7302	526.281	15.7256
-38.7288	532.82	15.7451
-38.726	532.88	15.7646
-38.7252	528.489	15.78418
-38.7238	528.518	15.8037
-38.7235	535.714	15.8232
-38.7221	526.627	15.8428
-38.71994	531.328	15.8623
-38.7178	532.572	15.8818
-38.7159	528.306	15.9014
-38.71431	526.335	15.9209
-38.7132	536.397	15.94043
-38.7124	528.7923	15.96
-38.7094	529.301	15.9795
-38.7081	535.048	15.999
-38.7061	531.293	16.0186
-38.70491	524.213	16.0381
-38.7021	532.217	16.0576
-38.7014	532.706	16.0771
-38.7006	528.291	16.09668
-38.6981	533.408	16.1162
-38.6979	531.676	16.1357
-38.6958	525.687	16.1553
-38.6936	532.152	16.1748
-38.69294	536.903	16.1943
-38.6896	529.591	16.2139
-38.6892	529.67	16.2334
-38.6874	532.231	16.25293
-38.6843	531.264	16.2725
-38.6843	528.642	16.292
-38.6806	534.964	16.3115
-38.6808	532.587	16.3311
-38.6783	528.341	16.3506
-38.67712	530.66	16.3701
-38.6763	534.331	16.3896
-38.6733	526.108	16.40918
-38.6721	532.869	16.4287
-38.6707	535.3764	16.4482
-38.6687	529.332	16.4678
-38.668	524.839	16.4873
-38.6645	535.693	16.5068
-38.6638	528.526	16.5264
-38.6618	529.381	16.5459
-38.6609	535.478	16.56543
-38.6596	529.27	16.585
-38.6575	523.867	16.6045
-38.6549	534.602	16.624
-38.6547	531.517	16.6436
-38.6514	525.923	16.6631
-38.6507	531.9903	16.6826
-38.6487	531.021	16.7021
-38.6487	524.8725	16.72168
-38.6453	530.719	16.7412
-38.6452	532.432	16.7607
-38.64325	526.783	16.7803
-38.641	531.022	16.7998
-38.6396	531.542	16.8193
-38.6379	525.648	16.8389
-38.6361	525.809	16.8584
-38.6332	534.764	16.87793
-38.6327	526.563	16.8975
-38.6319	528.053	16.917
-38.6298	528.0108	16.9365
-38.6286	529.937	16.9561
-38.6266	525.265	16.9756
-38.6239	532.507	16.9951
-38.6237	529.319	17.0146
-38.6206	526.081	17.03418
-38.6204	526.982	17.0537
-38.6179	532.543	17.0732
-38.6158	523.769	17.0928
-38.614	527.505	17.1123
-38.6129	532.2464	17.1318
-38.6116	525.495	17.1514
-38.6092	522.003	17.1709
-38.6083	531.982	17.19043
-38.6058	525.551	17.21
-38.6069	524.171	17.2295
-38.6034	532.156	17.249
-38.6025	525.459	17.2686
-38.6009	519.521	17.2881
-38.5981	529.538	17.3076
-38.59787	529.557	17.3271
-38.595	521.045	17.34668
-38.5937	527.081	17.3662
-38.59341	529.033	17.3857
-38.5905	521.161	17.4053
-38.58952	525.485	17.4248
-38.5884	529.978	17.4443
-38.5858	523.0719	17.4639
-38.58474	524.656	17.4834
-38.5824	525.839	17.50293
-38.5813	523.384	17.5225
-38.5808	520.224	17.542
-38.5781	528.637	17.5615
-38.5756	527.237	17.5811
-38.5751	521.537	17.6006
-38.5722	523.126	17.6201
-38.5706	527.744	17.6396
-38.5702	520.413	17.65918
-38.56768	527.579	17.6787
-38.5665	526.213	17.6982
-38.5641	521.029	17.7178
-38.5633	520.349	17.7373
-38.5619	528.313	17.7568
-38.5606	520.225	17.7764
-38.55809	520.7821	17.7959
-38.5565	527.527	17.81543
-38.5548	523.2	17.835
-38.5528	516.876	17.8545
-38.5513	526.293	17.874
-38.5493	522.367	17.8936
-38.5488	518.902	17.9131
-38.5449	525.56	17.9326
-38.5446	523.186	17.9521
-38.5433	516.141	17.97168
-38.5423	522.363	17.9912
-38.5406	526.553	18.0107
-38.5382	518.898	18.0303
-38.5359	522.776	18.0498
-38.5345	524.2854	18.0693
-38.5342	519.774	18.0889
-38.53157	520.043	18.1084
-38.5313	525.584	18.12793
-38.5284	521.294	18.1475
-38.5268	519.505	18.167
-38.5261	522.098	18.1865
-38.5235	522.404	18.2061
-38.5225	516.419	18.2256
-38.52076	524.156	18.2451
-38.5185	523.6	18.2646
-38.5173	516.967	18.28418
-38.5164	517.19	18.3037
-38.5145	524.338	18.3232
-38.5121	516.213	18.3428
-38.5115	520.883	18.3623
-38.5091	523.978	18.3818
-38.5071	518.235	18.4014
-38.5066	514.524	18.4209
-38.5035	524.847	18.44043
-38.503	519.835	18.46
-38.5015	516.984	18.4795
-38.4998	523.312	18.499
-38.4974	519.002	18.5186
-38.4969	512.722	18.5381
-38.4947	521.119	18.5576
-38.4928	519.689	18.5771
-38.4912	515.0274	18.59668
-38.4897	521.583	18.6162
-38.4881	519.432	18.6357
-38.4869	513.946	18.6553
-38.4842	516.878	18.6748
-38.484	524.777	18.6943
-38.4815	515.5954	18.7139
-38.4802	517.515	18.7334
-38.4795	519.383	18.75293
-38.4767	517.8136	18.7725
-38.4765	515.528	18.792
-38.473	523.196	18.8115
-38.4722	518.138	18.8311
-38.4698	516.284	18.8506
-38.4686	515.843	18.8701
-38.4675	521.124	18.8896
-38.466	512.604	18.90918
-38.4646	518.4397	18.9287
-38.4623	521.871	18.9482
-38.4603	516.375	18.9678
-38.45903	514.248	18.9873
-38.4572	521.964	19.0068
-38.455	515.422	19.0264
-38.4532	517.09	19.0459
-38.4523	521.478	19.06543
-38.4504	515.25	19.085
-38.4497	511.569	19.1045
-38.4474	520.362	19.124
-38.447	517.786	19.1436
-38.444	512.912	19.1631
-38.4434	519.712	19.1826
-38.4408	516.724	19.2021
-38.4384	511.656	19.22168
-38.4373	517.973	19.2412
-38.4365	518.699	19.2607
-38.4332	513.4848	19.2803
-38.4326	517.167	19.2998
-38.4323	519.181	19.3193
-38.4292	513.636	19.3389
-38.4274	512.673	19.3584
-38.4267	520.556	19.37793
-38.42461	514.649	19.3975
-38.4226	514.062	19.417
-38.422	514.5531	19.4365
-38.4201	517.102	19.4561
-38.4184	510.908	19.4756
-38.418	518.77	19.4951
-38.4158	516.087	19.5146
-38.4128	510.89	19.53418
-38.4111	514.094	19.5537
-38.4106	518.817	19.5732
-38.4079	510.977	19.5928
-38.4079	513.247	19.6123
-38.4058	518.9	19.6318
-38.4033	512.368	19.6514
-38.40213	508.724	19.6709
-38.4003	517.006	19.69043
-38.3993	512.984	19.71
-38.3969	511.974	19.7295
-38.3953	517.524	19.749
-38.3936	514.185	19.7686
-38.3925	505.827	19.7881
-38.3895	515.868	19.8076
-38.3893	516.345	19.8271
-38.3872	508.362	19.84668
-38.3857	514.49	19.8662
-38.3845	513.069	19.8857
-38.3821	510.288	19.9053
-38.381	512.02	19.9248
-38.3781	516.484	19.9443
-38.37767	509.803	19.9639
-38.3758	512.891	19.9834
-38.3734	516.2019	20.00293
-38.3737	514.174	20.0127

Data Header:			0.254_hd_uprint_typeiv_4545_r0			Time:	31.2424	s	4/13/2019 7:29:12 PM
Data Acquisition:	Timed
Station Name:	ft40.cfg
Test File Name:	monotonic_0.2540_typeiv_hd_4545_uprint.tst
Displacement	Force	Running Time
mm	N	s
-38.3727	511.541	20.0225
-38.3715	509.893	20.0322
-38.3718	508.078	20.042
-38.3697	512.446	20.0518
-38.3692	517.324	20.0615
-38.3684	514.278	20.0713
-38.36808	513.257	20.0811
-38.3666	510.061	20.09082
-38.36636	512.581	20.1006
-38.3652	511.034	20.1104
-38.3638	511.546	20.1201
-38.3639	515.1	20.1299
-38.3632	515.571	20.1396
-38.3611	511.797	20.1494
-38.3615	507.962	20.15918
-38.36031	508.583	20.1689
-38.3588	513.514	20.1787
-38.3586	515.747	20.1885
-38.3591	515.348	20.1982
-38.3576	512.189	20.208
-38.3564	508.303	20.2178
-38.3555	510.269	20.2275
-38.3561	507.431	20.2373
-38.3537	513.917	20.24707
-38.3532	517.2334	20.2568
-38.3521	513.483	20.2666
-38.351	510.1626	20.2764
-38.351	506.501	20.2861
-38.3491	508.008	20.2959
-38.3503	515.136	20.3057
-38.3477	516.089	20.31543
-38.3473	512.95	20.3252
-38.3464	509.7084	20.335
-38.34639	508.411	20.3447
-38.34565	506.421	20.3545
-38.34404	511.536	20.3643
-38.3437	514.864	20.374
-38.3422	516.107	20.3838
-38.3424	511.645	20.3936
-38.3415	505.543	20.40332
-38.3396	506.211	20.4131
-38.3391	510.45	20.4229
-38.33823	514.63	20.4326
-38.3371	513.9101	20.4424
-38.3369	511.11	20.4521
-38.3351	510.247	20.4619
-38.3355	504.845	20.47168
-38.33519	509.308	20.4814
-38.3337	512.057	20.4912
-38.333	514.542	20.501
-38.3319	515.4	20.5107
-38.3314	506.5145	20.5205
-38.33	507.515	20.5303
-38.3296	508.391	20.54
-38.3285	511.254	20.5498
-38.3274	513.592	20.55957
-38.3267	510.823	20.5693
-38.3259	512.646	20.5791
-38.3259	509.373	20.5889
-38.3248	506.415	20.5986
-38.3232	508.785	20.6084
-38.3238	511.308	20.6182
-38.3225	515.181	20.62793
-38.32143	510.495	20.6377
-38.3191	509.81	20.6475
-38.3193	507.374	20.6572
-38.3191	508.378	20.667
-38.3178	510.586	20.6768
-38.3176	510.813	20.6865
-38.3158	510.684	20.6963
-38.31461	510.833	20.7061
-38.31461	508.201	20.71582
-38.3137	505.257	20.7256
-38.3146	506.975	20.7354
-38.3118	512.235	20.7451
-38.3111	512.353	20.7549
-38.3102	511.2251	20.7646
-38.3091	507.867	20.7744
-38.3092	506.459	20.78418
-38.3088	507.8541	20.7939
-38.3063	507.315	20.8037
-38.3063	512.977	20.8135
-38.30624	512.765	20.8232
-38.3051	512.43	20.833
-38.3052	507.078	20.8428
-38.3041	503.757	20.8525
-38.3019	509.386	20.8623
-38.3018	510.944	20.87207
-38.3016	515.233	20.8818
-38.2998	510.678	20.8916
-38.3	506.387	20.9014
-38.299	507.437	20.9111
-38.2976	504.718	20.9209
-38.297	510.18	20.9307
-38.2959	514.679	20.94043
-38.2956	512.416	20.9502
-38.2955	509.301	20.96
-38.2948	503.219	20.9697
-38.2934	503.918	20.9795
-38.293	511	20.9893
-38.2925	511.2406	20.999
-38.2905	512.68	21.0088
-38.2895	507.817	21.0186
-38.2876	507.635	21.02832
-38.28809	505.525	21.0381
-38.2872	508.075	21.0479
-38.2865	511.347	21.0576
-38.2853	513.998	21.0674
-38.2848	511.52	21.0771
-38.2847	503.699	21.0869
-38.2827	505.209	21.09668
-38.2827	507.294	21.1064
-38.2809	510.813	21.1162
-38.2805	509.384	21.126
-38.2802	510.565	21.1357
-38.2802	510.254	21.1455
-38.2788	505.033	21.1553
-38.2767	506.6113	21.165
-38.2772	507.669	21.1748
-38.27467	511.589	21.18457
-38.2743	512.0174	21.1943
-38.2745	506.585	21.2041
-38.2732	506.662	21.2139
-38.2725	505.023	21.2236
-38.2718	507.361	21.2334
-38.27211	510.978	21.2432
-38.2695	508.582	21.25293
-38.2697	511.624	21.2627
-38.2676	508.421	21.2725
-38.2674	505.863	21.2822
-38.26778	504.2	21.292
-38.2651	506.907	21.3018
-38.2653	511.758	21.3115
-38.2645	508.599	21.3213
-38.2642	508.836	21.3311
-38.2616	506.624	21.34082
-38.2622	505.412	21.3506
-38.261	506.71	21.3604
-38.2604	507.174	21.3701
-38.25848	510.37	21.3799
-38.2597	511.818	21.3896
-38.2567	507.027	21.3994
-38.2572	502.843	21.40918
-38.2557	503.732	21.4189
-38.2552	508.749	21.4287
-38.2543	510.689	21.4385
-38.2539	510.9682	21.4482
-38.2536	505.999	21.458
-38.2526	506.221	21.4678
-38.2515	504.4	21.4775
-38.2513	504.136	21.4873
-38.2496	512.355	21.49707
-38.2485	511.189	21.5068
-38.2483	511.174	21.5166
-38.2474	504.078	21.5264
-38.2463	502.527	21.5361
-38.24622	505.6196	21.5459
-38.245	508.546	21.5557
-38.2439	511.459	21.56543
-38.2434	509.945	21.5752
-38.242	505.537	21.585
-38.2409	505.524	21.5947
-38.24073	502.9	21.6045
-38.2398	507.78	21.6143
-38.2392	511.606	21.624
-38.2384	511.298	21.6338
-38.2379	507.327	21.6436
-38.2367	500.386	21.65332
-38.2365	503.099	21.6631
-38.2343	506.858	21.6729
-38.2349	508.673	21.6826
-38.233	510.861	21.6924
-38.2331	507.069	21.7021
-38.2327	506.666	21.7119
-38.2312	502.659	21.72168
-38.2309	503.6785	21.7314
-38.23	508.803	21.7412
-38.2286	510.253	21.751
-38.2284	509.594	21.7607
-38.227	505.949	21.7705
-38.2261	502.96	21.7803
-38.2259	505.192	21.79
-38.2247	507.322	21.7998
-38.2226	509.7471	21.80957
-38.2233	507.373	21.8193
-38.2227	508.793	21.8291
-38.2215	505.841	21.8389
-38.2211	503.662	21.8486
-38.2194	502.463	21.8584
-38.2182	509.32	21.8682
-38.2188	511.271	21.87793
-38.2165	507.356	21.8877
-38.2155	506.61	21.8975
-38.2165	504.157	21.9072
-38.2154	504.907	21.917
-38.2132	507.4361	21.9268
-38.2129	505.216	21.9365
-38.2122	509.246	21.9463
-38.21209	508.938	21.9561
-38.2115	506.017	21.96582
-38.2106	500.551	21.9756
-38.2081	502.325	21.9854
-38.2084	509.738	21.9951
-38.2074	509.791	22.0049
-38.2076	509.21	22.0146
-38.2059	506.281	22.0244
-38.2046	503.762	22.03418
-38.20377	504.264	22.0439
-38.2035	505.1412	22.0537
-38.2014	507.953	22.0635
-38.2023	510.826	22.0732
-38.1999	506.505	22.083
-38.2003	502.385	22.0928
-38.1996	501.694	22.1025
-38.1987	505.714	22.1123
-38.1975	510.0062	22.12207
-38.1972	511.475	22.1318
-38.1962	507.369	22.1416
-38.1947	505.574	22.1514
-38.1946	503.319	22.1611
-38.1935	501.39	22.1709
-38.192	508.7337	22.1807
-38.1915	508.914	22.19043
-38.1912	511.037	22.2002
-38.1904	504.744	22.21
-38.1889	501.088	22.2197
-38.188	504.3363	22.2295
-38.1868	506.553	22.2393
-38.1866	511.341	22.249
-38.1861	509.2	22.2588
-38.1855	505.419	22.2686
-38.1837	505.057	22.27832
-38.1834	501.57	22.2881
-38.1835	505.823	22.2979
-38.1828	508.39	22.3076
-38.1815	510.66	22.3174
-38.18063	508.805	22.3271
-38.1794	500.2579	22.3369
-38.1782	503.535	22.34668
-38.1784	506.195	22.3564
-38.1782	507.381	22.3662
-38.177	510.804	22.376
-38.1762	505.4567	22.3857
-38.1744	507.32	22.3955
-38.17453	502.245	22.4053
-38.1726	504.144	22.415
-38.173	506.54	22.4248
-38.1721	508.363	22.43457
-38.1699	512.4043	22.4443
-38.1706	503.6723	22.4541
-38.1696	503.135	22.4639
-38.1687	503.944	22.4736
-38.1675	504.966	22.4834
-38.1679	507.413	22.4932
-38.16428	507.783	22.50293
-38.1643	506.872	22.5127
-38.1648	505.874	22.5225
-38.1632	503.491	22.5322
-38.1614	501.278	22.542
-38.1625	504.841	22.5518
-38.1612	508.728	22.5615
-38.1613	507.442	22.5713
-38.1595	508.117	22.5811
-38.159	501.729	22.59082
-38.1581	501.856	22.6006
-38.1576	504.451	22.6104
-38.1554	502.633	22.6201
-38.1551	509.635	22.6299
-38.155	508.131	22.6396
-38.1537	506.0838	22.6494
-38.1535	501.48	22.65918
-38.1522	500.569	22.6689
-38.1516	508.227	22.6787
-38.1506	508.321	22.6885
-38.1483	509.416	22.6982
-38.1491	505.626	22.708
-38.1482	501.265	22.7178
-38.1472	502.829	22.7275
-38.1476	501.8558	22.7373
-38.145	507.97	22.74707
-38.1446	511.676	22.7568
-38.1434	507.261	22.7666
-38.1419	503.397	22.7764
-38.1427	498.3721	22.7861
-38.1412	500.735	22.7959
-38.1411	508.604	22.8057
-38.1397	509.066	22.81543
-38.138	505.825	22.8252
-38.139	503.0495	22.835
-38.1376	501.382	22.8447
-38.1371	501	22.8545
-38.1353	505.073	22.8643
-38.135	509.085	22.874
-38.1337	510.94	22.8838
-38.1337	504.6857	22.8936
-38.1332	499.672	22.90332
-38.13155	500.18	22.9131
-38.131	504.432	22.9229
-38.13036	507.784	22.9326
-38.1282	507.24	22.9424
-38.1277	505.596	22.9521
-38.128	504.303	22.9619
-38.1266	500.433	22.97168
-38.1262	504.409	22.9814
-38.1255	505.22	22.9912
-38.1246	508.807	23.001
-38.1227	508	23.0107
-38.12318	499.978	23.0205
-38.1219	502.954	23.0303
-38.1215	500.977	23.04
-38.1207	505.179	23.0498
-38.12	507.424	23.05957
-38.1197	505.837	23.0693
-38.1185	506.122	23.0791
-38.1177	502.76	23.0889
-38.116	500.589	23.0986
-38.1156	503.05	23.1084
-38.1138	505.609	23.1182
-38.1139	509.535	23.12793
-38.1132	504.99	23.1377
-38.1124	503.613	23.1475
-38.1113	502.394	23.1572
-38.1096	502.45	23.167
-38.1098	505.025	23.1768
-38.1107	504.146	23.1865
-38.1086	506.454	23.1963
-38.1061	507.207	23.2061
-38.1068	502.616	23.21582
-38.1056	500.318	23.2256
-38.1051	502.536	23.2354
-38.10358	506.0838	23.2451
-38.10342	506.875	23.2549
-38.1038	506.42	23.2646
-38.1015	502.362	23.2744
-38.1002	502.039	23.28418
-38.1005	501.849	23.2939
-38.0992	502.1423	23.3037
-38.0975	509.1467	23.3135
-38.0986	508.181	23.3232
-38.0965	507.533	23.333
-38.0964	499.766	23.3428
-38.0946	496.83	23.3525
-38.0947	504.746	23.3623
-38.0931	505.4584	23.37207
-38.0927	509.701	23.3818
-38.0923	504.36	23.3916
-38.0903	499.2395	23.4014
-38.0905	501.949	23.4111
-38.08894	499.284	23.4209
-38.0888	506.199	23.4307
-38.0882	507.283	23.44043
-38.0866	506.1788	23.4502
-38.086	504.175	23.46
-38.0848	497.4472	23.4697
-38.0849	501.045	23.4795
-38.0834	505.321	23.4893
-38.083	506.784	23.499
-38.0824	507.334	23.5088
-38.0815	503.2937	23.5186
-38.0814	500.76	23.52832
-38.0801	499.752	23.5381
-38.0784	502.216	23.5479
-38.0777	505.4	23.5576
-38.0776	509.145	23.5674
-38.077	505.675	23.5771
-38.0767	499.659	23.5869
-38.0749	498.964	23.59668
-38.0741	502.149	23.6064
-38.0729	504.924	23.6162
-38.0723	504.976	23.626
-38.0703	503.808	23.6357
-38.0708	503.8367	23.6455
-38.0692	499.273	23.6553
-38.0687	500.55	23.665
-38.0674	501.4	23.6748
-38.0671	505.109	23.68457
-38.0666	508.196	23.6943
-38.06675	501.0267	23.7041
-38.06535	500.497	23.7139
-38.0632	499.326	23.7236
-38.0642	504.416	23.7334
-38.0624	503.276	23.7432
-38.0617	503.866	23.75293
-38.0601	505.389	23.7627
-38.06	503.817	23.7725
-38.05891	500.594	23.7822
-38.0589	500.977	23.792
-38.05806	500.443	23.8018
-38.05793	508.2562	23.8115
-38.0563	504.154	23.8213
-38.0556	502.997	23.8311
-38.0553	501.319	23.84082
-38.0542	499.974	23.8506
-38.05212	502.136	23.8604
-38.0519	502.148	23.8701
-38.0521	504.764	23.8799
-38.0512	505.499	23.8896
-38.05	502.964	23.8994
-38.0487	498.355	23.90918
-38.0481	498.452	23.9189
-38.0467	502.935	23.9287
-38.0462	508.728	23.9385
-38.0453	505.789	23.9482
-38.04504	502.582	23.958
-38.0438	499.959	23.9678
-38.0419	498.926	23.9775
-38.0425	498.457	23.9873
-38.0402	506.308	23.99707
-38.0414	505.439	24.0068
-38.0405	506.49	24.0166
-38.0394	499.271	24.0264
-38.0376	495.855	24.0361
-38.0373	500.331	24.0459
-38.0371	504.577	24.0557
-38.035	507.05	24.06543
-38.0354	503.901	24.0752
-38.0341	499.307	24.085
-38.0329	501.589	24.0947
-38.032	497.328	24.1045
-38.0326	503.805	24.1143
-38.0301	505.273	24.124
-38.03054	505.928	24.1338
-38.0297	503.079	24.1436
-38.0281	497	24.15332
-38.0273	498.698	24.1631
-38.0272	503.417	24.1729
-38.0256	504.087	24.1826
-38.0251	506.7966	24.1924
-38.0245	500.691	24.2021
-38.0226	501.13	24.2119
-38.0236	499.919	24.22168
-38.02256	497.972	24.2314
-38.0204	503.469	24.2412
-38.0196	505.273	24.251
-38.0186	504.756	24.2607
-38.0183	500.787	24.2705
-38.0184	497.876	24.2803
-38.0168	500.51	24.29
-38.0155	502.591	24.2998
-38.0151	504.091	24.30957
-38.0159	501.851	24.3193
-38.0142	503.576	24.3291
-38.013	500.83	24.3389
-38.012	498.877	24.3486
-38.011	498.137	24.3584
-38.0109	502.248	24.3682
-38.00967	504.8396	24.37793
-38.0083	500.9455	24.3877
-38.0076	501.413	24.3975
-38.0068	497.844	24.4072
-38.0063	499.535	24.417
-38.0056	501.584	24.4268
-38.0042	500.866	24.4365
-38.00322	502.568	24.4463
-38.0032	502.655	24.4561
-38.0029	501.055	24.46582
-38.0019	497.05	24.4756
-38.0008	496.865	24.4854
-37.9996	505.768	24.4951
-37.9999	503.819	24.5049
-37.9983	503.063	24.5146
-37.9972	499.408	24.5244
-37.9973	497.264	24.53418
-37.997	500.7897	24.5439
-37.99556	497.613	24.5537
-37.9943	503.8588	24.5635
-37.99271	506.193	24.5732
-37.9919	501.055	24.583
-37.9925	498.786	24.5928
-37.9897	496.276	24.6025
-37.9907	499.391	24.6123
-37.9893	505.982	24.62207
-37.988	505.008	24.6318
-37.98753	501.417	24.6416
-37.98708	496.572	24.6514
-37.98547	498.233	24.6611
-37.9838	497.659	24.6709
-37.9839	501.846	24.6807
-37.9831	503.571	24.69043
-37.9844	503.82	24.7002
-37.9816	498.841	24.71
-37.9811	494.956	24.7197
-37.9802	497.877	24.7295
-37.98	501.143	24.7393
-37.9787	505.142	24.749
-37.9786	502.737	24.7588
-37.9778	499.747	24.7686
-37.976	498.948	24.77832
-37.9754	495.701	24.7881
-37.9758	500.211	24.7979
-37.9739	502.691	24.8076
-37.9741	503.84	24.8174
-37.97226	501.3	24.8271
-37.9707	496.147	24.8369
-37.97028	497.742	24.84668
-37.9705	498.57	24.8564
-37.9689	502.817	24.8662
-37.968	504.542	24.876
-37.968	498.195	24.8857
-37.9669	500.171	24.8955
-37.9652	498.5184	24.9053
-37.9658	498.166	24.915
-37.963	498.808	24.9248
-37.9634	501.755	24.93457
-37.9622	504.999	24.9443
-37.962	499.178	24.9541
-37.96133	497.1579	24.9639
-37.9598	498.016	24.9736
-37.9591	500.289	24.9834
-37.959	500.967	24.9932
-37.9589	502.65	25.00293
-37.958	502.473	25.0127
-37.9556	501.88	25.0225
-37.9549	498.918	25.0322
-37.9549	497.39	25.042
-37.9542	499.27	25.0518
-37.9527	504.663	25.0615
-37.9521	504.319	25.0713
-37.9518	501.119	25.0811
-37.94965	496.948	25.09082
-37.9503	497.136	25.1006
-37.9485	499.977	25.1104
-37.94828	500.026	25.1201
-37.9474	504.315	25.1299
-37.9473	503.923	25.1396
-37.9454	500.54	25.1494
-37.945	495.458	25.15918
-37.9439	494.829	25.1689
-37.9434	501.456	25.1787
-37.9419	503.997	25.1885
-37.9411	503.867	25.1982
-37.9396	498.885	25.208
-37.9397	496.245	25.2178
-37.9408	498.353	25.2275
-37.9378	496.602	25.2373
-37.9365	504.0098	25.24707
-37.9361	505.119	25.2568
-37.9356	501.805	25.2666
-37.9342	498.908	25.2764
-37.9342	492.397	25.2861
-37.9333	496.953	25.2959
-37.9312	503.552	25.3057
-37.932	504.204	25.31543
-37.93161	502.112	25.3252
-37.9294	497.467	25.335
-37.9295	497.7204	25.3447
-37.9276	497.598	25.3545
-37.9278	500.324	25.3643
-37.9265	503.991	25.374
-37.9259	503.146	25.3838
-37.9253	500.005	25.3936
-37.9244	495.137	25.40332
-37.9235	495.555	25.4131
-37.9219	499.138	25.4229
-37.9223	504.016	25.4326
-37.9212	502.686	25.4424
-37.9205	501.181	25.4521
-37.9202	498.494	25.4619
-37.919	495.295	25.47168
-37.9174	498.881	25.4814
-37.9167	499.805	25.4912
-37.9154	503.197	25.501
-37.9155	504.688	25.5107
-37.9151	496.465	25.5205
-37.91383	498.529	25.5303
-37.9118	497.879	25.54
-37.9112	499.359	25.5498
-37.91206	502.307	25.55957
-37.9109	499.621	25.5693
-37.91	501.201	25.5791
-37.9094	498.6145	25.5889
-37.9086	496.309	25.5986
-37.9068	497.2923	25.6084
-37.9074	499.433	25.6182
-37.9041	506.685	25.62793
-37.9052	501.458	25.6377
-37.9039	497.718	25.6475
-37.9023	496.6734	25.6572
-37.9027	497.633	25.667
-37.90181	501.389	25.6768
-37.9018	499.266	25.6865
-37.9002	502.624	25.6963
-37.8998	503.195	25.7061
-37.8971	498.845	25.71582
-37.897	495.485	25.7256
-37.8966	496.434	25.7354
-37.8964	499.814	25.7451
-37.89481	503.835	25.7549
-37.8942	503.183	25.7646
-37.8933	496.717	25.7744
-37.8929	496.564	25.78418
-37.8909	496.2113	25.7939
-37.8917	498.82	25.8037
-37.8902	502.929	25.8135
-37.88942	503.016	25.8232
-37.8888	501.354	25.833
-37.888	495.611	25.8428
-37.8867	492.16	25.8525
-37.8857	499.208	25.8623
-37.8855	504.07	25.87207
-37.8844	505.0162	25.8818
-37.8838	499.419	25.8916
-37.8835	496.69	25.9014
-37.8817	497.037	25.9111
-37.881	493.643	25.9209
-37.8808	502.827	25.9307
-37.87851	502.992	25.94043
-37.8782	502.204	25.9502
-37.8777	498.966	25.96
-37.8776	493.068	25.9697
-37.8755	495.149	25.9795
-37.8757	501.128	25.9893
-37.8735	502.645	25.999
-37.8738	503.453	26.0088
-37.8732	496.358	26.0186
-37.8716	496.256	26.02832
-37.8719	495.555	26.0381
-37.8702	497.926	26.0479
-37.8692	501.074	26.0576
-37.8687	502.413	26.0674
-37.8668	501.247	26.0771
-37.8672	494.38	26.0869
-37.867	494.833	26.09668
-37.86478	498.084	26.1064
-37.8644	500.693	26.1162
-37.8642	501.807	26.126
-37.8635	498.096	26.1357
-37.8635	498.627	26.1455
-37.8605	496.13	26.1553
-37.8605	497.288	26.165
-37.85989	495.883	26.1748
-37.8584	500.273	26.18457
-37.8586	502.657	26.1943
-37.8579	497.577	26.2041
-37.8576	497.745	26.2139
-37.8558	494.223	26.2236
-37.8553	497.354	26.2334
-37.8549	500.315	26.2432
-37.8527	497.78	26.25293
-37.8523	499.565	26.2627
-37.8524	497.898	26.2725
-37.8503	497.583	26.2822
-37.8503	495.283	26.292
-37.8495	495.264	26.3018
-37.8484	503.678	26.3115
-37.8477	500.4747	26.3213
-37.8466	500.701	26.3311
-37.846	495.623	26.34082
-37.8459	494.559	26.3506
-37.8442	498.719	26.3604
-37.8453	497.87	26.3701
-37.8432	502.187	26.3799
-37.8419	501.618	26.3896
-37.84272	496.058	26.3994
-37.8403	494.593	26.40918
-37.8396	493.107	26.4189
-37.8393	498.123	26.4287
-37.8382	503.374	26.4385
-37.838	502.821	26.4482
-37.8365	497.516	26.458
-37.8356	494.306	26.4678
-37.833	494.834	26.4775
-37.8343	495.086	26.4873
-37.8327	502.877	26.49707
-37.8322	502.441	26.5068
-37.832	500.403	26.5166
-37.8301	496.292	26.5264
-37.8306	492.004	26.5361
-37.8293	495.834	26.5459
-37.8287	499.517	26.5557
-37.8262	502.79	26.56543
-37.8257	497.752	26.5752
-37.8257	494.57	26.585
-37.8248	493.999	26.5947
-37.8252	493.676	26.6045
-37.8233	498.992	26.6143
-37.8224	500.462	26.624
-37.8216	501.509	26.6338
-37.8213	498.582	26.6436
-37.82	492.494	26.65332
-37.8196	495.999	26.6631
-37.819	497.105	26.6729
-37.8184	501.557	26.6826
-37.8168	502.395	26.6924
-37.8165	495.147	26.7021
-37.8162	495.589	26.7119
-37.814	492.967	26.72168
-37.8129	494.142	26.7314
-37.81353	498.492	26.7412
-37.8126	499.645	26.751
-37.81	502.582	26.7607
-37.80933	495.112	26.7705
-37.8097	494.5495	26.7803
-37.8079	496.9671	26.79
-37.8083	497.885	26.7998
-37.8073	500.364	26.80957
-37.8064	498.069	26.8193
-37.80505	497.45	26.8291
-37.8041	496.681	26.8389
-37.8034	493.828	26.8486
-37.8031	494.361	26.8584
-37.8017	497.157	26.8682
-37.8007	502.048	26.87793
-37.80035	498.585	26.8877
-37.7993	497.237	26.8975
-37.79842	493.097	26.9072
-37.7971	495.158	26.917
-37.7979	498.062	26.9268
-37.7967	496.3678	26.9365
-37.7962	501.778	26.9463
-37.7957	498.8269	26.9561
-37.7946	495.927	26.96582
-37.7938	492.259	26.9756
-37.7918	491.463	26.9854
-37.7925	500.1908	26.9951
-37.7896	500.526	27.0049
-37.7898	500.923	27.0146
-37.7896	495.156	27.0244
-37.7877	492.3714	27.03418
-37.7879	495.611	27.0439
-37.7871	493.957	27.0537
-37.7856	501.786	27.0635
-37.785	499.4819	27.0732
-37.783	496.983	27.083
-37.7843	494.704	27.0928
-37.78286	490.836	27.1025
-37.78315	495.354	27.1123
-37.7816	501.828	27.12207
-37.7801	502.305	27.1318
-37.78	498.638	27.1416
-37.77742	491.445	27.1514
-37.7767	493.12	27.1611
-37.7771	494.9415	27.1709
-37.77607	496.935	27.1807
-37.7759	499.931	27.19043
-37.774	500.511	27.2002
-37.7738	495.968	27.21
-37.7728	489.594	27.2197
-37.7725	493.168	27.2295
-37.7711	497.98	27.2393
-37.77	500.827	27.249
-37.7694	498.769	27.2588
-37.7687	494.325	27.2686
-37.7676	493.649	27.27832
-37.7681	493.931	27.2881
-37.7666	496.396	27.2979
-37.7652	495.871	27.3076
-37.7644	500.972	27.3174
-37.7634	499.788	27.3271
-37.7632	492.553	27.3369
-37.7617	493.15	27.34668
-37.7619	495.091	27.3564
-37.76046	498.303	27.3662
-37.7589	500.688	27.376
-37.7586	496.6218	27.3857
-37.7576	496.863	27.3955
-37.7576	494.803	27.4053
-37.7564	493.17	27.415
-37.7559	496.049	27.4248
-37.7551	495.698	27.43457
-37.7534	500.772	27.4443
-37.7537	495.594	27.4541
-37.7527	494.5144	27.4639
-37.751	492.26	27.4736
-37.75034	493.771	27.4834
-37.7499	498.823	27.4932
-37.7488	497.301	27.50293
-37.7488	498.082	27.5127
-37.7482	497.4964	27.5225
-37.7463	493.453	27.5322
-37.7474	492.3125	27.542
-37.7451	492.705	27.5518
-37.7438	499.4689	27.5615
-37.744	500.48	27.5713
-37.7431	496.465	27.5811
-37.7414	492.002	27.59082
-37.7411	491.769	27.6006
-37.7415	494.493	27.6104
-37.7399	496.267	27.6201
-37.7393	500.738	27.6299
-37.7386	496.592	27.6396
-37.7369	495.46	27.6494
-37.7365	490.5007	27.65918
-37.7346	489.836	27.6689
-37.7339	495.735	27.6787
-37.735	500.833	27.6885
-37.7326	501.104	27.6982
-37.7322	493.863	27.708
-37.7309	490.825	27.7178
-37.7315	494.113	27.7275
-37.72953	493.39	27.7373
-37.7296	498.421	27.74707
-37.7279	498.227	27.7568
-37.7269	497.518	27.7666
-37.7273	494.9	27.7764
-37.7262	487.605	27.7861
-37.7246	492.233	27.7959
-37.7248	499.482	27.8057
-37.7228	499.584	27.81543
-37.7222	498.118	27.8252
-37.7214	490.931	27.835
-37.7215	490.789	27.8447
-37.72	492.312	27.8545
-37.7197	495.891	27.8643
-37.7193	498.089	27.874
-37.7173	498.379	27.8838
-37.7163	494.774	27.8936
-37.717	490.161	27.90332
-37.71505	490.532	27.9131
-37.7144	494.929	27.9229
-37.7141	498.0119	27.9326
-37.714	498.045	27.9424
-37.7117	495.109	27.9521
-37.71154	494.16	27.9619
-37.71	492.383	27.97168
-37.7095	494.192	27.9814
-37.7084	492.348	27.9912
-37.7074	497.362	28.001
-37.7057	499.17	28.0107
-37.7069	491.1973	28.0205
-37.7046	493.803	28.0303
-37.7048	490.712	28.04
-37.7044	493.643	28.0498
-37.70253	498.176	28.05957
-37.7015	493.906	28.0693
-37.7021	494.575	28.0791
-37.7	493.981	28.0889
-37.6991	491.836	28.0986
-37.6994	490.999	28.1084
-37.6981	491.5126	28.1182
-37.6968	497.686	28.12793
-37.6965	495.007	28.1377
-37.6964	492.656	28.1475
-37.6947	490.627	28.1572
-37.694	489.316	28.167
-37.6927	494.837	28.1768
-37.6921	493.496	28.1865
-37.6912	496.446	28.1963
-37.6906	496.186	28.2061
-37.68922	492.919	28.21582
-37.6891	491.046	28.2256
-37.6887	490.337	28.2354
-37.6874	494.285	28.2451
-37.6872	499.4	28.2549
-37.6858	495.753	28.2646
-37.6845	491.504	28.2744
-37.6843	488.611	28.28418
-37.684	491.618	28.2939
-37.6824	492.234	28.3037
-37.6819	496.425	28.3135
-37.6805	496.396	28.3232
-37.6791	495.349	28.333
-37.6784	491.0777	28.3428
-37.6782	487.159	28.3525
-37.6774	492.264	28.3623
-37.6771	496.634	28.37207
-37.6764	498.968	28.3818
-37.6753	494.04	28.3916
-37.6743	489.002	28.4014
-37.67321	489.908	28.4111
-37.6731	489.266	28.4209
-37.6715	495.264	28.4307
-37.6708	495.116	28.44043
-37.6701	495.111	28.4502
-37.6693	493.962	28.46
-37.6695	486.662	28.4697
-37.6668	490.423	28.4795
-37.6671	493.142	28.4893
-37.6674	497.093	28.499
-37.6656	497.2457	28.5088
-37.6638	489.186	28.5186
-37.66431	489.053	28.52832
-37.6628	489.868	28.5381
-37.6623	491.091	28.5479
-37.6619	493.134	28.5576
-37.6605	494.755	28.5674
-37.6597	493.754	28.5771
-37.6594	488.413	28.5869
-37.6585	488.691	28.59668
-37.6579	489.117	28.6064
-37.6557	492.324	28.6162
-37.6545	494.231	28.626
-37.6551	491.3053	28.6357
-37.654	490.0379	28.6455
-37.65398	488.377	28.6553
-37.6525	488.965	28.665
-37.6509	488.53	28.6748
-37.6506	491.138	28.68457
-37.6497	494.499	28.6943
-37.649	490.097	28.7041
-37.6481	489.362	28.7139
-37.6467	486.893	28.7236
-37.6466	489.559	28.7334
-37.64584	492.918	28.7432
-37.6444	490.933	28.75293
-37.6439	492.714	28.7627
-37.644	488.519	28.7725
-37.6441	486.696	28.7822
-37.6415	486.794	28.792
-37.6421	485.744	28.8018
-37.641	493.188	28.8115
-37.6386	493.824	28.8213
-37.6388	489.766	28.8311
-37.6375	484.49	28.84082
-37.6369	481.951	28.8506
-37.6354	487.685	28.8604
-37.6357	486.122	28.8701
-37.6339	490.374	28.8799
-37.633	489.113	28.8896
-37.633	483.477	28.8994
-37.6322	481.441	28.90918
-37.6325	478.103	28.9189
-37.6301	483.747	28.9287
-37.62944	488.947	28.9385
-37.6289	486.246	28.9482
-37.6281	480.822	28.958
-37.627	475.424	28.9678
-37.6268	476.026	28.9775
-37.6255	476.917	28.9873
-37.6252	480.995	28.99707
-37.6239	480.859	29.0068
-37.6231	478.158	29.0166
-37.6217	473.48	29.0264
-37.6206	468.492	29.0361
-37.6208	471.055	29.0459
-37.6198	473.622	29.0557
-37.6188	476.933	29.06543
-37.6178	471.743	29.0752
-37.6178	465.094	29.085
-37.6168	464.945	29.0947
-37.6161	463.156	29.1045
-37.6149	465.451	29.1143
-37.6147	464.252	29.124
-37.6134	463.657	29.1338
-37.6121	458.25	29.1436
-37.6076	-66.0244	29.15332
-37.6091	-61.7829	29.1631
-37.6078	-52.743	29.1729
-37.6059	-26.6471	29.1826
-37.6059	-35.8378	29.1924
-37.606	-47.9097	29.2021
-37.6053	-46.3755	29.2119
-37.606	-43.6792	29.22168
-37.60524	-43.8066	29.2314
-37.6033	-43.47002	29.2412
-37.6026	-42.2222	29.251
-37.6019	-40.321	29.2607
-37.60183	-45.5521	29.2705
-37.6008	-45.8319	29.2803
-37.6007	-45.1392	29.29
-37.5995	-43.6354	29.2998
-37.59745	-39.8335	29.30957
-37.5985	-43.76725	29.3193
-37.5967	-42.8764	29.3291
-37.5955	-43.2457	29.3389
-37.5954	-46.01059	29.3486
-37.5933	-45.6133	29.3584
-37.5935	-42.5315	29.3682
-37.5932	-38.96933	29.37793
-37.5911	-39.7229	29.3877
-37.5912	-43.4694	29.3975
-37.5905	-48.0317	29.4072
-37.58963	-46.0004	29.417
-37.5883	-43.8501	29.4268
-37.5868	-42.1469	29.4365
-37.58783	-38.34705	29.4463
-37.5864	-43.3751	29.4561
-37.5857	-44.3166	29.46582
-37.584	-46.3018	29.4756
-37.5841	-46.7554	29.4854
-37.5828	-42.331	29.4951
-37.5822	-38.4801	29.5049
-37.581	-40.5527	29.5146
-37.57967	-44.2534	29.5244
-37.5787	-49.0968	29.53418
-37.5799	-44.4325	29.5439
-37.5785	-44.9721	29.5537
-37.5773	-39.0145	29.5635
-37.57629	-41.0071	29.5732
-37.5753	-43.9348	29.583
-37.5759	-45.0001	29.5928
-37.5744	-49.1406	29.6025
-37.5732	-44.2631	29.6123
-37.5715	-39.0919	29.62207
-37.5719	-40.2233	29.6318
-37.5701	-42.0589	29.6416
-37.5709	-48.59	29.6514
-37.5686	-47.827	29.6611
-37.5684	-44.8827	29.6709
-37.5682	-42.4145	29.6807
-37.5665	-39.9658	29.69043
-37.5656	-39.9286	29.7002
-37.5639	-44.0207	29.71
-37.5646	-48.3737	29.7197
-37.5621	-44.5998	29.7295
-37.563	-41.6306	29.7393
-37.562	-39.1278	29.749
-37.56	-41.5567	29.7588
-37.5598	-45.2594	29.7686
-37.5596	-46.26038	29.77832
-37.5588	-45.7371	29.7881
-37.5581	-42.9201	29.7979
-37.5579	-43.141	29.8076
-37.5561	-41.9072	29.8174
-37.5539	-39.895	29.8271
-37.55331	-47.7377	29.8369
-37.5536	-45.5552	29.84668
-37.553	-46.89489	29.8564
-37.5511	-41.5216	29.8662
-37.5505	-39.0914	29.876
-37.5505	-43.9056	29.8857
-37.5495	-42.3644	29.8955
-37.5487	-45.9127	29.9053
-37.5478	-46.8677	29.915
-37.5474	-43.4663	29.9248
-37.54752	-45.5765	29.93457
-37.5457	-39.3303	29.9443
-37.54517	-41.8366	29.9541
-37.544	-45.4599	29.9639
-37.5431	-48.0813	29.9736
-37.5418	-46.8801	29.9834
-37.5421	-42.3782	29.9932
-37.5424	-43.0385	30.00293
-37.5403	-41.9571	30.0127
-37.5398	-43.724	30.0225
-37.5387	-46.23378	30.0322
-37.5383	-46.2393	30.042
-37.53685	-46.4551	30.0518
-37.5362	-42.1044	30.0615
-37.5362	-37.2587	30.0713
-37.5343	-42.7649	30.0811
-37.5337	-47.0303	30.09082
-37.5325	-48.8802	30.1006
-37.5317	-45.784	30.1104
-37.5307	-43.35355	30.1201
-37.5305	-39.7481	30.1299
-37.5294	-42.5627	30.1396
-37.529	-44.5195	30.1494
-37.52684	-47.8019	30.15918
-37.5271	-49.7339	30.1689
-37.5262	-42.6931	30.1787
-37.5256	-38.7871	30.1885
-37.524	-40.34045	30.1982
-37.5236	-43.7314	30.208
-37.5236	-47.4775	30.2178
-37.5229	-45.7582	30.2275
-37.5202	-45.5264	30.2373
-37.5198	-40.3216	30.24707
-37.5198	-40.6716	30.2568
-37.51889	-42.4321	30.2666
-37.5183	-43.0689	30.2764
-37.5169	-50.5392	30.2861
-37.5167	-45.1402	30.2959
-37.5162	-41.0962	30.3057
-37.5146	-40.3578	30.31543
-37.5139	-40.92009	30.3252
-37.514	-47.7948	30.335
-37.5118	-47.6676	30.3447
-37.5109	-45.0305	30.3545
-37.5102	-43.2924	30.3643
-37.5103	-39.5975	30.374
-37.5088	-43.2339	30.3838
-37.5088	-42.209	30.3936
-37.5064	-47.12125	30.40332
-37.5062	-47.2032	30.4131
-37.5052	-44.0288	30.4229
-37.5049	-41.5113	30.4326
-37.5041	-40.3798	30.4424
-37.5021	-44.962	30.4521
-37.5028	-47.0927	30.4619
-37.5015	-46.7169	30.47168
-37.5006	-44	30.4814
-37.4998	-44.6465	30.4912
-37.4993	-41.6778	30.501
-37.4978	-40.9737	30.5107
-37.4972	-43.6344	30.5205
-37.497	-44.6499	30.5303
-37.4952	-48.23703	30.54
-37.495	-43.4854	30.5498
-37.4951	-40.8279	30.55957
-37.4939	-43.1897	30.5693
-37.4931	-41.5879	30.5791
-37.491	-44.7423	30.5889
-37.4908	-45.6035	30.5986
-37.4894	-46.45956	30.6084
-37.4889	-46.4799	30.6182
-37.4889	-39.6485	30.62793
-37.4876	-39.0177	30.6377
-37.487	-43.8843	30.6475
-37.4867	-47.5866	30.6572
-37.4864	-48.2466	30.667
-37.4837	-41.2413	30.6768
-37.4832	-43.2295	30.6865
-37.4836	-41.68058	30.6963
-37.4817	-42.516	30.7061
-37.4807	-46.07069	30.71582
-37.4812	-45.6537	30.7256
-37.4795	-49.4475	30.7354
-37.4779	-42.6689	30.7451
-37.4793	-37.32589	30.7549
-37.4778	-40.0272	30.7646
-37.4772	-45.6789	30.7744
-37.4743	-50.8933	30.78418
-37.4744	-45.9989	30.7939
-37.4726	-41.93504	30.8037
-37.4742	-40.86301	30.8135
-37.4721	-40.7493	30.8232
-37.4716	-42.3683	30.833
-37.4704	-47.4176	30.8428
-37.4693	-49.779	30.8525
-37.4691	-45.0378	30.8623
-37.4685	-39.4057	30.87207
-37.4673	-39.0036	30.8818
-37.4668	-41.47	30.8916
-37.4654	-47.495	30.9014
-37.465	-46.8042	30.9111
-37.465	-46.83543	30.9209
-37.4637	-40.8499	30.9307
-37.46254	-40.1216	30.94043
-37.4631	-43.16254	30.9502
-37.461	-44.1392	30.96
-37.4595	-48.8182	30.9697
-37.4594	-44.9469	30.9795
-37.459	-43.0246	30.9893
-37.4579	-40.0518	30.999
-37.4577	-37.6392	31.0088
-37.4558	-46.9619	31.0186
-37.4553	-45.9857	31.02832
-37.4547	-46.2914	31.0381
-37.4546	-44.7159	31.0479
-37.4525	-43.2939	31.0576
-37.4517	-43.0017	31.0674
-37.4516	-41.01704	31.0771
-37.4508	-44.3038	31.0869
-37.4488	-46.8719	31.09668
-37.4493	-45.3621	31.1064
-37.4484	-44.2755	31.1162
-37.4479	-39.9799	31.126
-37.4464	-44.4809	31.1357
-37.4456	-45.2014	31.1455
-37.4448	-45.4536	31.1553
-37.4444	-47.74453	31.165
-37.4426	-45.8331	31.1748
-37.4424	-44.6123	31.18457
-37.4419	-41.718	31.1943
-37.441	-40.3396	31.2041
-37.441	-46.0386	31.2139
-37.4388	-47.0439	31.2236
-37.4385	-45.7615	31.2334