File: data/processed_data_files/tensile/0.254_hd_dimension_typeiv_090_r(5).dat
MTS793|BTW|ENU|1|2|.|/|:|1|0|0|A

Data Header:			0.254_hd_dimension_typeiv_090_r0			Time:	20.01709	s	4/14/2019 12:33:00 AM
Data Acquisition:	Timed
Station Name:	ft40.cfg
Test File Name:	monotonic_0.2540_typeiv_hd_090_dimension.tst
Displacement	Force	Running Time
mm	N	s
-40.04084	-33.1432	0.0224609
-40.0403	-27.40803	0.0419922
-40.0409	-30.99436	0.0615234
-40.0402	-33.4034	0.0810547
-40.04	-30.133	0.100586
-40.0375	-26.3635	0.120117
-40.0365	-32.538	0.139648
-40.0351	-28.1994	0.15918
-40.0329	-23.0451	0.178711
-40.0313	-24.9417	0.198242
-40.0303	-26.2471	0.217773
-40.0275	-25.1316	0.237305
-40.0263	-23.25688	0.256836
-40.0247	-22.66913	0.276367
-40.0234	-19.0823	0.295898
-40.0225	-19.2124	0.31543
-40.01881	-21.4382	0.334961
-40.0175	-18.6187	0.354492
-40.0163	-13.64348	0.374023
-40.0153	-19.9204	0.393555
-40.0138	-15.8364	0.413086
-40.0116	-9.47258	0.432617
-40.0103	-13.0352	0.452148
-40.0077	-15.9046	0.47168
-40.007	-6.50174	0.491211
-40.00573	-10.1694	0.510742
-40.0035	-9.56077	0.530273
-40.0022	-5.66663	0.549805
-40.0004	-4.90002	0.569336
-40.00024	-11.6803	0.588867
-39.9981	0.00932939	0.608398
-39.9958	-2.10911	0.62793
-39.99403	-6.92822	0.647461
-39.993	-2.98026	0.666992
-39.9907	1.84184	0.686523
-39.9889	-5.03125	0.706055
-39.988	0.099527	0.725586
-39.9865	3.92798	0.745117
-39.9836	0.91146	0.764648
-39.9827	1.8782	0.78418
-39.9813	6.55818	0.803711
-39.9802	3.0593	0.823242
-39.9786	4.3908	0.842773
-39.976	12.7766	0.862305
-39.9742	9.60101	0.881836
-39.9736	9.31447	0.901367
-39.9714	9.31105	0.920898
-39.9694	12.629	0.94043
-39.9684	10.4613	0.959961
-39.9672	14.6353	0.979492
-39.9651	14.9527	0.999023
-39.9629	14.367	1.01855
-39.9618	13.5345	1.03809
-39.9599	22.2327	1.05762
-39.958	17.2276	1.07715
-39.9562	17.18507	1.09668
-39.9539	23.8544	1.11621
-39.9529	23.6627	1.13574
-39.9522	16.4451	1.15527
-39.9503	26.4767	1.1748
-39.9483	23.9809	1.19434
-39.9477	24.0277	1.21387
-39.9448	28.8917	1.2334
-39.9435	29.2913	1.25293
-39.9413	20.9267	1.27246
-39.9399	31.1886	1.29199
-39.93821	32.95697	1.31152
-39.9375	29.5286	1.33105
-39.9355	30.1297	1.35059
-39.9338	34.92815	1.37012
-39.9322	30.8831	1.38965
-39.9299	33.8569	1.40918
-39.9288	39.1224	1.42871
-39.9277	36.2969	1.44824
-39.9253	35.4597	1.46777
-39.9241	41.6387	1.4873
-39.9224	41.1393	1.50684
-39.9206	37.1179	1.52637
-39.91938	44.8683	1.5459
-39.9178	45.9468	1.56543
-39.9171	42.72184	1.58496
-39.9152	43.1899	1.60449
-39.9129	49.9746	1.62402
-39.9118	45.1111	1.64355
-39.9094	48.9961	1.66309
-39.9074	53.1921	1.68262
-39.90567	50.795	1.70215
-39.9042	45.0727	1.72168
-39.9022	57.4807	1.74121
-39.9023	51.1077	1.76074
-39.8991	50.2106	1.78027
-39.8986	57.43	1.7998
-39.8973	58.6155	1.81934
-39.8937	50.6136	1.83887
-39.8934	58.7435	1.8584
-39.8918	60.5375	1.87793
-39.8899	57.0477	1.89746
-39.888	61.4964	1.91699
-39.88728	63.3148	1.93652
-39.8861	56.1481	1.95605
-39.88419	62.8868	1.97559
-39.882	68.2486	1.99512
-39.8804	62.9815	2.01465
-39.87941	63.9088	2.03418
-39.8766	68.5495	2.05371
-39.875	66.7413	2.07324
-39.8738	66.1325	2.09277
-39.8729	71.7689	2.1123
-39.8702	72.5256	2.13184
-39.8682	70.2761	2.15137
-39.86813	72.6207	2.1709
-39.8672	76.6415	2.19043
-39.8642	69.9889	2.20996
-39.862	76.602	2.22949
-39.8612	79.0748	2.24902
-39.859	77.0095	2.26855
-39.8574	73.4978	2.28809
-39.8554	82.4935	2.30762
-39.8541	77.4563	2.32715
-39.85326	80.74279	2.34668
-39.85104	86.0513	2.36621
-39.8495	83.2694	2.38574
-39.8474	78.1381	2.40527
-39.8472	90.0571	2.4248
-39.8441	85.4907	2.44434
-39.8428	83.9377	2.46387
-39.8413	89.49353	2.4834
-39.8394	92.6725	2.50293
-39.8382	83.8282	2.52246
-39.8367	92.23127	2.54199
-39.83527	92.7968	2.56152
-39.832	89.4926	2.58105
-39.8323	92.6711	2.60059
-39.8301	95.5477	2.62012
-39.8294	90.4839	2.63965
-39.8273	94.0005	2.65918
-39.8256	101.498	2.67871
-39.8242	97.0234	2.69824
-39.8217	96.8521	2.71777
-39.8195	99.6579	2.7373
-39.8198	101.05	2.75684
-39.81649	98.8944	2.77637
-39.8153	106.4958	2.7959
-39.8129	107.512	2.81543
-39.81216	104.8438	2.83496
-39.809	103.096	2.85449
-39.809	110.674	2.87402
-39.80801	104.929	2.89355
-39.8054	108.178	2.91309
-39.8038	115.341	2.93262
-39.8018	110.947	2.95215
-39.8012	105.69	2.97168
-39.79887	117.02	2.99121
-39.7978	113.182	3.01074
-39.7954	112.834	3.03027
-39.7941	119.415	3.0498
-39.79184	117.917	3.06934
-39.7908	111.005	3.08887
-39.789	120.558	3.1084
-39.787	121.189	3.12793
-39.7865	117.995	3.14746
-39.7844	120.97	3.16699
-39.7833	124.432	3.18652
-39.7807	118.934	3.20605
-39.779	121.462	3.22559
-39.7784	127.554	3.24512
-39.7758	124.183	3.26465
-39.7747	127.095	3.28418
-39.773	129.635	3.30371
-39.7712	127.785	3.32324
-39.7689	126.579	3.34277
-39.7684	134.492	3.3623
-39.7661	133.815	3.38184
-39.76442	130.951	3.40137
-39.7646	130.526	3.4209
-39.76107	137.26	3.44043
-39.7597	131.02	3.45996
-39.759	137.143	3.47949
-39.7561	138.898	3.49902
-39.7537	136.087	3.51855
-39.7528	134.741	3.53809
-39.7529	145.678	3.55762
-39.74942	137.6	3.57715
-39.7475	139.163	3.59668
-39.7467	147.411	3.61621
-39.7461	143.213	3.63574
-39.7454	137.863	3.65527
-39.7426	148.386	3.6748
-39.7406	146.385	3.69434
-39.7391	143.314	3.71387
-39.7377	150.285	3.7334
-39.7359	150.48	3.75293
-39.7341	143.106	3.77246
-39.7324	152.815	3.79199
-39.7304	154.0907	3.81152
-39.7293	148.935	3.83105
-39.728	153.238	3.85059
-39.7268	155.796	3.87012
-39.7238	152.185	3.88965
-39.7227	152.482	3.90918
-39.7212	159.6176	3.92871
-39.7186	157.138	3.94824
-39.7174	158.511	3.96777
-39.7154	159.478	3.9873
-39.7135	160.796	4.00684
-39.7127	157.386	4.02637
-39.7124	163.41	4.0459
-39.7091	164.543	4.06543
-39.708	161.822	4.08496
-39.7071	160.654	4.10449
-39.7045	169.641	4.12402
-39.703	164.257	4.14355
-39.7007	166.967	4.16309
-39.69968	170.876	4.18262
-39.6976	168.31	4.20215
-39.6959	165.671	4.22168
-39.69595	176.456	4.24121
-39.6935	171.016	4.26074
-39.6914	170.491	4.28027
-39.6902	176.659	4.2998
-39.6883	177.155	4.31934
-39.6867	169.391	4.33887
-39.6852	178.646	4.3584
-39.6834	178.816	4.37793
-39.683	176.011	4.39746
-39.6794	180.746	4.41699
-39.6784	182.44	4.43652
-39.6772	175.033	4.45605
-39.6755	180.335	4.47559
-39.6737	187.078	4.49512
-39.6714	181.915	4.51465
-39.6702	181.659	4.53418
-39.6695	186.208	4.55371
-39.6676	186.996	4.57324
-39.6655	184.11	4.59277
-39.6648	190.776	4.6123
-39.6625	190.025	4.63184
-39.6607	189.688	4.65137
-39.6596	190.467	4.6709
-39.6579	196.602	4.69043
-39.6564	188.549	4.70996
-39.6536	193.877	4.72949
-39.65136	198.558	4.74902
-39.6513	193.858	4.76855
-39.6493	191.144	4.78809
-39.6484	201.155	4.80762
-39.6458	197.463	4.82715
-39.6445	197.824	4.84668
-39.6426	202.379	4.86621
-39.6422	201.944	4.88574
-39.6396	195.748	4.90527
-39.6381	207.8269	4.9248
-39.63755	204.607	4.94434
-39.6352	201.6916	4.96387
-39.6328	207.939	4.9834
-39.632	208.924	5.00293
-39.6312	201.783	5.02246
-39.6283	208.165	5.04199
-39.62809	211.428	5.06152
-39.6251	206.6	5.08105
-39.6238	211.764	5.10059
-39.6217	212.1852	5.12012
-39.62048	208.884	5.13965
-39.6187	211.775	5.15918
-39.6174	218.3396	5.17871
-39.6162	216.458	5.19824
-39.6144	213.091	5.21777
-39.613	216.779	5.2373
-39.6098	220.352	5.25684
-39.6092	216.381	5.27637
-39.6078	222.366	5.2959
-39.6049	223.376	5.31543
-39.6044	222.049	5.33496
-39.6022	221.362	5.35449
-39.6015	228.67	5.37402
-39.5992	221.1738	5.39355
-39.5976	225.221	5.41309
-39.596	231.577	5.43262
-39.5948	227.095	5.45215
-39.5916	220.973	5.47168
-39.5903	233.445	5.49121
-39.5891	229.049	5.51074
-39.5873	228.583	5.53027
-39.5861	235.207	5.5498
-39.5849	232.974	5.56934
-39.582	227.851	5.58887
-39.58263	236.69	5.6084
-39.5791	238.918	5.62793
-39.5795	231.4	5.64746
-39.5754	236.242	5.66699
-39.575	240.192	5.68652
-39.5728	233.724	5.70605
-39.5721	237.4964	5.72559
-39.57103	244.95	5.74512
-39.5677	240.641	5.76465
-39.567	240.771	5.78418
-39.5652	244.048	5.80371
-39.56374	242.316	5.82324
-39.5627	240.675	5.84277
-39.5601	249.685	5.8623
-39.5585	248.428	5.88184
-39.5567	245.2442	5.90137
-39.5556	245.972	5.9209
-39.553	252.727	5.94043
-39.5522	247.176	5.95996
-39.54953	252.128	5.97949
-39.5498	254.682	5.99902
-39.5468	251.924	6.01855
-39.5455	248.299	6.03809
-39.5438	259.701	6.05762
-39.5417	252.911	6.07715
-39.541	253.165	6.09668
-39.5387	263.081	6.11621
-39.5369	258.557	6.13574
-39.5366	251.983	6.15527
-39.5338	262.36	6.1748
-39.5341	261.649	6.19434
-39.52993	257.915	6.21387
-39.5296	263.974	6.2334
-39.5274	265.022	6.25293
-39.52634	257.493	6.27246
-39.52383	265.958	6.29199
-39.5221	270.487	6.31152
-39.5205	263.195	6.33105
-39.5197	266.74	6.35059
-39.5169	269.874	6.37012
-39.5159	267.807	6.38965
-39.5151	266.077	6.40918
-39.5126	273.991	6.42871
-39.5113	271.571	6.44824
-39.50946	272.1424	6.46777
-39.5081	274.363	6.4873
-39.5058	274.845	6.50684
-39.5041	270.412	6.52637
-39.5027	278.517	6.5459
-39.50251	278.535	6.56543
-39.4994	276.872	6.58496
-39.4992	274.524	6.60449
-39.49609	285.422	6.62402
-39.4948	277.697	6.64355
-39.4935	280.5	6.66309
-39.492	285.028	6.68262
-39.4902	280.503	6.70215
-39.4882	278.527	6.72168
-39.4873	291.356	6.74121
-39.4854	284.061	6.76074
-39.48378	283.26	6.78027
-39.4818	290.592	6.7998
-39.4807	289.041	6.81934
-39.4785	282.069	6.83887
-39.4772	291.474	6.8584
-39.4752	292.203	6.87793
-39.4728	289.404	6.89746
-39.4723	294.195	6.91699
-39.4708	292.361	6.93652
-39.4692	289.656	6.95605
-39.4681	294.19	6.97559
-39.4668	300.597	6.99512
-39.4645	294.903	7.01465
-39.4624	295.879	7.03418
-39.4613	298.882	7.05371
-39.4584	298.841	7.07324
-39.4583	295.231	7.09277
-39.4554	303.272	7.1123
-39.45414	301.1156	7.13184
-39.4523	302.0878	7.15137
-39.451	301.1048	7.1709
-39.4499	306.821	7.19043
-39.4482	299.306	7.20996
-39.4464	307.8172	7.22949
-39.4446	311.311	7.24902
-39.44249	306.53	7.26855
-39.442	301.503	7.28809
-39.4395	312.9971	7.30762
-39.438	307.387	7.32715
-39.4356	308.126	7.34668
-39.4354	314.3049	7.36621
-39.4328	309.547	7.38574
-39.4322	307.523	7.40527
-39.4299	316.597	7.4248
-39.4281	312.957	7.44434
-39.4259	310.875	7.46387
-39.4256	319.138	7.4834
-39.424	318.043	7.50293
-39.4209	312.483	7.52246
-39.4193	318.141	7.54199
-39.4183	320.696	7.56152
-39.4189	317.988	7.58105
-39.4157	321.436	7.60059
-39.4135	322.057	7.62012
-39.4114	318.686	7.63965
-39.4102	320.3959	7.65918
-39.4086	328.276	7.67871
-39.40712	323.1918	7.69824
-39.4054	322.044	7.71777
-39.4041	325.31	7.7373
-39.4025	328.004	7.75684
-39.4002	322.241	7.77637
-39.3985	329.36	7.7959
-39.3982	331.2728	7.81543
-39.395	329.11	7.83496
-39.3933	328.855	7.85449
-39.3933	336.373	7.87402
-39.3922	327.53	7.89355
-39.3886	332.073	7.91309
-39.388	338.982	7.93262
-39.3862	332.3988	7.95215
-39.3844	328.409	7.97168
-39.38258	339.275	7.99121
-39.3808	335.833	8.01074
-39.37915	334.938	8.03027
-39.3786	340.806	8.0498
-39.37672	338.695	8.06934
-39.3746	334.255	8.08887
-39.3731	343.629	8.1084
-39.3702	344.83	8.12793
-39.3686	336.681	8.14746
-39.3692	344.8797	8.16699
-39.3669	346.24	8.18652
-39.3649	340.735	8.20605
-39.3633	342.973	8.22559
-39.3626	349.357	8.24512
-39.36	346.147	8.26465
-39.3595	347.824	8.28418
-39.357	349.4892	8.30371
-39.355	349.329	8.32324
-39.3531	346.054	8.34277
-39.3506	356.009	8.3623
-39.3496	353.93	8.38184
-39.3488	348.552	8.40137
-39.3467	350.35	8.4209
-39.3468	357.549	8.44043
-39.3451	349.726	8.45996
-39.3423	357.258	8.47949
-39.34182	357.172	8.49902
-39.33913	355.576	8.51855
-39.3366	353.579	8.53809
-39.3351	362.982	8.55762
-39.335	356.134	8.57715
-39.3324	356.762	8.59668
-39.3311	363.305	8.61621
-39.3295	361.103	8.63574
-39.3272	354.498	8.65527
-39.3255	363.948	8.6748
-39.3239	365.506	8.69434
-39.3224	359.96	8.71387
-39.3208	367.359	8.7334
-39.3206	366.372	8.75293
-39.3183	361.019	8.77246
-39.3144	368.251	8.79199
-39.3137	371.94	8.81152
-39.3135	364.1795	8.83105
-39.3115	369.684	8.85059
-39.3096	371.715	8.87012
-39.308	370.437	8.88965
-39.3056	367.648	8.90918
-39.3054	375.611	8.92871
-39.3028	373.045	8.94824
-39.3017	372.028	8.96777
-39.299	374.44	8.9873
-39.2979	376.422	9.00684
-39.2963	370.514	9.02637
-39.2948	379.302	9.0459
-39.2931	380.482	9.06543
-39.2917	375.012	9.08496
-39.2904	375.196	9.10449
-39.2887	383.318	9.12402
-39.2861	378.495	9.14355
-39.285	380.759	9.16309
-39.283	385.674	9.18262
-39.2825	381.311	9.20215
-39.2804	377.229	9.22168
-39.2784	388.666	9.24121
-39.27702	382.33	9.26074
-39.2747	380.4671	9.28027
-39.2735	389.201	9.2998
-39.2717	388.486	9.31934
-39.2715	380.893	9.33887
-39.2689	388.568	9.3584
-39.2671	390.588	9.37793
-39.2657	385.173	9.39746
-39.2644	390.861	9.41699
-39.2631	390.991	9.43652
-39.2614	385.664	9.45605
-39.2583	390.672	9.47559
-39.2577	397.129	9.49512
-39.2551	390.868	9.51465
-39.2539	390.947	9.53418
-39.2516	394.498	9.55371
-39.2502	396.0806	9.57324
-39.2491	389.7601	9.59277
-39.2483	397.88	9.6123
-39.2466	397.67	9.63184
-39.2446	394.706	9.65137
-39.2429	395.942	9.6709
-39.2399	400.1073	9.69043
-39.2401	392.193	9.70996
-39.2372	400.4884	9.72949
-39.2367	403.342	9.74902
-39.23452	398.348	9.76855
-39.2333	396.369	9.78809
-39.231	407.594	9.80762
-39.2304	399.52	9.82715
-39.2293	401.138	9.84668
-39.2269	407.405	9.86621
-39.2248	402.121	9.88574
-39.223	399.411	9.90527
-39.22023	410.664	9.9248
-39.2204	407.881	9.94434
-39.2183	402.009	9.96387
-39.2165	409.942	9.9834
-39.2145	409.415	10.00293
-39.213	402.5174	10.0225
-39.2124	408.36	10.042
-39.2108	413.393	10.0615
-39.209	406.764	10.0811
-39.20792	411.148	10.1006
-39.2051	410.991	10.1201
-39.2036	410.217	10.1396
-39.2028	409.021	10.15918
-39.20052	418.387	10.1787
-39.199	413.325	10.1982
-39.1963	411.104	10.2178
-39.1957	413.506	10.2373
-39.1931	416.55	10.2568
-39.1921	411.854	10.2764
-39.1923	416.936	10.2959
-39.1893	418.7002	10.31543
-39.1876	415.008	10.335
-39.1842	415.592	10.3545
-39.183	425.105	10.374
-39.1828	415.417	10.3936
-39.1806	418.82	10.4131
-39.1793	424.305	10.4326
-39.1779	419.673	10.4521
-39.1765	413.091	10.47168
-39.17448	425.467	10.4912
-39.1732	421.336	10.5107
-39.1715	420.275	10.5303
-39.1698	426.9743	10.5498
-39.1677	423.566	10.5693
-39.1656	416.837	10.5889
-39.16515	426.619	10.6084
-39.1633	427.813	10.62793
-39.1607	420.21	10.6475
-39.1601	425.895	10.667
-39.1589	428.597	10.6865
-39.1568	422.585	10.7061
-39.1545	424.856	10.7256
-39.1539	431.297	10.7451
-39.1513	427.861	10.7646
-39.1488	427.837	10.78418
-39.148	429.068	10.8037
-39.146	429.164	10.8232
-39.1446	425.348	10.8428
-39.1442	434.696	10.8623
-39.14072	431.774	10.8818
-39.1406	428.423	10.9014
-39.1389	429.611	10.9209
-39.1367	435.43	10.94043
-39.1342	428.246	10.96
-39.1342	432.418	10.9795
-39.1314	435.434	10.999
-39.13036	429.938	11.0186
-39.1295	429.9924	11.0381
-39.1269	439.949	11.0576
-39.1255	431.095	11.0771
-39.1236	433.452	11.09668
-39.1229	438.769	11.1162
-39.1201	435.275	11.1357
-39.1188	429.358	11.1553
-39.1175	438.19	11.1748
-39.116	438.953	11.1943
-39.1131	432.512	11.2139
-39.1125	438.968	11.2334
-39.1107	437.198	11.25293
-39.1089	431.931	11.2725
-39.1081	438.438	11.292
-39.10627	441.024	11.3115
-39.1046	434.811	11.3311
-39.1029	438.735	11.3506
-39.1003	440.696	11.3701
-39.1002	437.831	11.3896
-39.0972	436.441	11.40918
-39.0957	443.731	11.4287
-39.094	439.899	11.4482
-39.0929	438.313	11.4678
-39.0911	441.075	11.4873
-39.0898	442.359	11.5068
-39.0879	436.434	11.5264
-39.0865	443.227	11.5459
-39.0839	445.205	11.56543
-39.08416	439.148	11.585
-39.0811	438.319	11.6045
-39.0793	446.8656	11.624
-39.0775	439.67	11.6436
-39.0784	443.219	11.6631
-39.0739	446.045	11.6826
-39.0729	441.469	11.7021
-39.0724	436.434	11.72168
-39.0684	447.517	11.7412
-39.0674	442.88	11.7607
-39.0661	439.621	11.7803
-39.0655	446.895	11.7998
-39.0644	445.031	11.8193
-39.0611	437.956	11.8389
-39.0597	445.348	11.8584
-39.0583	447.286	11.87793
-39.05666	442.861	11.8975
-39.05616	446.757	11.917
-39.0541	445.637	11.9365
-39.0521	441.657	11.9561
-39.0506	443.8739	11.9756
-39.0487	450.164	11.9951
-39.0464	443.036	12.0146
-39.04631	442.7948	12.03418
-39.0447	446.013	12.0537
-39.0419	447.723	12.0732
-39.0409	442.5629	12.0928
-39.03854	448.202	12.1123
-39.0375	447.967	12.1318
-39.0358	445.642	12.1514
-39.0338	446.64	12.1709
-39.03299	449.938	12.19043
-39.0311	440.899	12.21
-39.0296	447.2623	12.2295
-39.0283	451.084	12.249
-39.0268	444.929	12.2686
-39.0239	443.061	12.2881
-39.0232	453.397	12.3076
-39.0209	446.0849	12.3271
-39.0207	446.628	12.34668
-39.0183	450.419	12.3662
-39.0169	445.8252	12.3857
-39.0143	441.614	12.4053
-39.0121	450.578	12.4248
-39.0122	447.226	12.4443
-39.0099	442.8154	12.4639
-39.0084	450.086	12.4834
-39.0076	447.67	12.50293
-39.0051	442.077	12.5225
-39.0038	445.769	12.542
-39.0021	450.4985	12.5615
-39.00103	443.732	12.5811
-38.99828	449.41	12.6006
-38.9979	448.454	12.6201
-38.9954	445.212	12.6396
-38.9944	444.261	12.65918
-38.9924	453.803	12.6787
-38.9913	448.37	12.6982
-38.9892	444.901	12.7178
-38.9869	447.111	12.7373
-38.986	450.218	12.7568
-38.9849	442.883	12.7764
-38.9829	449.476	12.7959
-38.9801	449.285	12.81543
-38.9797	444.651	12.835
-38.978	445.212	12.8545
-38.9764	452.344	12.874
-38.9742	442.241	12.8936
-38.9719	445.449	12.9131
-38.9721	451.614	12.9326
-38.96822	446.562	12.9521
-38.9674	439.773	12.97168
-38.9663	449.7998	12.9912
-38.9641	445.932	13.0107
-38.9628	443.891	13.0303
-38.9615	450.076	13.0498
-38.9597	445.203	13.0693
-38.95863	439.279	13.0889
-38.95686	448.91	13.1084
-38.9542	450.028	13.12793
-38.9527	443.5751	13.1475
-38.9511	446.01	13.167
-38.9492	446.623	13.1865
-38.9492	441.958	13.2061
-38.94585	444.128	13.2256
-38.9439	447.5282	13.2451
-38.9451	441.719	13.2646
-38.9413	442.632	13.28418
-38.9399	444.41	13.3037
-38.9385	445.124	13.3232
-38.9376	441.023	13.3428
-38.9344	448.529	13.3623
-38.9325	447.576	13.3818
-38.93121	439.933	13.4014
-38.9314	442.3439	13.4209
-38.9292	446.395	13.44043
-38.927	439.833	13.46
-38.9254	443.497	13.4795
-38.9235	445.141	13.499
-38.9222	440.265	13.5186
-38.9197	438.515	13.5381
-38.9199	448.116	13.5576
-38.9174	439.302	13.5771
-38.9154	440.383	13.59668
-38.9145	446.574	13.6162
-38.9127	441.784	13.6357
-38.9107	436.061	13.6553
-38.9084	442.665	13.6748
-38.9056	442.628	13.6943
-38.9053	436.798	13.7139
-38.9039	443.114	13.7334
-38.9023	440.042	13.75293
-38.9019	434.215	13.7725
-38.8993	440.51	13.792
-38.8978	444.663	13.8115
-38.8962	436.603	13.8311
-38.8948	438.596	13.8506
-38.8923	440.79	13.8701
-38.8909	437.936	13.8896
-38.8895	436.915	13.90918
-38.8875	443.363	13.9287
-38.8865	438.344	13.9482
-38.8839	438.026	13.9678
-38.8838	438.8667	13.9873
-38.8815	439.843	14.0068
-38.87986	432.183	14.0264
-38.8789	439.433	14.0459
-38.8765	440.383	14.06543
-38.8749	435.332	14.085
-38.8719	433.3364	14.1045
-38.871	441.3046	14.124
-38.8691	434.291	14.1436
-38.8689	436.819	14.1631
-38.8676	441.556	14.1826
-38.8648	434.343	14.2021
-38.8626	430.7514	14.22168
-38.86269	439.928	14.2412
-38.8597	435.869	14.2607
-38.8585	433.307	14.2803
-38.857	439.471	14.2998
-38.8546	437.431	14.3193
-38.85339	430.172	14.3389
-38.8514	435.969	14.3584
-38.8504	437.411	14.37793
-38.8479	430.721	14.3975
-38.8471	437.066	14.417
-38.844	434.851	14.4365
-38.8424	430.437	14.4561
-38.84206	434.222	14.4756
-38.8408	439.948	14.4951
-38.8382	434.175	14.5146
-38.8377	433.197	14.53418
-38.8363	436.054	14.5537
-38.83453	435.889	14.5732
-38.8319	432.135	14.5928
-38.831	436.709	14.6123
-38.8292	433.469	14.6318
-38.8272	431.838	14.6514
-38.8252	432.6199	14.6709
-38.8239	438.022	14.69043
-38.8231	428.694	14.71
-38.8207	434.9328	14.7295
-38.8187	439.229	14.749
-38.8179	431.1044	14.7686
-38.8158	428.23	14.7881
-38.8138	437.075	14.8076
-38.814	430.595	14.8271
-38.8109	431.353	14.84668
-38.8097	436.639	14.8662
-38.8073	431.376	14.8857
-38.8063	427.312	14.9053
-38.80505	436.866	14.9248
-38.8033	436.038	14.9443
-38.8017	427.365	14.9639
-38.7996	434.382	14.9834
-38.7986	434.91	15.00293
-38.79586	427.372	15.0225
-38.7958	431.312	15.042
-38.7944	434.119	15.0615
-38.7922	428.947	15.0811
-38.7896	432.764	15.1006
-38.7895	432.829	15.1201
-38.7864	429.295	15.1396
-38.7854	427.417	15.15918
-38.783	434.2966	15.1787
-38.7823	431.46	15.1982
-38.7815	427.825	15.2178
-38.7781	431.828	15.2373
-38.7773	433.4585	15.2568
-38.7772	426.395	15.2764
-38.7741	433.067	15.2959
-38.772	433.89	15.31543
-38.7707	428.794	15.335
-38.76936	428.936	15.3545
-38.7663	434.4614	15.374
-38.76635	425.467	15.3936
-38.7648	428.391	15.4131
-38.76194	433.876	15.4326
-38.7611	429.518	15.4521
-38.7594	424.788	15.47168
-38.7575	433.96	15.4912
-38.7567	428.396	15.5107
-38.7548	427.065	15.5303
-38.7526	433.352	15.5498
-38.75	429.551	15.5693
-38.7504	422.429	15.5889
-38.7471	432.782	15.6084
-38.7466	432.687	15.62793
-38.7449	424.192	15.6475
-38.7441	430.194	15.667
-38.742	429.705	15.6865
-38.7391	426.638	15.7061
-38.7388	426.758	15.7256
-38.7369	431.508	15.7451
-38.7348	426.3685	15.7646
-38.7332	429.5856	15.78418
-38.7322	429.682	15.8037
-38.72963	428.638	15.8232
-38.7282	421.866	15.8428
-38.7269	431.733	15.8623
-38.7245	430.483	15.8818
-38.7238	425.316	15.9014
-38.72097	425.968	15.9209
-38.7207	430.73	15.94043
-38.7191	422.5123	15.96
-38.7165	430.75	15.9795
-38.7151	431.351	15.999
-38.7139	424.33	16.0186
-38.7111	424.08	16.0381
-38.7112	433.79	16.0576
-38.7089	425.526	16.0771
-38.70792	424.002	16.09668
-38.7061	431.302	16.1162
-38.7042	425.4166	16.1357
-38.7031	421.346	16.1553
-38.7008	430.782	16.1748
-38.6986	427.648	16.1943
-38.6975	423.199	16.2139
-38.696	430.2998	16.2334
-38.6943	427.24	16.25293
-38.6933	419.93	16.2725
-38.6916	427.394	16.292
-38.6892	430.831	16.3115
-38.6877	424.034	16.3311
-38.68626	426.649	16.3506
-38.6835	428.538	16.3701
-38.683	427.26	16.3896
-38.6805	424.106	16.40918
-38.6786	430.761	16.4287
-38.6778	426.612	16.4482
-38.6771	425.487	16.4678
-38.6759	426.277	16.4873
-38.6735	429.086	16.5068
-38.67	421.622	16.5264
-38.6699	428.9808	16.5459
-38.6681	429.77	16.56543
-38.6666	424.124	16.585
-38.6641	422.43	16.6045
-38.6631	431.065	16.624
-38.66172	422.996	16.6436
-38.6608	427.371	16.6631
-38.6586	429.849	16.6826
-38.6573	423.946	16.7021
-38.65411	421.74	16.72168
-38.6536	431.662	16.7412
-38.6515	424.861	16.7607
-38.6501	422.2175	16.7803
-38.6485	429.0853	16.7998
-38.6477	427.554	16.8193
-38.6462	419.852	16.8389
-38.6448	427.783	16.8584
-38.6428	428.835	16.87793
-38.64	421.211	16.8975
-38.6387	427.549	16.917
-38.6374	427.107	16.9365
-38.6356	420.295	16.9561
-38.6342	424.953	16.9756
-38.6319	429.817	16.9951
-38.6313	424.1434	17.0146
-38.6289	423.2168	17.03418
-38.6284	425.617	17.0537
-38.6258	425.944	17.0732
-38.6249	422.582	17.0928
-38.6227	428.181	17.1123
-38.6212	426.329	17.1318
-38.6194	424.4	17.1514
-38.6183	424.331	17.1709
-38.6162	428.948	17.19043
-38.616	420.076	17.21
-38.6121	425.024	17.2295
-38.6113	428.889	17.249
-38.6097	423.614	17.2686
-38.60844	421.423	17.2881
-38.6068	429.0376	17.3076
-38.6049	421.698	17.3271
-38.6026	425.326	17.34668
-38.6011	428.778	17.3662
-38.5995	423.7601	17.3857
-38.5986	418.886	17.4053
-38.5959	429.111	17.4248
-38.5946	426.429	17.4443
-38.5927	419.245	17.4639
-38.5918	426.712	17.4834
-38.59	425.799	17.50293
-38.5887	419.091	17.5225
-38.5861	426.266	17.542
-38.5851	427.625	17.5615
-38.583	420.625	17.5811
-38.5831	425.104	17.6006
-38.5795	425.355	17.6201
-38.5792	420.726	17.6396
-38.5776	420.632	17.65918
-38.575	429.182	17.6787
-38.5743	424.921	17.6982
-38.5716	422.848	17.7178
-38.5692	422.707	17.7373
-38.5696	426.692	17.7568
-38.5671	420.506	17.7764
-38.5658	426.865	17.7959
-38.5648	425.801	17.81543
-38.5624	421.493	17.835
-38.5614	422.005	17.8545
-38.5588	429.1731	17.874
-38.5564	421.05	17.8936
-38.55677	421.121	17.9131
-38.5547	427.571	17.9326
-38.552	424.654	17.9521
-38.5509	418.81	17.97168
-38.5494	426.407	17.9912
-38.5479	421.113	18.0107
-38.547	420.617	18.0303
-38.5438	425.818	18.0498
-38.5435	423.28	18.0693
-38.5416	416.096	18.0889
-38.5395	425.186	18.1084
-38.5391	427.137	18.12793
-38.5349	418.447	18.1475
-38.53373	422.7	18.167
-38.5338	425.363	18.1865
-38.5307	419.288	18.2061
-38.5299	421.42	18.2256
-38.5287	427.259	18.2451
-38.52766	421.352	18.2646
-38.5245	423.484	18.28418
-38.52393	424.4537	18.3037
-38.5222	423.231	18.3232
-38.5193	418.995	18.3428
-38.5183	425.807	18.3623
-38.5167	424.352	18.3818
-38.5159	420.19	18.4014
-38.51358	420.772	18.4209
-38.5113	425.58	18.44043
-38.5101	418.91	18.46
-38.50956	425.914	18.4795
-38.5073	425.5	18.499
-38.5054	420.113	18.5186
-38.5043	417.96	18.5381
-38.5028	427.419	18.5576
-38.5	421.526	18.5771
-38.499	419.846	18.59668
-38.4971	427.9321	18.6162
-38.4954	422.411	18.6357
-38.4939	417.569	18.6553
-38.4926	425.499	18.6748
-38.4911	423.166	18.6943
-38.4895	418.924	18.7139
-38.486	426.866	18.7334
-38.486	424.934	18.75293
-38.4856	415.651	18.7725
-38.4834	422.17	18.792
-38.4797	427.527	18.8115
-38.4791	419.186	18.8311
-38.4777	423.1	18.8506
-38.4755	423.254	18.8701
-38.4746	420.601	18.8896
-38.4731	419.838	18.90918
-38.4714	427.775	18.9287
-38.469	421.647	18.9482
-38.4669	419.623	18.9678
-38.4676	423.468	18.9873
-38.4649	424.287	19.0068
-38.46312	419.287	19.0264
-38.4618	424.882	19.0459
-38.4595	425.333	19.06543
-38.4578	421.67	19.085
-38.4584	422.057	19.1045
-38.4542	427.143	19.124
-38.4528	418.62	19.1436
-38.4519	422.588	19.1631
-38.4492	426.779	19.1826
-38.44902	421.03	19.2021
-38.4463	416.633	19.22168
-38.4459	426.066	19.2412
-38.4438	420.767	19.2607
-38.4414	419.702	19.2803
-38.4409	424.17	19.2998
-38.4385	425.139	19.3193
-38.4366	415.989	19.3389
-38.4347	425.835	19.3584
-38.4336	423.01	19.37793
-38.4322	419.405	19.3975
-38.4301	425.44	19.417
-38.4298	424.432	19.4365
-38.4281	417.577	19.4561
-38.4255	418.93	19.4756
-38.4249	425.85	19.4951
-38.421	420.522	19.5146
-38.4205	420.7944	19.53418
-38.4183	422.431	19.5537
-38.4175	420.694	19.5732
-38.41563	418.825	19.5928
-38.414	425.462	19.6123
-38.4132	422.9678	19.6318
-38.41	419.754	19.6514
-38.4096	421.8736	19.6709
-38.4085	425.869	19.69043
-38.40604	417.088	19.71
-38.4038	421.904	19.7295
-38.4031	425.336	19.749
-38.4009	421.053	19.7686
-38.3993	416.807	19.7881
-38.3974	426.14	19.8076
-38.3965	419.43	19.8271
-38.3952	420.111	19.84668
-38.39349	426.587	19.8662
-38.3916	421.444	19.8857
-38.3886	414.345	19.9053
-38.3892	425.062	19.9248
-38.3865	423.544	19.9443
-38.3848	417.506	19.9639
-38.3847	422.389	19.9834
-38.3829	422.974	20.00293
-38.379	422.365	20.0127

Data Header:			0.254_hd_dimension_typeiv_090_r0			Time:	26.2332	s	4/14/2019 12:33:06 AM
Data Acquisition:	Timed
Station Name:	ft40.cfg
Test File Name:	monotonic_0.2540_typeiv_hd_090_dimension.tst
Displacement	Force	Running Time
mm	N	s
-38.3801	415.632	20.0225
-38.37846	417.832	20.0322
-38.37735	423.005	20.042
-38.3791	426.509	20.0518
-38.3762	424.933	20.0615
-38.3767	418.264	20.0713
-38.3746	416.663	20.0811
-38.3749	418.938	20.09082
-38.3733	419.748	20.1006
-38.3738	422.567	20.1104
-38.3715	425.748	20.1201
-38.3716	422.773	20.1299
-38.3707	416.984	20.1396
-38.3699	418.283	20.1494
-38.369	419.286	20.15918
-38.3677	423.6272	20.1689
-38.3672	423.235	20.1787
-38.3658	421.128	20.1885
-38.3654	422.03	20.1982
-38.3645	418.434	20.208
-38.3633	419.4975	20.2178
-38.3632	419.192	20.2275
-38.36153	420.773	20.2373
-38.3606	423.749	20.24707
-38.361	421.0993	20.2568
-38.36	420.5433	20.2666
-38.3592	416.791	20.2764
-38.3578	418.061	20.2861
-38.3574	424.544	20.2959
-38.3562	422.346	20.3057
-38.3562	423.646	20.31543
-38.3556	422.697	20.3252
-38.3541	417.581	20.335
-38.3528	419.158	20.3447
-38.3516	417.129	20.3545
-38.3522	424.859	20.3643
-38.3507	426.7457	20.374
-38.35	421.637	20.3838
-38.3491	418.108	20.3936
-38.348	416.976	20.40332
-38.3473	420.343	20.4131
-38.34679	421.229	20.4229
-38.3458	424.078	20.4326
-38.345	423.664	20.4424
-38.3447	420.476	20.4521
-38.3429	416.811	20.4619
-38.343	417.225	20.47168
-38.3427	419.604	20.4814
-38.3405	425.237	20.4912
-38.3404	424.189	20.501
-38.3384	420.676	20.5107
-38.3386	416.452	20.5205
-38.3391	419.093	20.5303
-38.3374	418.19	20.54
-38.3358	423.362	20.5498
-38.3359	422.958	20.55957
-38.33485	422.2926	20.5693
-38.33371	419.393	20.5791
-38.3309	413.228	20.5889
-38.3321	418.817	20.5986
-38.3301	422.72	20.6084
-38.3306	425.396	20.6182
-38.3296	424.03	20.62793
-38.3283	415.401	20.6377
-38.3277	417.307	20.6475
-38.328	418.041	20.6572
-38.3263	420.873	20.667
-38.3249	423.895	20.6768
-38.3246	422.136	20.6865
-38.3242	422.262	20.6963
-38.3231	414.505	20.7061
-38.3228	416.3894	20.71582
-38.3217	420.405	20.7256
-38.3204	423.196	20.7354
-38.3196	423.261	20.7451
-38.3182	420.204	20.7549
-38.3177	417.069	20.7646
-38.3171	418.872	20.7744
-38.3165	418.63	20.78418
-38.3153	419.805	20.7939
-38.3155	422.673	20.8037
-38.3142	424.298	20.8135
-38.3135	420.085	20.8232
-38.3131	416.794	20.833
-38.3121	417.049	20.8428
-38.3113	421.649	20.8525
-38.31	422.353	20.8623
-38.3094	420.173	20.87207
-38.3083	420.3381	20.8818
-38.3084	418.469	20.8916
-38.307	417.933	20.9014
-38.3059	417.555	20.9111
-38.3059	419.033	20.9209
-38.3044	424.817	20.9307
-38.3034	421.539	20.94043
-38.3032	420.395	20.9502
-38.302	416.929	20.96
-38.3005	416.518	20.9697
-38.3014	421.043	20.9795
-38.3001	418.9476	20.9893
-38.2992	423.692	20.999
-38.2984	421.272	21.0088
-38.297	417.076	21.0186
-38.2963	417.464	21.02832
-38.2955	414.338	21.0381
-38.2951	422.891	21.0479
-38.2937	425.031	21.0576
-38.293	422.9386	21.0674
-38.2922	419.593	21.0771
-38.2922	415.492	21.0869
-38.2907	418.862	21.09668
-38.2895	419.198	21.1064
-38.2886	423.865	21.1162
-38.28754	423.85	21.126
-38.2875	421.824	21.1357
-38.2856	416.342	21.1455
-38.2861	414.1398	21.1553
-38.2851	418.054	21.165
-38.2837	425.156	21.1748
-38.2842	423.468	21.18457
-38.2828	420.988	21.1943
-38.2817	416.781	21.2041
-38.2805	415.706	21.2139
-38.27943	418.153	21.2236
-38.2794	423.108	21.2334
-38.278	422.144	21.2432
-38.2772	422.436	21.25293
-38.27692	419.106	21.2627
-38.2762	413.223	21.2725
-38.2749	416.764	21.2822
-38.2748	419.424	21.292
-38.2735	424.374	21.3018
-38.2724	423.159	21.3115
-38.272	417.475	21.3213
-38.2697	418.006	21.3311
-38.2714	415.977	21.34082
-38.27	419.56	21.3506
-38.26757	420.707	21.3604
-38.2675	421.13	21.3701
-38.2672	422.346	21.3799
-38.266	414.749	21.3896
-38.2647	415.588	21.3994
-38.2649	418.306	21.40918
-38.2641	420.79	21.4189
-38.2625	423.96	21.4287
-38.2605	419.839	21.4385
-38.26049	417.118	21.4482
-38.26	417.935	21.458
-38.2597	415.794	21.4678
-38.259	418.62	21.4775
-38.2578	419.486	21.4873
-38.2572	422.708	21.49707
-38.2564	419.106	21.5068
-38.2555	417.464	21.5166
-38.2551	415.823	21.5264
-38.2535	419.604	21.5361
-38.2536	421.658	21.5459
-38.2514	421.3161	21.5557
-38.25103	419.666	21.56543
-38.25095	419.231	21.5752
-38.2502	418.102	21.585
-38.24786	413.8	21.5947
-38.2473	416.57	21.6045
-38.2483	421.709	21.6143
-38.2463	422.575	21.624
-38.2453	420.498	21.6338
-38.2452	414.6853	21.6436
-38.2439	413.8428	21.65332
-38.2433	418.0965	21.6631
-38.2417	416.78	21.6729
-38.2419	425.386	21.6826
-38.2407	421.612	21.6924
-38.24	418.44	21.7021
-38.2398	416	21.7119
-38.2384	412.73	21.72168
-38.2376	418.373	21.7314
-38.237	423.187	21.7412
-38.2369	422.673	21.751
-38.2347	419.154	21.7607
-38.23455	412.4614	21.7705
-38.23394	416.796	21.7803
-38.23299	417.352	21.79
-38.2314	422.214	21.7998
-38.2313	422.8555	21.80957
-38.2301	421.25	21.8193
-38.2287	416.7597	21.8291
-38.22781	412.906	21.8389
-38.2273	415.44	21.8486
-38.228	422.408	21.8584
-38.2266	423.755	21.8682
-38.2259	421.59	21.87793
-38.2237	417.485	21.8877
-38.2238	415.9921	21.8975
-38.2225	415.673	21.9072
-38.2217	418.365	21.917
-38.2211	420.27	21.9268
-38.2204	421.855	21.9365
-38.2191	419.9863	21.9463
-38.2195	412.901	21.9561
-38.2179	415.462	21.96582
-38.2173	416.855	21.9756
-38.2162	423.378	21.9854
-38.2156	422.5123	21.9951
-38.2165	418.918	22.0049
-38.2138	416.227	22.0146
-38.213	416.764	22.0244
-38.2126	417.653	22.03418
-38.2117	418.381	22.0439
-38.2124	418.751	22.0537
-38.2099	423.583	22.0635
-38.2092	415.797	22.0732
-38.208	414.3	22.083
-38.2085	415.907	22.0928
-38.2071	417.062	22.1025
-38.2051	423.061	22.1123
-38.2042	418.601	22.12207
-38.2029	418.604	22.1318
-38.2031	417.969	22.1416
-38.2037	416.3356	22.1514
-38.2023	416.83	22.1611
-38.20042	417.6	22.1709
-38.1993	422.678	22.1807
-38.198	420.99	22.19043
-38.1987	416.434	22.2002
-38.1983	415.664	22.21
-38.19664	415.363	22.2197
-38.1958	419.351	22.2295
-38.1956	418.95	22.2393
-38.1942	422.077	22.249
-38.1935	422.107	22.2588
-38.1928	416.881	22.2686
-38.1921	413.196	22.27832
-38.1908	415.744	22.2881
-38.1898	419.596	22.2979
-38.1898	423.257	22.3076
-38.1887	421.906	22.3174
-38.1883	414.048	22.3271
-38.1869	413.937	22.3369
-38.1863	416.64	22.34668
-38.1858	416.865	22.3564
-38.18512	422.443	22.3662
-38.1832	420.9415	22.376
-38.1836	419.104	22.3857
-38.1819	415.31	22.3955
-38.1816	411.748	22.4053
-38.181	417.917	22.415
-38.1794	422.844	22.4248
-38.1788	422.974	22.43457
-38.1781	418.247	22.4443
-38.1778	413.57	22.4541
-38.1772	415.483	22.4639
-38.1765	414.391	22.4736
-38.17458	420.023	22.4834
-38.17403	422.944	22.4932
-38.1739	421.528	22.50293
-38.17289	418.997	22.5127
-38.1722	410.76	22.5225
-38.1711	415.109	22.5322
-38.1698	421.388	22.542
-38.1686	422.139	22.5518
-38.1683	420.613	22.5615
-38.1672	416.8826	22.5713
-38.1673	415.419	22.5811
-38.1652	415.658	22.59082
-38.1651	418.583	22.6006
-38.1634	420.405	22.6104
-38.164	422.826	22.6201
-38.1632	420.044	22.6299
-38.1623	415.087	22.6396
-38.1614	414.065	22.6494
-38.16	416.6994	22.65918
-38.159	420.819	22.6689
-38.15863	419.693	22.6787
-38.1571	417.784	22.6885
-38.1565	417.019	22.6982
-38.1569	415.597	22.708
-38.15575	415.45	22.7178
-38.1551	415.003	22.7275
-38.154	419.293	22.7373
-38.1545	423.452	22.74707
-38.152	416.621	22.7568
-38.15202	415.871	22.7666
-38.1506	412.537	22.7764
-38.1506	417.5907	22.7861
-38.1482	420.119	22.7959
-38.1478	417.736	22.8057
-38.1467	420.278	22.81543
-38.1464	418.578	22.8252
-38.1457	414.843	22.835
-38.1455	414.349	22.8447
-38.145	414.372	22.8545
-38.142	422.698	22.8643
-38.1427	420.8165	22.874
-38.1426	417.5166	22.8838
-38.1409	414.181	22.8936
-38.1402	413.509	22.90332
-38.1387	417.06	22.9131
-38.1385	416.918	22.9229
-38.1382	420.8837	22.9326
-38.1372	421.632	22.9424
-38.1358	416.323	22.9521
-38.135	412.973	22.9619
-38.1359	412.027	22.97168
-38.1339	416.984	22.9814
-38.1315	423.6062	22.9912
-38.13245	420.822	23.001
-38.1304	416.032	23.0107
-38.1304	413.182	23.0205
-38.1293	414.63	23.0303
-38.1286	413.208	23.04
-38.1278	420.335	23.0498
-38.1271	419.806	23.05957
-38.1256	421.219	23.0693
-38.1251	415.005	23.0791
-38.1233	411.103	23.0889
-38.1228	415.404	23.0986
-38.1228	420.628	23.1084
-38.1222	423.325	23.1182
-38.1211	418.181	23.12793
-38.1203	414.402	23.1377
-38.1196	415.7767	23.1475
-38.1203	414.469	23.1572
-38.1181	418.577	23.167
-38.1169	420.734	23.1768
-38.1167	419.335	23.1865
-38.1157	418.483	23.1963
-38.1144	411.33	23.2061
-38.1133	414.891	23.21582
-38.11351	417.762	23.2256
-38.1119	419.63	23.2354
-38.1125	421.089	23.2451
-38.1111	416.578	23.2549
-38.11	414.763	23.2646
-38.1086	415.287	23.2744
-38.1085	412.964	23.28418
-38.1069	418.136	23.2939
-38.10648	418.894	23.3037
-38.1068	419.844	23.3135
-38.1047	416.135	23.3232
-38.1036	412.57	23.333
-38.1022	413.593	23.3428
-38.1024	415.615	23.3525
-38.1019	417.765	23.3623
-38.1018	418.483	23.37207
-38.1001	417.818	23.3818
-38.0995	417.744	23.3916
-38.0985	413.799	23.4014
-38.0979	411.418	23.4111
-38.097	417.683	23.4209
-38.0949	421.247	23.4307
-38.0944	416.544	23.44043
-38.0937	418.187	23.4502
-38.09391	412.579	23.46
-38.0928	413.867	23.4697
-38.0919	420.091	23.4795
-38.0908	415.822	23.4893
-38.0911	420.091	23.499
-38.0895	417.696	23.5088
-38.08889	415.519	23.5186
-38.0883	411.602	23.52832
-38.0872	411.485	23.5381
-38.0856	419.346	23.5479
-38.0857	420.043	23.5576
-38.0852	420.196	23.5674
-38.08437	414.86	23.5771
-38.0831	411.421	23.5869
-38.0821	415.534	23.59668
-38.0811	414.368	23.6064
-38.0814	419.08	23.6162
-38.0792	421.629	23.626
-38.0787	417.61	23.6357
-38.0778	413.903	23.6455
-38.0759	408.358	23.6553
-38.0765	414.472	23.665
-38.0743	421.139	23.6748
-38.0746	419.634	23.68457
-38.0745	417.574	23.6943
-38.0734	412.224	23.7041
-38.072	413.011	23.7139
-38.0715	411.671	23.7236
-38.0717	418.016	23.7334
-38.0704	419.652	23.7432
-38.0687	420.368	23.75293
-38.0683	414.304	23.7627
-38.0668	410.199	23.7725
-38.0666	412.839	23.7822
-38.0664	417.746	23.792
-38.0651	422.153	23.8018
-38.0644	417.329	23.8115
-38.0647	414.932	23.8213
-38.062	414.468	23.8311
-38.0619	412.358	23.84082
-38.06189	414.795	23.8506
-38.0608	416.431	23.8604
-38.0598	419.425	23.8701
-38.06002	418.922	23.8799
-38.057	410.486	23.8896
-38.0576	412.25	23.8994
-38.05666	413.812	23.90918
-38.0559	418.462	23.9189
-38.0558	419.994	23.9287
-38.0545	415.948	23.9385
-38.0528	415.759	23.9482
-38.0524	411.584	23.958
-38.0512	412.526	23.9678
-38.0515	414.275	23.9775
-38.0498	417.739	23.9873
-38.0502	420.015	23.99707
-38.0473	414.484	24.0068
-38.0468	412.231	24.0166
-38.0461	413.232	24.0264
-38.045	412.571	24.0361
-38.04406	416.781	24.0459
-38.0441	416.3252	24.0557
-38.0438	416.741	24.06543
-38.0428	415.86	24.0752
-38.0413	413.679	24.085
-38.0399	410.982	24.0947
-38.0407	414.224	24.1045
-38.0392	417.949	24.1143
-38.0388	418.223	24.124
-38.0384	417.341	24.1338
-38.0368	410.576	24.1436
-38.0359	412.559	24.15332
-38.0348	413.914	24.1631
-38.0344	414.626	24.1729
-38.0341	417.56	24.1826
-38.0322	418.64	24.1924
-38.03196	415.694	24.2021
-38.0314	411.13	24.2119
-38.0298	408.2193	24.22168
-38.0293	415.75	24.2314
-38.0288	418.772	24.2412
-38.0267	418.435	24.251
-38.027	412.43	24.2607
-38.0267	410.04	24.2705
-38.0257	413.596	24.2803
-38.0255	411.668	24.29
-38.024	417.23	24.2998
-38.023	419.666	24.30957
-38.0204	416.481	24.3193
-38.0206	413.44	24.3291
-38.0201	406.9856	24.3389
-38.0195	411.943	24.3486
-38.0188	416.081	24.3584
-38.0173	418.592	24.3682
-38.01685	416.171	24.37793
-38.0159	410.429	24.3877
-38.0156	412.796	24.3975
-38.01416	410.755	24.4072
-38.0131	414.095	24.417
-38.0138	417.469	24.4268
-38.0117	417.627	24.4365
-38.01178	414.413	24.4463
-38.0106	409.137	24.4561
-38.0098	409.131	24.46582
-38.0095	413.598	24.4756
-38.0078	416.872	24.4854
-38.0078	416.122	24.4951
-38.0061	414.396	24.5049
-38.00547	412.948	24.5146
-38.0051	408.777	24.5244
-38.0047	411.568	24.53418
-38.004	413.037	24.5439
-38.0012	417.372	24.5537
-38.0011	417.189	24.5635
-38.0006	409.9519	24.5732
-37.9997	410.85	24.583
-38	409.973	24.5928
-37.9987	413.007	24.6025
-37.998	415.469	24.6123
-37.99646	412.228	24.62207
-37.9961	415.287	24.6318
-37.9958	412.381	24.6416
-37.99435	409.944	24.6514
-37.9935	410.44	24.6611
-37.99226	412.826	24.6709
-37.9921	418.312	24.6807
-37.9911	412.172	24.69043
-37.9904	412.188	24.7002
-37.9882	408.875	24.71
-37.9888	409.514	24.7197
-37.9877	413.755	24.7295
-37.98764	411.895	24.7393
-37.9871	416.208	24.749
-37.9855	415.5419	24.7588
-37.985	409.707	24.7686
-37.98357	408.349	24.77832
-37.9837	407.49	24.7881
-37.98267	413.663	24.7979
-37.9818	415.233	24.8076
-37.9805	414.426	24.8174
-37.9797	410.388	24.8271
-37.9785	410.06	24.8369
-37.97744	408.879	24.84668
-37.9771	409.6478	24.8564
-37.9769	414.857	24.8662
-37.974	414.981	24.876
-37.9755	413.152	24.8857
-37.9736	406.339	24.8955
-37.9722	403.812	24.9053
-37.9726	411.687	24.915
-37.9707	412.86	24.9248
-37.9697	415.73	24.93457
-37.9698	410.4053	24.9443
-37.9697	408.362	24.9541
-37.9683	408.715	24.9639
-37.9677	404.571	24.9736
-37.967	411.587	24.9834
-37.9657	413.291	24.9932
-37.9651	412.535	25.00293
-37.9644	409.949	25.0127
-37.9628	401.98	25.0225
-37.9623	406.263	25.0322
-37.9614	410.914	25.042
-37.9613	411.136	25.0518
-37.959	411.9382	25.0615
-37.9596	405.2998	25.0713
-37.9587	406.849	25.0811
-37.9574	402.326	25.09082
-37.9568	406.87	25.1006
-37.957	411.019	25.1104
-37.9555	411.433	25.1201
-37.9545	410.029	25.1299
-37.9542	404.091	25.1396
-37.9539	402.492	25.1494
-37.9522	405.9299	25.15918
-37.9518	408.726	25.1689
-37.9489	408.511	25.1787
-37.9506	407.171	25.1885
-37.9485	404.19	25.1982
-37.9477	400.662	25.208
-37.9462	401.506	25.2178
-37.9453	400.847	25.2275
-37.9459	404.762	25.2373
-37.9455	402.767	25.24707
-37.9435	394.244	25.2568
-37.94297	389.557	25.2666
-37.942	374.677	25.2764
-37.93898	-52.6417	25.2861
-37.9383	-51.7909	25.2959
-37.9382	-52.0034	25.3057
-37.9368	-32.7163	25.31543
-37.9363	-39.8285	25.3252
-37.9365	-42.95945	25.335
-37.9355	-46.2506	25.3447
-37.9354	-43.5984	25.3545
-37.9344	-36.1464	25.3643
-37.933	-41.6385	25.374
-37.9324	-38.3698	25.3838
-37.9315	-43.6973	25.3936
-37.93029	-42.6722	25.40332
-37.9302	-40.2593	25.4131
-37.9301	-42.4427	25.4229
-37.928	-37.6921	25.4326
-37.9277	-36.1645	25.4424
-37.92675	-41.5736	25.4521
-37.926	-43.4574	25.4619
-37.9258	-45.8577	25.47168
-37.925	-39.4268	25.4814
-37.9233	-36.81012	25.4912
-37.9237	-39.0411	25.501
-37.9224	-40.0859	25.5107
-37.9213	-44.0363	25.5205
-37.9203	-44.4421	25.5303
-37.9196	-43.4054	25.54
-37.9193	-38.9187	25.5498
-37.9182	-35.4632	25.55957
-37.91695	-36.8445	25.5693
-37.917	-44.2028	25.5791
-37.9148	-45.9064	25.5889
-37.9142	-41.8198	25.5986
-37.9153	-38.6177	25.6084
-37.914	-34.7604	25.6182
-37.9128	-40.5039	25.62793
-37.912	-40.4494	25.6377
-37.9109	-44.1969	25.6475
-37.91058	-47.2522	25.6572
-37.9095	-39.4588	25.667
-37.9092	-38.7772	25.6768
-37.908	-35.75362	25.6865
-37.90683	-41.1368	25.6963
-37.9072	-47.5749	25.7061
-37.9051	-44.58165	25.71582
-37.9044	-40.44788	25.7256
-37.9025	-38.6011	25.7354
-37.9028	-37.5582	25.7451
-37.9021	-42.4415	25.7549
-37.8999	-40.6265	25.7646
-37.9003	-45.819	25.7744
-37.8993	-42.3914	25.78418
-37.8992	-40.0545	25.7939
-37.8975	-36.0327	25.8037
-37.897	-36.8338	25.8135
-37.8961	-44.287	25.8232
-37.8954	-44.3349	25.833
-37.8946	-41.7201	25.8428
-37.8943	-39.5005	25.8525
-37.8935	-38.0067	25.8623
-37.8933	-39.5651	25.87207
-37.891	-39.2188	25.8818
-37.8895	-42.3901	25.8916
-37.89	-43.4077	25.9014
-37.8888	-44.2335	25.9111
-37.8876	-40.5685	25.9209
-37.8877	-37.305	25.9307
-37.8865	-40.7545	25.94043
-37.88591	-41.312	25.9502
-37.8859	-42.4635	25.96
-37.8838	-41.247	25.9697
-37.8833	-40.0785	25.9795
-37.8816	-41.8563	25.9893
-37.8822	-37.4648	25.999
-37.8809	-39.7311	26.0088
-37.8812	-42.7425	26.0186
-37.8795	-46.5978	26.02832
-37.8787	-43.3328	26.0381
-37.878	-36.36898	26.0479
-37.8758	-40.3208	26.0576
-37.8762	-38.0575	26.0674
-37.8756	-41.725	26.0771
-37.87402	-43.2414	26.0869
-37.8731	-41.00021	26.09668
-37.8729	-43.0669	26.1064
-37.872	-38.421	26.1162
-37.8719	-36.8172	26.126
-37.8699	-39.59388	26.1357
-37.8704	-44.3631	26.1455
-37.8683	-47.6008	26.1553
-37.8685	-42.8816	26.165
-37.8663	-38.9644	26.1748
-37.8659	-36.5877	26.18457
-37.8651	-38.7482	26.1943
-37.864	-42.9483	26.2041
-37.864	-42.111	26.2139
-37.8625	-45.8475	26.2236