File: data/processed_data_files/tensile/0.254_hd_uprint_typeiv_090_r(3).dat
MTS793|BTW|ENU|1|2|.|/|:|1|0|0|A

Data Header:			0.254_hd_uprint_typeiv_090_r0			Time:	20.0188	s	4/13/2019 11:00:47 PM
Data Acquisition:	Timed
Station Name:	ft40.cfg
Test File Name:	monotonic_0.2540_typeiv_solid_4545_uprint.tst
Displacement	Force	Running Time
mm	N	s
-40.0419	-204.232	0.0231934
-40.0424	-209.4743	0.0427246
-40.04184	-206.903	0.0622559
-40.0412	-206.563	0.0817871
-40.0389	-205.349	0.101318
-40.0381	-208.266	0.12085
-40.0355	-200.211	0.140381
-40.0345	-200.671	0.159912
-40.0329	-203.5215	0.179443
-40.0307	-203.428	0.198975
-40.0288	-196.645	0.218506
-40.0274	-202.272	0.238037
-40.0258	-196.126	0.257568
-40.02507	-191.406	0.2771
-40.023	-197.923	0.296631
-40.0202	-200.451	0.316162
-40.0201	-188.901	0.335693
-40.0176	-194.1	0.355225
-40.0159	-192.871	0.374756
-40.015	-188.315	0.394287
-40.0131	-189.5	0.413818
-40.011	-193.069	0.43335
-40.0102	-183.597	0.452881
-40.0086	-187.203	0.472412
-40.0075	-189.625	0.491943
-40.0059	-183.882	0.511475
-40.003	-182.222	0.531006
-40.0017	-189.436	0.550537
-39.9997	-183.853	0.570068
-39.9988	-179.2103	0.5896
-39.9958	-183.89	0.609131
-39.995	-179.789	0.628662
-39.9931	-177.08	0.648193
-39.9919	-180.874	0.667725
-39.9902	-178.679	0.687256
-39.988	-172.104	0.706787
-39.9872	-174.939	0.726318
-39.9857	-176.793	0.74585
-39.984	-172.9872	0.765381
-39.983	-170.054	0.784912
-39.9807	-176.129	0.804443
-39.9787	-168.304	0.823975
-39.9774	-166.1833	0.843506
-39.9755	-169.523	0.863037
-39.974	-170.756	0.882568
-39.9723	-160.878	0.9021
-39.9706	-169.518	0.921631
-39.9693	-164.974	0.941162
-39.9673	-159.907	0.960693
-39.9649	-163.2438	0.980225
-39.9651	-169.631	0.999756
-39.9642	-156.419	1.01929
-39.9607	-160.657	1.03882
-39.9603	-161.5134	1.05835
-39.9577	-156.439	1.07788
-39.9568	-156.928	1.09741
-39.9549	-163.086	1.11694
-39.953	-153.933	1.13647
-39.9508	-152.059	1.15601
-39.94944	-155.904	1.17554
-39.9484	-152.153	1.19507
-39.9464	-148.423	1.2146
-39.9451	-154.5793	1.23413
-39.9429	-151.348	1.25366
-39.9415	-145.277	1.27319
-39.9399	-148.88	1.29272
-39.9391	-147.078	1.31226
-39.9365	-144.728	1.33179
-39.9353	-147.0795	1.35132
-39.9332	-146.104	1.37085
-39.9327	-140.061	1.39038
-39.9297	-139.956	1.40991
-39.9284	-143.64	1.42944
-39.9272	-142.501	1.44897
-39.9258	-135.774	1.46851
-39.9236	-142.6821	1.48804
-39.9213	-137.668	1.50757
-39.9216	-133.01	1.5271
-39.9198	-136.908	1.54663
-39.9167	-139.535	1.56616
-39.915	-128.999	1.58569
-39.914	-135.033	1.60522
-39.912	-134.563	1.62476
-39.9112	-126.8709	1.64429
-39.9096	-127.997	1.66382
-39.9091	-136.51	1.68335
-39.9053	-126.254	1.70288
-39.9052	-127.7169	1.72241
-39.904	-128.118	1.74194
-39.8998	-123.514	1.76147
-39.8995	-123.151	1.78101
-39.8983	-130.076	1.80054
-39.8959	-121.455	1.82007
-39.8953	-118.395	1.8396
-39.8932	-123.135	1.85913
-39.8921	-121.164	1.87866
-39.8892	-116.725	1.89819
-39.8872	-121.129	1.91772
-39.8858	-120.12	1.93726
-39.8852	-115.028	1.95679
-39.8829	-115.355	1.97632
-39.8821	-115.193	1.99585
-39.8802	-113.516	2.01538
-39.878	-112.917	2.03491
-39.8766	-116.008	2.05444
-39.8745	-108.264	2.07397
-39.8732	-106.746	2.09351
-39.8718	-109.276	2.11304
-39.8699	-110.771	2.13257
-39.8684	-104.952	2.1521
-39.8666	-106.758	2.17163
-39.8666	-104.49	2.19116
-39.8639	-100.768	2.21069
-39.8613	-102.573	2.23022
-39.8606	-106.724	2.24976
-39.8586	-96.5126	2.26929
-39.8567	-100.764	2.28882
-39.8554	-102.534	2.30835
-39.8531	-94.7423	2.32788
-39.8522	-92.8961	2.34741
-39.8491	-103.564	2.36694
-39.8489	-93.6391	2.38647
-39.8476	-93.46611	2.40601
-39.8448	-95.0473	2.42554
-39.84428	-92.0961	2.44507
-39.8435	-89.0351	2.4646
-39.8419	-96.2888	2.48413
-39.83884	-89.53112	2.50366
-39.8372	-84.8611	2.52319
-39.8366	-87.983	2.54272
-39.834	-89.8749	2.56226
-39.8327	-84.69664	2.58179
-39.8303	-86.6044	2.60132
-39.8297	-86.847	2.62085
-39.8278	-81.3923	2.64038
-39.82695	-82.7313	2.65991
-39.8246	-84.3289	2.67944
-39.8235	-80.9896	2.69897
-39.8224	-79.1814	2.71851
-39.8184	-82.9457	2.73804
-39.8177	-77.54882	2.75757
-39.8174	-72.4781	2.7771
-39.81469	-76.483	2.79663
-39.8132	-79.7597	2.81616
-39.8124	-71.5079	2.83569
-39.81065	-74.3292	2.85522
-39.8084	-72.3223	2.87476
-39.8071	-67.0383	2.89429
-39.8049	-68.1341	2.91382
-39.8032	-74.8635	2.93335
-39.8023	-64.9056	2.95288
-39.8002	-66.516	2.97241
-39.79908	-68.9956	2.99194
-39.7965	-64.3324	3.01147
-39.7949	-61.3926	3.03101
-39.7936	-69.20623	3.05054
-39.792	-62.9435	3.07007
-39.78986	-60.8131	3.0896
-39.7894	-62.7131	3.10913
-39.7869	-62.0796	3.12866
-39.7852	-56.7047	3.14819
-39.7841	-62.3342	3.16772
-39.7827	-59.5443	3.18726
-39.7804	-53.8988	3.20679
-39.7799	-53.705	3.22632
-39.7773	-56.3315	3.24585
-39.7766	-53.1169	3.26538
-39.7743	-54.6858	3.28491
-39.7728	-54.744	3.30444
-39.7707	-48.7534	3.32397
-39.7695	-49.9719	3.34351
-39.7671	-51.3221	3.36304
-39.7665	-50.1145	3.38257
-39.7637	-44.0775	3.4021
-39.7628	-48.2163	3.42163
-39.7611	-46.0336	3.44116
-39.7594	-40.8088	3.46069
-39.7573	-41.857	3.48022
-39.75507	-48.0724	3.49976
-39.7536	-38.5762	3.51929
-39.7532	-40.3046	3.53882
-39.7508	-40.4105	3.55835
-39.7498	-34.6288	3.57788
-39.7476	-34.0796	3.59741
-39.7462	-44.7607	3.61694
-39.7438	-32.98584	3.63647
-39.743	-32.3792	3.65601
-39.742	-37.0196	3.67554
-39.74062	-33.9962	3.69507
-39.7384	-28.9059	3.7146
-39.7372	-35.4665	3.73413
-39.73531	-30.2066	3.75366
-39.7331	-27.4967	3.77319
-39.7312	-29.119	3.79272
-39.73069	-29.0138	3.81226
-39.7279	-23.74362	3.83179
-39.727	-28.9692	3.85132
-39.7245	-28.1872	3.87085
-39.7226	-22.9061	3.89038
-39.7214	-20.6563	3.90991
-39.7206	-23.3303	3.92944
-39.7188	-24.4052	3.94897
-39.7167	-18.9462	3.96851
-39.7148	-22.6502	3.98804
-39.71336	-18.4964	4.00757
-39.7121	-15.2919	4.0271
-39.7106	-19.0498	4.04663
-39.7094	-20.78	4.06616
-39.70723	-13.3529	4.08569
-39.7057	-16.4387	4.10522
-39.7048	-16.1325	4.12476
-39.7018	-11.7137	4.14429
-39.7009	-9.78444	4.16382
-39.6998	-17.1573	4.18335
-39.6971	-6.127223	4.20288
-39.69603	-8.38586	4.22241
-39.6947	-10.2816	4.24194
-39.6912	-6.200922	4.26147
-39.6912	-1.88003	4.28101
-39.6893	-11.82565	4.30054
-39.6873	-3.02188	4.32007
-39.6865	-2.46101	4.3396
-39.68362	-2.99662	4.35913
-39.6832	-3.74544	4.37866
-39.6817	2.46557	4.39819
-39.67923	-2.56164	4.41772
-39.6778	0.13967	4.43726
-39.6769	3.77972	4.45679
-39.67477	2.36311	4.47632
-39.6744	2.64332	4.49585
-39.6725	7.25487	4.51538
-39.6687	5.13979	4.53491
-39.66914	3.276845	4.55444
-39.6675	10.8597	4.57397
-39.6646	10.8222	4.59351
-39.6626	8.28126	4.61304
-39.6611	8.53995	4.63257
-39.6593	11.2328	4.6521
-39.6589	9.63999	4.67163
-39.6566	13.533	4.69116
-39.6554	17.8884	4.71069
-39.6529	15.1937	4.73022
-39.6516	11.0233	4.74976
-39.6507	21.08882	4.76929
-39.64909	19.143	4.78882
-39.6479	17.3926	4.80835
-39.646	23.0047	4.82788
-39.6435	23.7527	4.84741
-39.64146	17.5142	4.86694
-39.6404	25.8559	4.88647
-39.6389	24.2004	4.90601
-39.6374	23.3717	4.92554
-39.636	26.6562	4.94507
-39.6336	31.4991	4.9646
-39.6325	22.4168	4.98413
-39.6303	28.8739	5.00366
-39.6285	31.8795	5.02319
-39.6286	30.5049	5.04272
-39.6258	30.0599	5.06226
-39.624	34.9273	5.08179
-39.6232	31.4057	5.10132
-39.6205	32.2792	5.12085
-39.6194	37.2615	5.14038
-39.618	36.0145	5.15991
-39.616	33.1441	5.17944
-39.6162	38.2695	5.19897
-39.6133	38.5666	5.21851
-39.6105	37.0064	5.23804
-39.6098	39.38905	5.25757
-39.6081	44.0017	5.2771
-39.6069	42.1689	5.29663
-39.6047	40.7862	5.31616
-39.6032	45.708	5.33569
-39.6029	44.5622	5.35522
-39.5987	45.0258	5.37476
-39.5987	49.7395	5.39429
-39.5963	48.4116	5.41382
-39.5955	40.949	5.43335
-39.5931	49.6934	5.45288
-39.5909	51.517	5.47241
-39.5897	49.6232	5.49194
-39.58894	52.5933	5.51147
-39.58567	56.2065	5.53101
-39.586	49.0627	5.55054
-39.5845	55.0585	5.57007
-39.5822	57.9607	5.5896
-39.5803	54.322	5.60913
-39.5792	56.1408	5.62866
-39.5771	62.2399	5.64819
-39.5752	55.5311	5.66772
-39.5741	58.47369	5.68726
-39.5716	62.0242	5.70679
-39.5707	63.7972	5.72632
-39.5696	61.3179	5.74585
-39.5663	64.7697	5.76538
-39.5655	62.2888	5.78491
-39.5653	63.6135	5.80444
-39.562	67.8126	5.82397
-39.5614	71.0089	5.84351
-39.5591	65.9653	5.86304
-39.5579	66.17585	5.88257
-39.55666	69.21637	5.9021
-39.555	69.26889	5.92163
-39.5516	70.81929	5.94116
-39.5513	74.7257	5.96069
-39.5495	74.2621	5.98022
-39.5493	71.9752	5.99976
-39.5466	76.3836	6.01929
-39.5444	76.7798	6.03882
-39.5429	75.6403	6.05835
-39.5417	80.68264	6.07788
-39.53986	82.2964	6.09741
-39.53875	74.2748	6.11694
-39.536	81.9572	6.13647
-39.5346	85.4174	6.15601
-39.5328	84.0935	6.17554
-39.5323	83.59288	6.19507
-39.5301	89.3432	6.2146
-39.5277	79.0276	6.23413
-39.5265	85.3942	6.25366
-39.5256	89.0518	6.27319
-39.5228	87.7945	6.29272
-39.5217	86.252	6.31226
-39.521	93.6484	6.33179
-39.5189	90.00695	6.35132
-39.5176	89.1509	6.37085
-39.516	93.1583	6.39038
-39.5153	95.4908	6.40991
-39.5117	92.9582	6.42944
-39.5105	96.4688	6.44897
-39.5065	96.4333	6.46851
-39.5068	94.8758	6.48804
-39.5063	97.3984	6.50757
-39.5047	103.095	6.5271
-39.502	100.268	6.54663
-39.5004	99.2488	6.56616
-39.4991	102.369	6.58569
-39.4968	102.743	6.60522
-39.4957	99.3179	6.62476
-39.4943	105.569	6.64429
-39.4919	107.191	6.66382
-39.4902	101.26	6.68335
-39.4895	108.663	6.70288
-39.4871	109.631	6.72241
-39.4856	106.004	6.74194
-39.485	109.713	6.76147
-39.4824	115.92	6.78101
-39.4808	106.224	6.80054
-39.4798	111.616	6.82007
-39.4783	115.398	6.8396
-39.4763	115.128	6.85913
-39.476	115.572	6.87866
-39.47311	120.201	6.89819
-39.4716	112.941	6.91772
-39.4696	116.793	6.93726
-39.4679	121.876	6.95679
-39.4664	121.149	6.97632
-39.4656	116.143	6.99585
-39.4639	123.528	7.01538
-39.4626	122.416	7.03491
-39.4604	120.975	7.05444
-39.4586	123.552	7.07397
-39.4565	128.63	7.09351
-39.4551	122.658	7.11304
-39.4532	126.773	7.13257
-39.4526	127.326	7.1521
-39.4506	125.711	7.17163
-39.44791	126.724	7.19116
-39.4464	133.761	7.21069
-39.4445	131.459	7.23022
-39.4433	125.058	7.24976
-39.4434	132.458	7.26929
-39.4407	134.089	7.28882
-39.4391	131.065	7.30835
-39.4374	138.069	7.32788
-39.43573	139.523	7.34741
-39.4341	130.551	7.36694
-39.4324	137.94	7.38647
-39.4311	142.086	7.40601
-39.4291	136.49	7.42554
-39.4273	140.419	7.44507
-39.4266	146.876	7.4646
-39.424	138.7	7.48413
-39.4222	142.27	7.50366
-39.4218	146.636	7.52319
-39.4203	144.599	7.54272
-39.4174	144.755	7.56226
-39.4169	151.95	7.58179
-39.4137	145.305	7.60132
-39.4128	147.184	7.62085
-39.411	152.267	7.64038
-39.409	154.247	7.65991
-39.40852	150.378	7.67944
-39.4073	154.325	7.69897
-39.4055	152.27	7.71851
-39.4033	152.6861	7.73804
-39.4006	153.487	7.75757
-39.3998	160.126	7.7771
-39.3978	154.757	7.79663
-39.3979	155.837	7.81616
-39.3946	159.765	7.83569
-39.3927	159.381	7.85522
-39.3909	157.682	7.87476
-39.3892	164.308	7.89429
-39.3888	163.93	7.91382
-39.387	157.304	7.93335
-39.3856	162.884	7.95288
-39.3842	168.2468	7.97241
-39.3826	164.554	7.99194
-39.3807	167.059	8.01147
-39.379	170.122	8.03101
-39.3761	160.8927	8.05054
-39.3759	168.1172	8.07007
-39.3736	171.635	8.0896
-39.3727	168.803	8.10913
-39.3704	168.6554	8.12866
-39.3692	176.911	8.14819
-39.3661	170.2292	8.16772
-39.3662	172.784	8.18726
-39.36401	177.269	8.20679
-39.3613	177.401	8.22632
-39.362	175.376	8.24585
-39.3597	182.27	8.26538
-39.3581	178.085	8.28491
-39.356	177.761	8.30444
-39.3538	179.768	8.32397
-39.353	186.144	8.34351
-39.3499	179.389	8.36304
-39.3493	181.659	8.38257
-39.3465	185.062	8.4021
-39.3461	184.9151	8.42163
-39.3447	183.079	8.44116
-39.342	191.24	8.46069
-39.342	188.003	8.48022
-39.3399	186.1734	8.49976
-39.33778	189.523	8.51929
-39.3359	191.048	8.53882
-39.335	186.6	8.55835
-39.3335	192.942	8.57788
-39.3307	195.046	8.59741
-39.32946	188.806	8.61694
-39.3289	191.654	8.63647
-39.3263	197.145	8.65601
-39.3251	191.919	8.67554
-39.3239	195.8192	8.69507
-39.3214	202.098	8.7146
-39.3214	193.123	8.73413
-39.3175	197.1637	8.75366
-39.3174	204.046	8.77319
-39.316	202.267	8.79272
-39.3138	198.035	8.81226
-39.3116	206.888	8.83179
-39.3103	201.755	8.85132
-39.3079	202.2	8.87085
-39.3069	205.409	8.89038
-39.306	206.663	8.90991
-39.3046	204.925	8.92944
-39.3017	209.856	8.94897
-39.30101	208.288	8.96851
-39.2997	207.163	8.98804
-39.2971	208.055	9.00757
-39.2941	216.613	9.0271
-39.2948	210.673	9.04663
-39.29287	210.022	9.06616
-39.2902	213.5762	9.08569
-39.2897	214.257	9.10522
-39.2872	211.826	9.12476
-39.2866	218.297	9.14429
-39.2846	217.396	9.16382
-39.283	214.172	9.18335
-39.2808	219.867	9.20288
-39.2797	223.053	9.22241
-39.2787	217.918	9.24194
-39.2759	220.906	9.26147
-39.2743	225.68	9.28101
-39.273	218.053	9.30054
-39.2717	220.605	9.32007
-39.2696	227.578	9.3396
-39.2669	223.8112	9.35913
-39.2668	223.78	9.37866
-39.2647	231.62	9.39819
-39.2633	222.9055	9.41772
-39.2623	224.083	9.43726
-39.2603	231.932	9.45679
-39.2573	232.987	9.47632
-39.25634	226.864	9.49585
-39.2538	234.051	9.51538
-39.2527	230.502	9.53491
-39.2521	231.753	9.55444
-39.2505	234.569	9.57397
-39.2475	238.187	9.59351
-39.2479	233.47	9.61304
-39.2448	239.238	9.63257
-39.2436	238.457	9.6521
-39.2414	236.677	9.67163
-39.2399	234.889	9.69116
-39.2394	244.474	9.71069
-39.2359	241.065	9.73022
-39.2352	238.389	9.74976
-39.2333	240.957	9.76929
-39.2329	244.428	9.78882
-39.2301	239.997	9.80835
-39.2297	246.433	9.82788
-39.2276	247.875	9.84741
-39.226	242.174	9.86694
-39.2233	245.876	9.88647
-39.2234	253.209	9.90601
-39.2207	245.957	9.92554
-39.2196	246.866	9.94507
-39.2173	256.0625	9.9646
-39.2163	249.5278	9.98413
-39.2151	249.356	10.0037
-39.212	256.488	10.0232
-39.2113	254.814	10.0427
-39.2097	252.7825	10.0623
-39.2073	259.863	10.0818
-39.20586	255.467	10.1013
-39.2059	252.881	10.12085
-39.2032	260.779	10.1404
-39.2002	264.093	10.1599
-39.19883	256.103	10.1794
-39.19685	261.01	10.199
-39.1961	261.664	10.2185
-39.1944	262.199	10.238
-39.1933	261.964	10.2576
-39.1909	267.844	10.2771
-39.1891	263.41	10.2966
-39.188	265.944	10.3162
-39.1863	267.866	10.3357
-39.185	268.093	10.3552
-39.1832	263.31	10.3748
-39.1813	272.346	10.3943
-39.1787	272.148	10.4138
-39.1781	267.494	10.43335
-39.1754	270.8414	10.4529
-39.1766	275.2247	10.4724
-39.1743	268.724	10.4919
-39.1734	276.723	10.5115
-39.1694	280.59	10.531
-39.1684	270.957	10.5505
-39.1666	272.489	10.5701
-39.1656	283.643	10.5896
-39.1633	277.052	10.6091
-39.1613	275.531	10.6287
-39.1602	282.932	10.6482
-39.159	276.957	10.6677
-39.1571	278.674	10.6873
-39.1555	284.719	10.7068
-39.1535	283.9523	10.7263
-39.1515	279.982	10.74585
-39.1507	289.313	10.7654
-39.1502	285.088	10.7849
-39.1473	281.801	10.8044
-39.1453	286.9494	10.824
-39.14389	291.987	10.8435
-39.1428	286.132	10.863
-39.1418	290.559	10.8826
-39.1403	289.509	10.9021
-39.1376	290.211	10.9216
-39.1353	289.86	10.9412
-39.1347	297.955	10.9607
-39.1332	292.109	10.9802
-39.1317	291.014	10.9998
-39.13	295.436	11.0193
-39.1279	298.858	11.0388
-39.1267	293.0278	11.05835
-39.1243	297.254	11.0779
-39.1231	300.519	11.0974
-39.1215	295.427	11.1169
-39.12009	298.321	11.1365
-39.11808	304.029	11.156
-39.1167	296.386	11.1755
-39.115	301.229	11.1951
-39.1136	306.296	11.2146
-39.1118	298.419	11.2341
-39.1102	297.754	11.2537
-39.1094	309.362	11.2732
-39.1068	305.2352	11.2927
-39.1047	303.266	11.3123
-39.104	310.538	11.3318
-39.102	307.173	11.3513
-39.1001	304.6	11.37085
-39.0983	311.535	11.3904
-39.0971	313.101	11.4099
-39.09515	306.225	11.4294
-39.0952	315.176	11.449
-39.09206	312.724	11.4685
-39.0909	310.367	11.488
-39.0888	312.443	11.5076
-39.0875	319.254	11.5271
-39.0859	314.243	11.5466
-39.0857	316.349	11.5662
-39.0814	315.29	11.5857
-39.0804	317.378	11.6052
-39.0806	313.976	11.6248
-39.0776	323.876	11.6443
-39.07589	320.577	11.6638
-39.0741	316.87	11.68335
-39.0722	321.717	11.7029
-39.0709	325.838	11.7224
-39.0687	318.94	11.7419
-39.0686	324.486	11.7615
-39.0662	327.011	11.781
-39.0644	322.316	11.8005
-39.0631	322.588	11.8201
-39.0609	330.223	11.8396
-39.0604	324.419	11.8591
-39.0585	326.77	11.8787
-39.056	334.105	11.8982
-39.0546	327.467	11.9177
-39.0533	324.412	11.9373
-39.05146	333.336	11.9568
-39.051	333.534	11.9763
-39.0485	329.283	11.99585
-39.04763	336.128	12.0154
-39.0462	332.052	12.0349
-39.0445	331.139	12.0544
-39.0417	334.83	12.074
-39.0388	339.229	12.0935
-39.0394	331.533	12.113
-39.0368	337.014	12.1326
-39.03595	338.852	12.1521
-39.0338	336.527	12.1716
-39.0323	336.067	12.1912
-39.0283	345.084	12.2107
-39.0284	340.523	12.2302
-39.0279	341.517	12.2498
-39.0266	341.322	12.2693
-39.0237	344.221	12.2888
-39.0226	339.963	12.30835
-39.0208	348.523	12.3279
-39.0175	348.353	12.3474
-39.0177	341.654	12.3669
-39.0161	343.872	12.3865
-39.0142	352.222	12.406
-39.0122	344.759	12.4255
-39.0108	349.033	12.4451
-39.0089	352.473	12.4646
-39.00787	347.52	12.4841
-39.0054	346.1611	12.5037
-39.0047	356.507	12.5232
-39.00296	350.381	12.5427
-39.0008	349.4502	12.5623
-38.999	357.113	12.5818
-38.9987	353.08	12.6013
-38.9959	348.173	12.62085
-38.9953	356.157	12.6404
-38.9934	359.188	12.6599
-38.991	353.782	12.6794
-38.9892	359.623	12.699
-38.9877	357.992	12.7185
-38.98764	355.364	12.738
-38.9848	360.8324	12.7576
-38.9837	365.47	12.7771
-38.982	359.36	12.7966
-38.9795	360.857	12.8162
-38.977	363.3	12.8357
-38.9765	365.659	12.8552
-38.9755	359.686	12.8748
-38.9723	368.743	12.8943
-38.9726	366.2	12.9138
-38.971	363.13	12.93335
-38.969	365.838	12.9529
-38.96719	369.8576	12.9724
-38.9652	364.0152	12.9919
-38.9643	369.758	13.0115
-38.9626	372.805	13.031
-38.96104	366.083	13.0505
-38.958	366.685	13.0701
-38.9576	375.038	13.0896
-38.9555	369.418	13.1091
-38.9533	371.586	13.1287
-38.95229	375.368	13.1482
-38.9507	372.058	13.1677
-38.9502	369.841	13.1873
-38.9471	378.6792	13.2068
-38.9453	375.004	13.2263
-38.9443	371.723	13.24585
-38.94257	380.037	13.2654
-38.9414	377.291	13.2849
-38.9374	373.654	13.3044
-38.9384	378.986	13.324
-38.93576	384.131	13.3435
-38.9343	377.267	13.363
-38.9321	380.9545	13.3826
-38.9308	381.65	13.4021
-38.9294	380.331	13.4216
-38.9285	380.364	13.4412
-38.9252	388.621	13.4607
-38.9249	383.156	13.4802
-38.9229	381.724	13.4998
-38.9216	382.4776	13.5193
-38.9199	387.333	13.5388
-38.9187	381.25	13.55835
-38.9169	389.141	13.5779
-38.9158	388.465	13.5974
-38.9131	385.947	13.6169
-38.9123	387.014	13.6365
-38.9096	392.146	13.656
-38.9085	382.465	13.6755
-38.9068	388.53	13.6951
-38.90451	395.548	13.7146
-38.9038	390.296	13.7341
-38.9004	385.566	13.7537
-38.901	397.141	13.7732
-38.90015	390.96	13.7927
-38.8962	390.31	13.8123
-38.8944	398.339	13.8318
-38.8949	392.792	13.8513
-38.8918	388.729	13.87085
-38.8906	398.54	13.8904
-38.8889	397.534	13.9099
-38.8881	392.21	13.9294
-38.8859	399.605	13.949
-38.8832	399.151	13.9685
-38.8824	395.952	13.988
-38.8809	397.172	14.0076
-38.8793	402.894	14.0271
-38.8773	399.242	14.0466
-38.8756	399.388	14.0662
-38.8733	401.309	14.0857
-38.8722	400.399	14.1052
-38.8714	396.796	14.1248
-38.87	407.793	14.1443
-38.8685	405.2377	14.1638
-38.8645	401.523	14.18335
-38.8636	402.78	14.2029
-38.8624	408.161	14.2224
-38.8609	401.12	14.2419
-38.8588	405.5	14.2615
-38.8569	409.707	14.281
-38.85667	404.22	14.3005
-38.8548	402.998	14.3201
-38.85363	411.435	14.3396
-38.8516	403.9527	14.3591
-38.84972	406.548	14.3787
-38.8483	413.24	14.3982
-38.8469	408.857	14.4177
-38.8446	404.829	14.4373
-38.84343	413.08	14.4568
-38.8417	409.642	14.4763
-38.8405	407.107	14.49585
-38.8389	414.335	14.5154
-38.8373	411.725	14.5349
-38.8364	406.494	14.5544
-38.834	413.971	14.574
-38.8317	417.095	14.5935
-38.8302	408.156	14.613
-38.8287	412.9827	14.6326
-38.8275	414.228	14.6521
-38.8247	413.282	14.6716
-38.8243	412.76	14.6912
-38.8216	417.9418	14.7107
-38.8221	414.036	14.7302
-38.8188	415.112	14.7498
-38.8168	417.168	14.7693
-38.8153	416.857	14.7888
-38.8149	412.874	14.80835
-38.8125	421.436	14.8279
-38.8117	420.643	14.8474
-38.8098	414.977	14.8669
-38.8081	415.9007	14.8865
-38.8064	422.587	14.906
-38.80455	416.403	14.9255
-38.80175	419.275	14.9451
-38.8011	423.856	14.9646
-38.7996	417.4729	14.9841
-38.7971	416.017	15.0037
-38.7966	426.536	15.0232
-38.7951	420.88	15.0427
-38.7926	418.217	15.0623
-38.7908	424.715	15.0818
-38.7896	422.897	15.1013
-38.78783	415.467	15.12085
-38.7859	426.217	15.1404
-38.7852	423.209	15.1599
-38.7832	419.997	15.1794
-38.7816	426.026	15.199
-38.7803	426.069	15.2185
-38.7783	418.557	15.238
-38.7771	422.771	15.2576
-38.7747	431.4812	15.2771
-38.7728	421.4151	15.2966
-38.7718	423.556	15.3162
-38.7709	426.8053	15.3357
-38.7673	424.253	15.3552
-38.76746	423.784	15.3748
-38.76432	428.789	15.3943
-38.7637	426.714	15.4138
-38.76276	425.081	15.43335
-38.7609	426.723	15.4529
-38.7587	428.659	15.4724
-38.7576	421.434	15.4919
-38.7562	427.52	15.5115
-38.7534	432.112	15.531
-38.7523	424.856	15.5505
-38.7515	422.453	15.5701
-38.7492	432.127	15.5896
-38.748	426.158	15.6091
-38.7456	427.317	15.6287
-38.7443	431.86	15.6482
-38.7427	426.328	15.6677
-38.7409	422.6759	15.6873
-38.74	434.743	15.7068
-38.7379	428.735	15.7263
-38.7365	424.094	15.74585
-38.734	432.223	15.7654
-38.7325	431.729	15.7849
-38.7325	424.229	15.8044
-38.73	432.772	15.824
-38.7285	433.514	15.8435
-38.7262	426.786	15.863
-38.7249	432.989	15.8826
-38.7224	432.282	15.9021
-38.7207	426.972	15.9216
-38.7199	428.108	15.9412
-38.7178	434.932	15.9607
-38.7161	431.156	15.9802
-38.7162	429.022	15.9998
-38.7129	430.787	16.0193
-38.7123	430.885	16.0388
-38.70956	427.226	16.05835
-38.7074	434.15	16.0779
-38.7069	432.095	16.0974
-38.7053	428.5795	16.1169
-38.7035	429.974	16.1365
-38.7025	436.781	16.156
-38.7006	427.208	16.1755
-38.6994	430.541	16.1951
-38.6962	436.266	16.2146
-38.6957	430.349	16.2341
-38.6933	427.1947	16.2537
-38.69186	435.4725	16.2732
-38.6895	430.572	16.2927
-38.689	432.231	16.3123
-38.6864	437.82	16.3318
-38.6859	433.262	16.3513
-38.6844	424.65	16.37085
-38.68256	436.396	16.3904
-38.6808	435.086	16.4099
-38.67915	427.292	16.4294
-38.6773	434.002	16.449
-38.6753	433.712	16.4685
-38.67416	427.739	16.488
-38.6726	432.646	16.5076
-38.6707	436.379	16.5271
-38.66832	430.273	16.5466
-38.6683	432.44	16.5662
-38.66608	434.8688	16.5857
-38.6641	430.019	16.6052
-38.6627	429.1684	16.6248
-38.6618	436.507	16.6443
-38.6594	434.173	16.6638
-38.6573	430.45	16.68335
-38.657	431.4216	16.7029
-38.6539	435.248	16.7224
-38.6523	430.569	16.7419
-38.6503	435.395	16.7615
-38.6496	437.79	16.781
-38.648	430.518	16.8005
-38.64555	430.696	16.8201
-38.6446	437.6553	16.8396
-38.6429	430.022	16.8591
-38.6413	429.865	16.8787
-38.6406	437.039	16.8982
-38.63728	432.388	16.9177
-38.6372	427.5564	16.9373
-38.6347	436.089	16.9568
-38.6331	431.476	16.9763
-38.6313	429.556	16.99585
-38.6298	436.008	17.0154
-38.6284	435.016	17.0349
-38.6283	425.273	17.0544
-38.6251	435.169	17.074
-38.6247	435.564	17.0935
-38.6215	429.761	17.113
-38.6204	434.465	17.1326
-38.6188	433.971	17.1521
-38.617	428.007	17.1716
-38.616	431.518	17.1912
-38.615	437.037	17.2107
-38.6122	430.147	17.2302
-38.6107	431.521	17.2498
-38.60759	434.359	17.2693
-38.6069	432.6843	17.2888
-38.6059	426.134	17.30835
-38.6035	434.368	17.3279
-38.60276	435.349	17.3474
-38.6013	429.7966	17.3669
-38.60014	429.219	17.3865
-38.5979	435.013	17.406
-38.5958	426.728	17.4255
-38.5948	431.5253	17.4451
-38.5921	435.13	17.4646
-38.59127	430.346	17.4841
-38.5903	427.179	17.5037
-38.5882	437.495	17.5232
-38.5868	428.7988	17.5427
-38.5848	428.618	17.5623
-38.5828	433.839	17.5818
-38.5814	432.666	17.6013
-38.5806	424.036	17.62085
-38.5778	433.723	17.6404
-38.5769	431.021	17.6599
-38.5751	426.876	17.6794
-38.5729	434.241	17.699
-38.5712	432.915	17.7185
-38.5708	424.124	17.738
-38.5684	431.376	17.7576
-38.5672	434.581	17.7771
-38.5648	426.977	17.7966
-38.5631	428.998	17.8162
-38.5623	431.1	17.8357
-38.5602	426.444	17.8552
-38.55909	427.108	17.8748
-38.5575	433.963	17.8943
-38.5556	427.5874	17.9138
-38.5537	425.379	17.93335
-38.5516	429.913	17.9529
-38.5499	431.42	17.9724
-38.5485	423.133	17.9919
-38.5463	429.884	18.0115
-38.5458	430.953	18.031
-38.544	427.112	18.0505
-38.5424	424.664	18.0701
-38.5413	433.811	18.0896
-38.5388	425.7312	18.1091
-38.5378	427.769	18.1287
-38.5364	431.316	18.1482
-38.5342	426.453	18.1677
-38.5333	420.715	18.1873
-38.5296	431.812	18.2068
-38.529	427.921	18.2263
-38.5276	424.063	18.24585
-38.52552	429.188	18.2654
-38.5242	428.363	18.2849
-38.5234	420.957	18.3044
-38.5214	428.849	18.324
-38.5192	428.331	18.3435
-38.5183	422.559	18.363
-38.5155	426.828	18.3826
-38.5147	431.223	18.4021
-38.5133	422.127	18.4216
-38.5107	424.069	18.4412
-38.5093	431.649	18.4607
-38.5077	424.5065	18.4802
-38.5062	424.524	18.4998
-38.5051	425.83	18.5193
-38.5032	423.2984	18.5388
-38.50156	421.423	18.55835
-38.4995	428.032	18.5779
-38.4976	425.632	18.5974
-38.4971	421.796	18.6169
-38.4948	423.177	18.6365
-38.4935	429.297	18.656
-38.4917	419.214	18.6755
-38.4902	424.284	18.6951
-38.4882	428.919	18.7146
-38.4878	423.323	18.7341
-38.4847	418.588	18.7537
-38.483	429.159	18.7732
-38.4824	421.323	18.7927
-38.4808	421.917	18.8123
-38.4784	428.044	18.8318
-38.4773	424.817	18.8513
-38.4769	413.848	18.87085
-38.4737	425.565	18.8904
-38.4721	424.355	18.9099
-38.4705	420.853	18.9294
-38.4694	422.961	18.949
-38.4671	425.3494	18.9685
-38.4656	417.568	18.988
-38.46521	423.894	19.0076
-38.4614	426.684	19.0271
-38.461	418.292	19.0466
-38.4597	420.548	19.0662
-38.4572	424.826	19.0857
-38.4572	417.685	19.1052
-38.45406	418.766	19.1248
-38.4527	423.96	19.1443
-38.4523	422.941	19.1638
-38.4489	420.492	19.18335
-38.448	421.782	19.2029
-38.44577	422.6615	19.2224
-38.4445	416.761	19.2419
-38.44318	423.379	19.2615
-38.4412	425.342	19.281
-38.4392	418.535	19.3005
-38.4396	417.848	19.3201
-38.4365	425.948	19.3396
-38.4346	419.304	19.3591
-38.4332	420.061	19.3787
-38.4311	425.28	19.3982
-38.4294	421.577	19.4177
-38.4284	415.91	19.4373
-38.4286	426.788	19.4568
-38.4261	418.2438	19.4763
-38.4241	417.754	19.49585
-38.422	422.111	19.5154
-38.42025	422.938	19.5349
-38.4179	413.555	19.5544
-38.4165	423.62	19.574
-38.4158	421.662	19.5935
-38.413	416.621	19.613
-38.4122	419.966	19.6326
-38.4109	421.736	19.6521
-38.4088	414.778	19.6716
-38.4077	418.604	19.6912
-38.4054	422.911	19.7107
-38.404	417.878	19.7302
-38.4026	415.713	19.7498
-38.4008	422.131	19.7693
-38.3991	418.933	19.7888
-38.3974	413.883	19.80835
-38.3952	420.566	19.8279
-38.3952	420.56	19.8474
-38.3926	416.701	19.8669
-38.3915	417.975	19.8865
-38.388	421.085	19.906
-38.3875	414.507	19.9255
-38.3862	418.809	19.9451
-38.3838	424.127	19.9646
-38.3831	417.01	19.9841
-38.3806	412.252	20.0037
-38.3791	420.77	20.0134

Data Header:			0.254_hd_uprint_typeiv_090_r0			Time:	35.2036	s	4/13/2019 11:01:02 PM
Data Acquisition:	Timed
Station Name:	ft40.cfg
Test File Name:	monotonic_0.2540_typeiv_solid_4545_uprint.tst
Displacement	Force	Running Time
mm	N	s
-38.3801	422.455	20.0232
-38.3778	416.732	20.0427
-38.3761	415.84	20.0623
-38.3738	421.154	20.0818
-38.3734	420.517	20.1013
-38.3713	411.248	20.12085
-38.3698	422.392	20.1404
-38.3678	418.069	20.1599
-38.3666	415.88	20.1794
-38.364	419.735	20.199
-38.3632	421.697	20.2185
-38.3608	411.276	20.238
-38.3596	416.849	20.2576
-38.3581	420.191	20.2771
-38.3571	415.685	20.2966
-38.3554	416.151	20.3162
-38.3533	419.636	20.3357
-38.3526	413.37	20.3552
-38.3503	416.9801	20.3748
-38.3487	422.744	20.3943
-38.3472	417.285	20.4138
-38.3453	412.819	20.43335
-38.3435	418.049	20.4529
-38.3416	418.3031	20.4724
-38.3404	413.177	20.4919
-38.339	418.688	20.5115
-38.3364	419.227	20.531
-38.3366	415.53	20.5505
-38.3327	414.479	20.5701
-38.3323	421.3522	20.5896
-38.3315	414.308	20.6091
-38.32819	415.633	20.6287
-38.3294	421.386	20.6482
-38.325	417.203	20.6677
-38.3236	410.272	20.6873
-38.3225	421.208	20.7068
-38.3204	416.803	20.7263
-38.3204	413.324	20.74585
-38.3168	418.462	20.7654
-38.3165	416.559	20.7849
-38.3141	409.353	20.8044
-38.3126	418.655	20.824
-38.3108	418.256	20.8435
-38.31	411.326	20.863
-38.3078	414.335	20.8826
-38.3057	420.679	20.9021
-38.3037	410.759	20.9216
-38.3024	415.153	20.9412
-38.3013	418.154	20.9607
-38.3004	413.673	20.9802
-38.298	413.7713	20.9998
-38.2971	418.391	21.0193
-38.2949	410.962	21.0388
-38.2933	411.524	21.05835
-38.2917	419.345	21.0779
-38.2899	416.548	21.0974
-38.2892	411.488	21.1169
-38.2871	413.273	21.1365
-38.2843	417.346	21.156
-38.2842	412.309	21.1755
-38.2819	414.4679	21.1951
-38.28006	418.055	21.2146
-38.2793	413.883	21.2341
-38.2776	409.96	21.2537
-38.2749	420.538	21.2732
-38.2743	411.268	21.2927
-38.2716	412.663	21.3123
-38.26992	417.19	21.3318
-38.26918	416.7	21.3513
-38.2672	407.925	21.37085
-38.2652	416.244	21.3904
-38.2643	415.008	21.4099
-38.2615	412.429	21.4294
-38.26	415.309	21.449
-38.2592	418.4216	21.4685
-38.2583	407.993	21.488
-38.2563	414.517	21.5076
-38.2536	417.51	21.5271
-38.2531	411.964	21.5466
-38.2508	412.13	21.5662
-38.2496	418.432	21.5857
-38.2474	411.331	21.6052
-38.2466	410.284	21.6248
-38.2446	415.553	21.6443
-38.2426	414.972	21.6638
-38.2415	411.469	21.68335
-38.2402	414.935	21.7029
-38.2385	413.883	21.7224
-38.2362	409.339	21.7419
-38.2334	415.072	21.7615
-38.2327	417.663	21.781
-38.2305	412.1485	21.8005
-38.23003	410.6442	21.8201
-38.2272	416.376	21.8396
-38.2265	411.868	21.8591
-38.226	413.346	21.8787
-38.2234	417.585	21.8982
-38.2217	414.377	21.9177
-38.2204	407.47	21.9373
-38.21806	417.616	21.9568
-38.2162	413.906	21.9763
-38.2155	407.996	21.99585
-38.2133	416.086	22.0154
-38.2114	417.42	22.0349
-38.2085	404.364	22.0544
-38.2087	413.498	22.074
-38.2063	415.183	22.0935
-38.2046	410.067	22.113
-38.2041	413.1033	22.1326
-38.2021	418.956	22.1521
-38.20063	408.063	22.1716
-38.1992	412.811	22.1912
-38.1966	416.723	22.2107
-38.1961	412.348	22.2302
-38.1925	410.248	22.2498
-38.19202	415.527	22.2693
-38.1911	411.2504	22.2888
-38.1895	409.66	22.30835
-38.1875	414.031	22.3279
-38.1851	413.793	22.3474
-38.1833	410.351	22.3669
-38.1824	412.402	22.3865
-38.1802	414.187	22.406
-38.1783	409.224	22.4255
-38.1765	411.6546	22.4451
-38.1769	415.594	22.4646
-38.1743	411.624	22.4841
-38.1737	405.498	22.5037
-38.1714	415.1593	22.5232
-38.1698	411.318	22.5427
-38.1663	410.228	22.5623
-38.1662	415.4967	22.5818
-38.1647	413.151	22.6013
-38.1627	405.045	22.62085
-38.1622	415.441	22.6404
-38.1597	413.095	22.6599
-38.1572	407.7908	22.6794
-38.1562	411.526	22.699
-38.155	416.763	22.7185
-38.1528	406.032	22.738
-38.15205	412.977	22.7576
-38.1504	414.125	22.7771
-38.14846	410.219	22.7966
-38.1464	409.687	22.8162
-38.1439	414.3952	22.8357
-38.1439	406.682	22.8552
-38.1423	408.865	22.8748
-38.1409	414.196	22.8943
-38.1394	412.323	22.9138
-38.1376	407.063	22.93335
-38.1359	411.482	22.9529
-38.1345	412.504	22.9724
-38.1333	408.57	22.9919
-38.1304	411.947	23.0115
-38.1284	413.664	23.031
-38.1278	409.089	23.0505
-38.1268	410.596	23.0701
-38.1242	413.578	23.0896
-38.1227	407.044	23.1091
-38.12048	409.014	23.1287
-38.1184	413.08	23.1482
-38.1166	413.366	23.1677
-38.1162	404.6254	23.1873
-38.1146	413.7507	23.2068
-38.1112	411.434	23.2263
-38.1103	409.344	23.24585
-38.1098	412.77	23.2654
-38.1075	413.002	23.2849
-38.1064	402.637	23.3044
-38.1043	412.748	23.324
-38.1034	414.184	23.3435
-38.1014	409.167	23.363
-38.0993	409.903	23.3826
-38.0992	415.085	23.4021
-38.0957	406.074	23.4216
-38.0948	409.869	23.4412
-38.094	412.55	23.4607
-38.092	408.623	23.4802
-38.0915	408.4715	23.4998
-38.0885	414.32	23.5193
-38.0869	408.104	23.5388
-38.0849	408.423	23.55835
-38.0837	413.8905	23.5779
-38.0812	412.525	23.5974
-38.0808	407.34	23.6169
-38.0778	409.175	23.6365
-38.0765	410.869	23.656
-38.0746	407.446	23.6755
-38.074	409.222	23.6951
-38.0725	413.247	23.7146
-38.0701	407.759	23.7341
-38.06778	407.017	23.7537
-38.0667	413.6387	23.7732
-38.0653	409.74	23.7927
-38.0633	407.187	23.8123
-38.0622	411.924	23.8318
-38.0615	414.093	23.8513
-38.0594	404.096	23.87085
-38.0569	412.01	23.8904
-38.0562	410.503	23.9099
-38.0545	406.4368	23.9294
-38.0516	413.539	23.949
-38.0521	414.799	23.9685
-38.0485	403.266	23.988
-38.0466	411.728	24.0076
-38.0456	413.04	24.0271
-38.046	408.112	24.0466
-38.0423	408.976	24.0662
-38.0397	414.469	24.0857
-38.0379	407.517	24.1052
-38.0382	408.519	24.1248
-38.0354	411.569	24.1443
-38.03368	410.08	24.1638
-38.0329	405.751	24.18335
-38.0302	411.8898	24.2029
-38.0292	410.283	24.2224
-38.0271	406.398	24.2419
-38.0262	408.392	24.2615
-38.02401	411.457	24.281
-38.0223	409.228	24.3005
-38.0213	407.39	24.3201
-38.0195	410.865	24.3396
-38.0176	408.053	24.3591
-38.017	408.201	24.3787
-38.0147	413.246	24.3982
-38.0129	409.922	24.4177
-38.0119	404.09	24.4373
-38.011	413.881	24.4568
-38.0087	409.396	24.4763
-38.008	406.188	24.49585
-38.0052	413.005	24.5154
-38.00322	412.258	24.5349
-38.0008	404.117	24.5544
-37.9992	410.449	24.574
-37.9986	411.713	24.5935
-37.9969	406.177	24.613
-37.9964	408.137	24.6326
-37.99366	414.345	24.6521
-37.9925	403.489	24.6716
-37.99065	408.308	24.6912
-37.9895	412.821	24.7107
-37.9888	409.56	24.7302
-37.9852	407.948	24.7498
-37.9842	413.002	24.7693
-37.9828	407.72	24.7888
-37.9813	408.743	24.80835
-37.978	410.7424	24.8279
-37.9775	409.422	24.8474
-37.9762	405.5921	24.8669
-37.9739	409.701	24.8865
-37.9737	409.963	24.906
-37.9705	405.577	24.9255
-37.9694	407.799	24.9451
-37.9674	411.166	24.9646
-37.9654	407.534	24.9841
-37.9649	405.714	25.0037
-37.9634	410.625	25.0232
-37.9607	407.783	25.0427
-37.9602	406.45	25.0623
-37.9565	412.689	25.0818
-37.9567	410.552	25.1013
-37.9551	401.942	25.12085
-37.9533	411.219	25.1404
-37.9512	411.544	25.1599
-37.94862	405.906	25.1794
-37.9479	408.826	25.199
-37.9469	413.348	25.2185
-37.9443	403.26	25.238
-37.9433	409.093	25.2576
-37.9405	412.235	25.2771
-37.9392	406.827	25.2966
-37.9382	407.9	25.3162
-37.9369	414.0351	25.3357
-37.9365	403.94	25.3552
-37.9335	406.26	25.3748
-37.9318	411.494	25.3943
-37.9306	411.186	25.4138
-37.9283	406.372	25.43335
-37.92725	411.507	25.4529
-37.9261	406.637	25.4724
-37.9235	406.837	25.4919
-37.9226	409.753	25.5115
-37.92038	412.781	25.531
-37.9183	405.116	25.5505
-37.9171	408.207	25.5701
-37.9159	409.968	25.5896
-37.9139	407.339	25.6091
-37.9127	404.905	25.6287
-37.9107	411.98	25.6482
-37.9096	409.943	25.6677
-37.9075	403.924	25.6873
-37.9065	409.874	25.7068
-37.9042	408.185	25.7263
-37.902	404.882	25.74585
-37.9017	411.191	25.7654
-37.8996	412.915	25.7849
-37.8969	401.041	25.8044
-37.8963	410.522	25.824
-37.8941	411.876	25.8435
-37.8934	405.611	25.863
-37.8919	407.244	25.8826
-37.8892	414.6796	25.9021
-37.8881	403.264	25.9216
-37.8862	407.682	25.9412
-37.886	410.8327	25.9607
-37.8838	407.162	25.9802
-37.8819	405.545	25.9998
-37.8807	413.001	26.0193
-37.878	406.071	26.0388
-37.8759	403.757	26.05835
-37.8749	407.4115	26.0779
-37.8729	411.019	26.0974
-37.87109	405.341	26.1169
-37.8703	408.181	26.1365
-37.8684	406.68	26.156
-37.8672	406.247	26.1755
-37.865	407.3	26.1951
-37.8645	412.353	26.2146
-37.8628	405.069	26.2341
-37.8588	404.218	26.2537
-37.8579	409.261	26.2732
-37.8581	407.369	26.2927
-37.856	404.789	26.3123
-37.8536	408.9115	26.3318
-37.8524	408.417	26.3513
-37.85075	403.234	26.37085
-37.8486	410.197	26.3904
-37.8473	407.765	26.4099
-37.847	404.034	26.4294
-37.8436	408.369	26.449
-37.8433	413.4321	26.4685
-37.8399	402.263	26.488
-37.8398	408.23	26.5076
-37.8365	409.864	26.5271
-37.8366	408.099	26.5466
-37.8338	407.416	26.5662
-37.8325	412.299	26.5857
-37.8315	404.324	26.6052
-37.8291	406.136	26.6248
-37.8276	410.414	26.6443
-37.8261	407.872	26.6638
-37.824	401.64	26.68335
-37.8232	409.797	26.7029
-37.8215	407.2525	26.7224
-37.8204	404.567	26.7419
-37.8174	406.533	26.7615
-37.8147	410.856	26.781
-37.8158	404.427	26.8005
-37.8128	407.129	26.8201
-37.8103	408.345	26.8396
-37.8095	405.391	26.8591
-37.8078	407.08	26.8787
-37.8069	410.354	26.8982
-37.8054	407.095	26.9177
-37.8031	401.9057	26.9373
-37.802	409.224	26.9568
-37.8003	408.7	26.9763
-37.7984	403.101	26.99585
-37.7972	407.589	27.0154
-37.7944	411.598	27.0349
-37.7936	402.579	27.0544
-37.7918	407.6571	27.074
-37.7898	409.626	27.0935
-37.7883	403.004	27.113
-37.7874	407.088	27.1326
-37.7849	412.7749	27.1521
-37.7849	401.556	27.1716
-37.78083	405.746	27.1912
-37.7818	408.407	27.2107
-37.7784	407.636	27.2302
-37.7776	406.209	27.2498
-37.7758	411.905	27.2693
-37.773	402.882	27.2888
-37.7726	403.696	27.30835
-37.7713	409.927	27.3279
-37.7685	410.047	27.3474
-37.76807	404.4549	27.3669
-37.7663	408.229	27.3865
-37.7652	407.904	27.406
-37.7621	403.78	27.4255
-37.76152	403.781	27.4451
-37.75906	409.128	27.4646
-37.7582	405.164	27.4841
-37.7555	405.1	27.5037
-37.7546	407.523	27.5232
-37.753	404.5484	27.5427
-37.7514	402.753	27.5623
-37.7491	409.519	27.5818
-37.7487	408.6842	27.6013
-37.74609	400.355	27.62085
-37.7435	407.479	27.6404
-37.7425	408.684	27.6599
-37.7418	404.654	27.6794
-37.739	406.572	27.699
-37.7383	410.584	27.7185
-37.7373	400.698	27.738
-37.7343	406.816	27.7576
-37.7332	410.315	27.7771
-37.7332	404.879	27.7966
-37.7297	404.312	27.8162
-37.728	412.3432	27.8357
-37.7262	404.098	27.8552
-37.7253	403.543	27.8748
-37.7235	408.47	27.8943
-37.7218	408.011	27.9138
-37.72052	402.816	27.93335
-37.7184	408.465	27.9529
-37.71701	405.52	27.9724
-37.7147	404.559	27.9919
-37.7137	405.729	28.0115
-37.71233	409.866	28.031
-37.7105	403.291	28.0505
-37.7088	404.278	28.0701
-37.7077	405.686	28.0896
-37.7059	405.5773	28.1091
-37.7048	402.242	28.1287
-37.7018	408.649	28.1482
-37.7005	406.459	28.1677
-37.6992	402.396	28.1873
-37.6976	408.305	28.2068
-37.6971	405.476	28.2263
-37.6936	403.011	28.24585
-37.6928	407.191	28.2654
-37.6903	408.823	28.2849
-37.6897	400.701	28.3044
-37.6881	404.825	28.324
-37.6854	409.012	28.3435
-37.6851	403.223	28.363
-37.68264	405.02	28.3826
-37.68158	409.8269	28.4021
-37.6797	400.484	28.4216
-37.6773	404.077	28.4412
-37.67474	408.686	28.4607
-37.67514	403.954	28.4802
-37.6733	401.507	28.4998
-37.6706	410.119	28.5193
-37.66988	402.443	28.5388
-37.6683	401.85	28.55835
-37.6666	405.673	28.5779
-37.6662	406.312	28.5974
-37.664	402.918	28.6169
-37.6615	407.436	28.6365
-37.6597	406.351	28.656
-37.6585	402.4071	28.6755
-37.6582	404.323	28.6951
-37.6553	409.586	28.7146
-37.6533	403.867	28.7341
-37.6518	401.481	28.7537
-37.6509	405	28.7732
-37.6483	405.104	28.7927
-37.64904	401.214	28.8123
-37.6464	407.993	28.8318
-37.6433	406.244	28.8513
-37.6412	400.3562	28.87085
-37.63995	406.309	28.8904
-37.6387	406.798	28.9099
-37.6382	400.8541	28.9294
-37.6355	405.303	28.949
-37.6338	409.418	28.9685
-37.6317	398.694	28.988
-37.6308	402.177	29.0076
-37.629	407.188	29.0271
-37.6279	403.368	29.0466
-37.6261	401.452	29.0662
-37.6238	410.282	29.0857
-37.6218	401.2186	29.1052
-37.6213	401.542	29.1248
-37.6196	407.654	29.1443
-37.6185	406.45	29.1638
-37.61591	401.3075	29.18335
-37.6146	407.602	29.2029
-37.6134	401.935	29.2224
-37.6114	402.749	29.2419
-37.6098	404.262	29.2615
-37.6071	408.24	29.281
-37.6067	400.256	29.3005
-37.60463	403.949	29.3201
-37.6029	405.243	29.3396
-37.60117	404.881	29.3591
-37.6002	402.571	29.3787
-37.5977	410.277	29.3982
-37.596	403.992	29.4177
-37.5944	398.964	29.4373
-37.5935	403.087	29.4568
-37.5918	406.865	29.4763
-37.5903	400.2662	29.49585
-37.5871	404.848	29.5154
-37.5872	406.174	29.5349
-37.5854	398.734	29.5544
-37.5831	405.067	29.574
-37.5824	408.461	29.5935
-37.5807	400.16	29.613
-37.5787	403.568	29.6326
-37.5774	409.104	29.6521
-37.57571	399.99	29.6716
-37.5728	400.154	29.6912
-37.5719	405.914	29.7107
-37.5707	403.0751	29.7302
-37.5687	401.422	29.7498
-37.5673	410.12	29.7693
-37.5657	400.094	29.7888
-37.5644	400.749	29.80835
-37.5617	405.297	29.8279
-37.5599	407.588	29.8474
-37.5595	398.458	29.8669
-37.5572	403.855	29.8865
-37.556	404.815	29.906
-37.5552	402.181	29.9255
-37.5517	400.916	29.9451
-37.5507	407.191	29.9646
-37.549	401.643	29.9841
-37.5464	401.44	30.0037
-37.5469	403.352	30.0232
-37.5441	403.032	30.0427
-37.5434	399.369	30.0623
-37.541	406.555	30.0818
-37.5396	404.099	30.1013
-37.5376	398.592	30.12085
-37.5361	401.237	30.1404
-37.5346	406.186	30.1599
-37.5332	399.004	30.1794
-37.532	402.489	30.199
-37.5298	406.615	30.2185
-37.5285	398.286	30.238
-37.5275	401.845	30.2576
-37.5251	407.088	30.2771
-37.52298	400.606	30.2966
-37.5209	400.125	30.3162
-37.5207	407.037	30.3357
-37.5185	399.635	30.3552
-37.5165	400.078	30.3748
-37.5148	404.961	30.3943
-37.51292	403.774	30.4138
-37.5121	398.691	30.43335
-37.5103	405.438	30.4529
-37.50922	401.391	30.4724
-37.507	399.984	30.4919
-37.5059	404.088	30.5115
-37.505	408.755	30.531
-37.5024	400.005	30.5505
-37.5002	400.534	30.5701
-37.498	402.593	30.5896
-37.4973	402.427	30.6091
-37.4956	398.79	30.6287
-37.4941	406.293	30.6482
-37.4923	401.683	30.6677
-37.4906	398.988	30.6873
-37.48946	403.283	30.7068
-37.4864	404.542	30.7263
-37.4846	396.333	30.74585
-37.4842	404.08	30.7654
-37.4826	405.366	30.7849
-37.4825	397.4624	30.8044
-37.47929	399.861	30.824
-37.478	404.405	30.8435
-37.47691	399.4213	30.863
-37.4752	401.2	30.8826
-37.4729	406.94	30.9021
-37.4704	396.808	30.9216
-37.4699	397.761	30.9412
-37.4682	405.226	30.9607
-37.4664	400.001	30.9802
-37.4653	396.772	30.9998
-37.4628	403.841	31.0193
-37.4607	400.785	31.0388
-37.4599	398.141	31.05835
-37.4585	403.036	31.0779
-37.4563	402.8454	31.0974
-37.4549	397.871	31.1169
-37.4526	403.326	31.1365
-37.45105	402.671	31.156
-37.4503	399.136	31.1755
-37.4485	400.214	31.1951
-37.4464	406.435	31.2146
-37.4455	400.282	31.2341
-37.4441	398.841	31.2537
-37.4414	401.452	31.2732
-37.4408	401.74	31.2927
-37.4386	398.787	31.3123
-37.4367	405.154	31.3318
-37.4351	402.563	31.3513
-37.4338	397.332	31.37085
-37.4322	401.963	31.3904
-37.4317	405.305	31.4099
-37.429	396.372	31.4294
-37.428	400.98	31.449
-37.4259	405.538	31.4685
-37.4245	397.081	31.488
-37.4213	397.29	31.5076
-37.4214	404.194	31.5271
-37.4193	397.324	31.5466
-37.4176	398.444	31.5662
-37.4155	406.4371	31.5857
-37.41428	397.893	31.6052
-37.4131	396.5506	31.6248
-37.4101	403.676	31.6443
-37.4087	402.275	31.6638
-37.4077	397.115	31.68335
-37.4073	405.051	31.7029
-37.4044	401.389	31.7224
-37.4021	398.687	31.7419
-37.4023	401.339	31.7615
-37.4004	402.836	31.781
-37.3979	397.078	31.8005
-37.3963	399.781	31.8201
-37.395	402.108	31.8396
-37.3937	398.825	31.8591
-37.3924	396.698	31.8787
-37.3897	403.669	31.8982
-37.388	401.1543	31.9177
-37.3869	398.174	31.9373
-37.3841	400.171	31.9568
-37.3836	401.626	31.9763
-37.3816	394.598	31.99585
-37.3802	402.473	32.0154
-37.3789	400.9552	32.0349
-37.3767	394.618	32.0544
-37.3751	397.165	32.074
-37.3744	403.048	32.0935
-37.372	395.757	32.113
-37.37	398.537	32.1326
-37.3686	403.919	32.1521
-37.36665	396.733	32.1716
-37.36454	396.423	32.1912
-37.3636	401.47	32.2107
-37.3623	396.572	32.2302
-37.3606	397.074	32.2498
-37.3588	402.852	32.2693
-37.3574	397.089	32.2888
-37.3559	394.033	32.30835
-37.3548	399.19	32.3279
-37.3521	402.165	32.3474
-37.3514	395.2175	32.3669
-37.3497	400.3844	32.3865
-37.3487	398.918	32.406
-37.3462	396.703	32.4255
-37.3443	397.257	32.4451
-37.3431	401.269	32.4646
-37.3403	394.68	32.4841
-37.3393	396.065	32.5037
-37.33823	399.729	32.5232
-37.3356	398.888	32.5427
-37.3346	394.138	32.5623
-37.3319	400.813	32.5818
-37.331	399.52	32.6013
-37.3311	394.249	32.62085
-37.3284	396.732	32.6404
-37.3258	399.953	32.6599
-37.3251	393.967	32.6794
-37.3226	398.399	32.699
-37.32093	401.245	32.7185
-37.3193	393.097	32.738
-37.3174	392.026	32.7576
-37.3161	401.149	32.7771
-37.3148	394.101	32.7966
-37.3133	394.1871	32.8162
-37.3118	399.347	32.8357
-37.3097	393.887	32.8552
-37.3084	392.345	32.8748
-37.3078	398.338	32.8943
-37.3055	396.307	32.9138
-37.3034	391.418	32.93335
-37.30162	399.6153	32.9529
-37.3008	395.653	32.9724
-37.2985	390.888	32.9919
-37.2967	394.599	33.0115
-37.2949	399.095	33.031
-37.2947	390.728	33.0505
-37.2924	395.174	33.0701
-37.291	394.261	33.0896
-37.2903	393.165	33.1091
-37.2873	391.954	33.1287
-37.2868	398.205	33.1482
-37.2832	392.102	33.1677
-37.2826	389.415	33.1873
-37.281	393.943	33.2068
-37.2778	394.299	33.2263
-37.2783	387.563	33.24585
-37.2772	393.928	33.2654
-37.2739	396.211	33.2849
-37.2728	388.224	33.3044
-37.2716	388.745	33.324
-37.2693	394.41	33.3435
-37.2673	385.516	33.363
-37.26543	389.019	33.3826
-37.2658	385.843	33.4021
-37.2631	359.624	33.4216
-37.2584	-34.2259	33.4412
-37.2583	-41.1441	33.4607
-37.2566	-37.86758	33.4802
-37.2552	-44.1316	33.4998
-37.2543	-36.9429	33.5193
-37.2539	-42.9024	33.5388
-37.2512	-44.51173	33.55835
-37.249	-40.263	33.5779
-37.2485	-39.5933	33.5974
-37.245	-46.3349	33.6169
-37.2446	-38.7953	33.6365
-37.2438	-38.1482	33.656
-37.2413	-43.1576	33.6755
-37.2402	-43.5748	33.6951
-37.2377	-37.9562	33.7146
-37.236	-41.912	33.7341
-37.2357	-42.5025	33.7537
-37.2333	-42.5423	33.7732
-37.23127	-43.2064	33.7927
-37.2306	-46.4708	33.8123
-37.2286	-37.0109	33.8318
-37.2271	-40.55233	33.8513
-37.2242	-45.4218	33.87085
-37.2234	-43.5773	33.8904
-37.2221	-37.4086	33.9099
-37.2197	-46.1651	33.9294
-37.2183	-41.258	33.949
-37.2168	-39.4584	33.9685
-37.2146	-44.26553	33.988
-37.2141	-44.6027	34.0076
-37.2131	-38.4439	34.0271
-37.2107	-45.453	34.0466
-37.2095	-43.1703	34.0662
-37.2081	-35.6217	34.0857
-37.2049	-42.87323	34.1052
-37.2033	-46.9389	34.1248
-37.2029	-39.3271	34.1443
-37.2016	-40.9987	34.1638
-37.1991	-44.8798	34.18335
-37.1981	-39.60466	34.2029
-37.1965	-41.9906	34.2224
-37.194	-46.4437	34.2419
-37.1925	-42.8447	34.2615
-37.1901	-38.165	34.281
-37.19	-46.3682	34.3005
-37.1876	-41.1735	34.3201
-37.1872	-41.5794	34.3396
-37.1841	-43.18195	34.3591
-37.1838	-44.7354	34.3787
-37.1808	-37.2216	34.3982
-37.1794	-40.7052	34.4177
-37.179	-43.8642	34.4373
-37.1758	-42.5984	34.4568
-37.1749	-39.92	34.4763
-37.1741	-46.2581	34.49585
-37.1726	-38.36739	34.5154
-37.1708	-38.2181	34.5349
-37.1681	-46.6545	34.5544
-37.1674	-45.2172	34.574
-37.1658	-35.1786	34.5935
-37.1639	-45.7536	34.613
-37.1612	-43.4533	34.6326
-37.1615	-39.4824	34.6521
-37.1602	-44.2924	34.6716
-37.15704	-45.1964	34.6912
-37.1557	-36.767	34.7107
-37.15387	-44.5313	34.7302
-37.1525	-45.918	34.7498
-37.1505	-37.3293	34.7693
-37.1483	-43.01313	34.7888
-37.1474	-47.527	34.80835
-37.146	-42.2794	34.8279
-37.1444	-36.7582	34.8474
-37.1432	-45.1745	34.8669
-37.1397	-40.0246	34.8865
-37.139	-41.94	34.906
-37.1378	-45.8018	34.9255
-37.13599	-43.00642	34.9451
-37.13517	-37.3826	34.9646
-37.1335	-44.4613	34.9841
-37.1309	-43.7849	35.0037
-37.12867	-42.469	35.0232
-37.1282	-39.2145	35.0427
-37.1254	-44.9171	35.0623
-37.1245	-40.0214	35.0818
-37.122	-40.4763	35.1013
-37.1217	-44.1382	35.12085
-37.1197	-42.584	35.1404
-37.1196	-38.87936	35.1599
-37.1165	-47.7482	35.1794
-37.1166	-47.3125	35.1892