File: data/processed_data_files/tensile/0.254_solid_uprint_typei_090_r(5).dat
MTS793|BTW|ENU|1|2|.|/|:|1|0|0|A

Data Header:			0.254_solid_uprint_typei_090_r0			Time:	20.0198	s	4/15/2019 2:58:44 PM
Data Acquisition:	Timed
Station Name:	ft40.cfg
Test File Name:	monotonic_0.2540_typei_solid_090_uprint.tst
Displacement	Force	Running Time
mm	N	s
9.98154	-186.716	0.0227051
9.98157	-179.379	0.0422363
9.9828	-179.639	0.0617676
9.98417	-186.934	0.0812988
9.98685	-179.628	0.10083
9.98652	-177.324	0.120361
9.98927	-183.57	0.139893
9.99129	-178.05	0.159424
9.99147	-173.357	0.178955
9.99461	-177.509	0.198486
9.99595	-179.585	0.218018
9.99747	-170.213	0.237549
9.99975	-173.063	0.25708
10.0014	-174.884	0.276611
10.0019	-172.659	0.296143
10.0038	-168.8532	0.315674
10.0052	-174.361	0.335205
10.0062	-167.7121	0.354736
10.0087	-165.945	0.374268
10.0106	-170.058	0.393799
10.0107	-169.895	0.41333
10.0142	-158.216	0.432861
10.0154	-168.492	0.452393
10.0174	-165.88	0.471924
10.019	-158.396	0.491455
10.0198	-162.5	0.510986
10.0219	-166.36	0.530518
10.0238	-156.724	0.550049
10.0254	-161.006	0.56958
10.0261	-162.616	0.589111
10.0284	-153.153	0.608643
10.0289	-154.63	0.628174
10.0315	-164.56	0.647705
10.0337	-152.579	0.667236
10.03447	-150.98	0.686768
10.036	-157.5304	0.706299
10.0391	-152.506	0.72583
10.0393	-146.4931	0.745361
10.0399	-155.376	0.764893
10.042	-151.61	0.784424
10.0446	-143.378	0.803955
10.0469	-150.588	0.823486
10.04649	-147.959	0.843018
10.049	-142.514	0.862549
10.051	-144.362	0.88208
10.0531	-149.673	0.901611
10.0533	-140.567	0.921143
10.0554	-139.017	0.940674
10.0574	-144.3183	0.960205
10.05933	-140.86	0.979736
10.06065	-134.627	0.999268
10.0621	-144.49	1.0188
10.0634	-137.999	1.03833
10.0659	-132.159	1.05786
10.0675	-136.832	1.07739
10.0693	-140.4	1.09692
10.0701	-127.084	1.11646
10.0714	-134.64	1.13599
10.0744	-135.724	1.15552
10.07562	-125.463	1.17505
10.0768	-128.889	1.19458
10.0782	-133.688	1.21411
10.0805	-124.709	1.23364
10.0823	-125.4641	1.25317
10.0835	-130.183	1.27271
10.08545	-120.713	1.29224
10.0863	-118.821	1.31177
10.0873	-130.0549	1.3313
10.0892	-123.23	1.35083
10.09197	-116.356	1.37036
10.0939	-122.821	1.38989
10.0952	-119.297	1.40942
10.0965	-115.632	1.42896
10.0977	-118.63	1.44849
10.0995	-118.451	1.46802
10.1005	-110.8	1.48755
10.1026	-116.06	1.50708
10.1046	-116.022	1.52661
10.1068	-110.728	1.54614
10.1075	-108.597	1.56567
10.1095	-115.803	1.58521
10.1112	-108.66	1.60474
10.1123	-105.158	1.62427
10.1141	-109.546	1.6438
10.1166	-109.856	1.66333
10.1172	-101.0558	1.68286
10.1194	-109.955	1.70239
10.1204	-104.75	1.72192
10.1222	-96.608	1.74146
10.1241	-100.351	1.76099
10.1254	-108.463	1.78052
10.1272	-94.6435	1.80005
10.1296	-97.6553	1.81958
10.1312	-101.282	1.83911
10.1322	-93.6386	1.85864
10.1341	-93.2578	1.87817
10.13554	-99.0896	1.89771
10.1367	-90.93737	1.91724
10.1391	-91.0294	1.93677
10.14	-98.5784	1.9563
10.1416	-90.5132	1.97583
10.143	-86.4815	1.99536
10.1457	-92.4492	2.01489
10.14774	-90.8397	2.03442
10.1489	-83.0634	2.05396
10.1494	-87.895	2.07349
10.1516	-85.84948	2.09302
10.153	-80.84848	2.11255
10.1554	-83.2579	2.13208
10.1575	-86.7804	2.15161
10.15764	-77.0863	2.17114
10.161	-79.2738	2.19067
10.1617	-83.0574	2.21021
10.1636	-78.7669	2.22974
10.1638	-71.5029	2.24927
10.1664	-81.82412	2.2688
10.1681	-75.2787	2.28833
10.1692	-69.3509	2.30786
10.1712	-73.0884	2.32739
10.1729	-76.218	2.34692
10.1747	-64.3519	2.36646
10.1757	-71.9432	2.38599
10.1785	-70.4237	2.40552
10.1795	-62.1171	2.42505
10.1817	-64.0616	2.44458
10.18239	-73.9383	2.46411
10.1844	-60.0249	2.48364
10.18541	-61.4319	2.50317
10.1879	-66.9703	2.52271
10.1882	-59.0007	2.54224
10.1904	-55.8016	2.56177
10.1923	-64.5967	2.5813
10.1945	-57.4176	2.60083
10.1946	-52.1182	2.62036
10.1987	-60.2574	2.63989
10.1984	-57.4384	2.65942
10.20046	-49.6675	2.67896
10.2018	-54.797	2.69849
10.2034	-55.0145	2.71802
10.2064	-46.3677	2.73755
10.2076	-50.0861	2.75708
10.2087	-51.375	2.77661
10.2104	-47.4602	2.79614
10.2125	-45.2881	2.81567
10.2134	-51.2019	2.83521
10.21499	-42.1002	2.85474
10.2171	-39.9774	2.87427
10.2181	-45.4427	2.8938
10.2192	-44.4165	2.91333
10.221	-33.733	2.93286
10.2227	-42.17	2.95239
10.2251	-39.0942	2.97192
10.22628	-34.5252	2.99146
10.2278	-35.7083	3.01099
10.2294	-40.6166	3.03052
10.2322	-29.0187	3.05005
10.2325	-35.3831	3.06958
10.2344	-36.51289	3.08911
10.237	-26.6348	3.10864
10.238	-25.1416	3.12817
10.2391	-35.6762	3.14771
10.2409	-26.4522	3.16724
10.2424	-24.74267	3.18677
10.2447	-30.4724	3.2063
10.2466	-23.7349	3.22583
10.2485	-20.4315	3.24536
10.2493	-27.8762	3.26489
10.25013	-23.7906	3.28442
10.2528	-17.1161	3.30396
10.2538	-23.7395	3.32349
10.2563	-20.9728	3.34302
10.2572	-14.2606	3.36255
10.25993	-16.3982	3.38208
10.2598	-20.7032	3.40161
10.2628	-12.8555	3.42114
10.2641	-11.68108	3.44067
10.2652	-14.9285	3.46021
10.2673	-11.3875	3.47974
10.26881	-6.87058	3.49927
10.27036	-15.6564	3.5188
10.2724	-8.79887	3.53833
10.274	-1.968513	3.55786
10.2749	-7.98869	3.57739
10.2772	-10.2639	3.59692
10.2779	1.114361	3.61646
10.2801	-5.40014	3.63599
10.282	-4.77652	3.65552
10.2839	2.53307	3.67505
10.28499	1.77601	3.69458
10.2859	-6.981257	3.71411
10.2885	7.368639	3.73364
10.2899	4.16515	3.75317
10.2915	-0.597953	3.77271
10.2939	9.29371	3.79224
10.2949	11.2028	3.81177
10.2971	1.43322	3.8313
10.2986	8.1447	3.85083
10.3	12.858	3.87036
10.3013	7.73496	3.88989
10.3028	11.2439	3.90942
10.3043	17.5588	3.92896
10.3063	9.6664	3.94849
10.3085	11.6338	3.96802
10.3097	21.2645	3.98755
10.3115	16.8918	4.00708
10.31269	14.1017	4.02661
10.3141	20.3527	4.04614
10.3159	23.615	4.06567
10.3164	14.6042	4.08521
10.319	24.8238	4.10474
10.3208	28.1833	4.12427
10.3235	23.0319	4.1438
10.3239	23.4719	4.16333
10.3254	33.30397	4.18286
10.3276	22.4709	4.20239
10.328	26.6013	4.22192
10.3305	36.5734	4.24146
10.3314	32.2576	4.26099
10.3341	25.9633	4.28052
10.3357	37.94659	4.30005
10.33603	34.1978	4.31958
10.3381	33.1758	4.33911
10.34	39.616	4.35864
10.3409	39.2954	4.37817
10.3447	32.4014	4.39771
10.3439	43.2247	4.41724
10.3466	43.39	4.43677
10.3485	38.3168	4.4563
10.35	44.4316	4.47583
10.3515	49.6245	4.49536
10.3534	41.1287	4.51489
10.3557	45.3927	4.53442
10.3565	52.2693	4.55396
10.3585	46.8169	4.57349
10.3602	48.397	4.59302
10.3604	53.3256	4.61255
10.3626	51.2731	4.63208
10.3639	48.06815	4.65161
10.3671	58.3233	4.67114
10.3686	57.99456	4.69067
10.36833	51.6505	4.71021
10.3711	56.5774	4.72974
10.3738	62.1364	4.74927
10.374	54.1475	4.7688
10.3753	60.9003	4.78833
10.3779	65.1702	4.80786
10.3794	61.2637	4.82739
10.38129	57.5554	4.84692
10.3818	70.6803	4.86646
10.3849	62.4379	4.88599
10.3867	62.6052	4.90552
10.3866	71.6007	4.92505
10.38919	71.8284	4.94458
10.3895	62.4124	4.96411
10.3928	74.4254	4.98364
10.3941	72.7783	5.00317
10.3955	68.4035	5.02271
10.3966	76.891	5.04224
10.39881	79.167	5.06177
10.4005	69.4059	5.0813
10.4035	77.5689	5.10083
10.4037	82.8444	5.12036
10.4051	75.2537	5.13989
10.4067	78.7106	5.15942
10.4081	85.85614	5.17896
10.4102	80.2401	5.19849
10.4117	79.0948	5.21802
10.4131	88.11	5.23755
10.415	84.36	5.25708
10.416	85.3083	5.27661
10.4177	89.8911	5.29614
10.4197	91.5325	5.31567
10.4218	83.7933	5.33521
10.4229	93.1652	5.35474
10.425	95.635	5.37427
10.4268	92.2923	5.3938
10.428	89.464	5.41333
10.4294	101.299	5.43286
10.4317	92.3206	5.45239
10.43333	96.2359	5.47192
10.43423	103.572	5.49146
10.4371	99.7716	5.51099
10.4382	94.1959	5.53052
10.4399	107.681	5.55005
10.441	102.81	5.56958
10.4426	98.82914	5.58911
10.4446	108.56	5.60864
10.446	109.892	5.62817
10.4479	101.5742	5.64771
10.4498	110.743	5.66724
10.4506	111.544	5.68677
10.45202	106.574	5.7063
10.4543	113.4325	5.72583
10.45559	115.964	5.74536
10.4578	107.6029	5.76489
10.4592	113.2664	5.78442
10.461	122.1505	5.80396
10.4614	116.351	5.82349
10.4635	114.96	5.84302
10.466	122.137	5.86255
10.4659	121.051	5.88208
10.4687	117.978	5.90161
10.4703	125.127	5.92114
10.4714	125.338	5.94067
10.4735	122.326	5.96021
10.4745	126.063	5.97974
10.47594	131.599	5.99927
10.4793	121.732	6.0188
10.4815	128.71	6.03833
10.4815	137.213	6.05786
10.4834	130.395	6.07739
10.4843	126.846	6.09692
10.4873	138.513	6.11646
10.4886	131.861	6.13599
10.4908	133.573	6.15552
10.4912	142.361	6.17505
10.4927	138.298	6.19458
10.4946	131.67	6.21411
10.4969	144.017	6.23364
10.4972	142.559	6.25317
10.4983	136.911	6.27271
10.5017	145.038	6.29224
10.5031	147.1563	6.31177
10.50478	138.958	6.3313
10.50554	147.157	6.35083
10.5076	149.87	6.37036
10.5099	146.363	6.38989
10.5112	149.855	6.40942
10.5125	155.388	6.42896
10.514	148.985	6.44849
10.5159	148.955	6.46802
10.5169	158.856	6.48755
10.5197	155.652	6.50708
10.5198	152.993	6.52661
10.5224	158.034	6.54614
10.5241	162.3918	6.56567
10.5248	154.857	6.58521
10.5276	163.536	6.60474
10.5288	164.985	6.62427
10.531	160.135	6.6438
10.53243	162.835	6.66333
10.5337	171.678	6.68286
10.5364	160.965	6.70239
10.5377	165.455	6.72192
10.5385	172.285	6.74146
10.5408	170.853	6.76099
10.5422	163.63	6.78052
10.5438	177.244	6.80005
10.546	172.283	6.81958
10.5469	171.551	6.83911
10.5482	179.863	6.85864
10.5499	178.896	6.87817
10.552	170.272	6.89771
10.5536	180.405	6.91724
10.5559	183.407	6.93677
10.5567	175.531	6.9563
10.5582	181.2346	6.97583
10.5593	186.64	6.99536
10.5624	178.112	7.01489
10.5628	182.828	7.03442
10.5648	188.377	7.05396
10.566	183.402	7.07349
10.5681	185.325	7.09302
10.5698	192.27	7.11255
10.57133	190.425	7.13208
10.57348	184.393	7.15161
10.5745	195.337	7.17114
10.57618	195.905	7.19067
10.5781	192.699	7.21021
10.5802	193.448	7.22974
10.5811	199.156	7.24927
10.5829	193.313	7.2688
10.5847	198.928	7.28833
10.58532	203.983	7.30786
10.5863	197.719	7.32739
10.5885	196.791	7.34692
10.5924	210.0627	7.36646
10.5915	201.224	7.38599
10.5942	200.784	7.40552
10.5961	209.6647	7.42505
10.5969	207.6192	7.44458
10.5987	201.44	7.46411
10.6008	212.128	7.48364
10.6022	210.488	7.50317
10.6033	206.928	7.52271
10.6064	215.665	7.54224
10.6074	217.0619	7.56177
10.6088	205.241	7.5813
10.6104	215.133	7.60083
10.6123	221.189	7.62036
10.6147	212.696	7.63989
10.6149	214.817	7.65942
10.6169	222.366	7.67896
10.6182	218.043	7.69849
10.6201	217.455	7.71802
10.622	226.46	7.73755
10.62222	222.237	7.75708
10.6248	221.473	7.77661
10.6266	226.568	7.79614
10.6282	228.886	7.81567
10.63	219.441	7.83521
10.6314	230.471	7.85474
10.6338	235.795	7.87427
10.6339	228.207	7.8938
10.6359	228.537	7.91333
10.6375	239.1467	7.93286
10.6407	229.415	7.95239
10.6402	232.754	7.97192
10.6429	241.626	7.99146
10.6442	236.233	8.01099
10.6462	231.718	8.03052
10.6475	246.549	8.05005
10.6501	240.887	8.06958
10.6502	234.8685	8.08911
10.6514	247.509	8.10864
10.6546	246.108	8.12817
10.6554	237.577	8.14771
10.6579	247.475	8.16724
10.659	248.543	8.18677
10.6606	242.572	8.2063
10.6628	251.06	8.22583
10.6637	253.805	8.24536
10.6657	245.131	8.26489
10.6676	247.244	8.28442
10.6684	257.802	8.30396
10.6703	252.275	8.32349
10.6725	252.122	8.34302
10.6723	258.315	8.36255
10.6753	256.061	8.38208
10.6777	253.371	8.40161
10.6789	263.195	8.42114
10.6799	260.899	8.44067
10.6808	258.338	8.46021
10.68394	262.802	8.47974
10.6855	269.022	8.49927
10.6866	257.963	8.5188
10.6878	265.165	8.53833
10.6896	271.9913	8.55786
10.6909	266.568	8.57739
10.69402	263.5965	8.59692
10.6957	275.62	8.61646
10.6967	268.5152	8.63599
10.6992	268.987	8.65552
10.6997	277.609	8.67505
10.7011	273.641	8.69458
10.7024	268.299	8.71411
10.7053	280.221	8.73364
10.70615	279.159	8.75317
10.7082	274.5	8.77271
10.7094	281.331	8.79224
10.7114	285.37	8.81177
10.7141	276.235	8.8313
10.7139	284.935	8.85083
10.71663	286.93	8.87036
10.7175	281.347	8.88989
10.7191	284.711	8.90942
10.721	292.5162	8.92896
10.7219	284.75	8.94849
10.7242	284.988	8.96802
10.7261	296.462	8.98755
10.7271	292.631	9.00708
10.7287	289.665	9.02661
10.7311	293.953	9.04614
10.7323	296.408	9.06567
10.7342	288.762	9.08521
10.7357	299.8685	9.10474
10.7371	301.553	9.12427
10.7388	295.228	9.1438
10.7408	297.218	9.16333
10.7421	308.2742	9.18286
10.7428	298.179	9.20239
10.7457	299.3876	9.22192
10.7471	309.68	9.24146
10.7485	306.687	9.26099
10.75	300.291	9.28052
10.752	312.991	9.30005
10.754	305.84	9.31958
10.756	305.726	9.33911
10.7566	315.916	9.35864
10.7588	314.115	9.37817
10.7598	304.2522	9.39771
10.7613	315.364	9.41724
10.7626	318.982	9.43677
10.7638	311.083	9.4563
10.767	317.838	9.47583
10.7676	321.838	9.49536
10.76953	315.611	9.51489
10.7715	319.063	9.53442
10.77286	326.482	9.55396
10.7747	318.016	9.57349
10.7768	321.106	9.59302
10.7777	327.159	9.61255
10.7795	327.8624	9.63208
10.7817	319.948	9.65161
10.78323	331.085	9.67114
10.7845	331.08	9.69067
10.786	326.209	9.71021
10.7879	329.115	9.72974
10.7893	334.2356	9.74927
10.79091	327.268	9.7688
10.79263	334.334	9.78833
10.7935	341.137	9.80786
10.7954	332.49	9.82739
10.79792	329.654	9.84692
10.7985	346.349	9.86646
10.8007	335.765	9.88599
10.802	334.5466	9.90552
10.8042	345.717	9.92505
10.8054	342.752	9.94458
10.8086	336.88	9.96411
10.809	348.579	9.98364
10.81037	346.367	10.0032
10.8109	340.423	10.0227
10.8137	349.503	10.0422
10.8154	352.733	10.0618
10.8159	342.069	10.0813
10.8183	350.474	10.10083
10.8202	357.14	10.1204
10.8221	348.304	10.1399
10.8237	352.81	10.1594
10.8256	358.09	10.179
10.827	354.428	10.1985
10.8274	351.131	10.218
10.8302	362.249	10.2375
10.8315	357.5224	10.25708
10.8326	355.291	10.2766
10.8347	362.49	10.2961
10.8359	365.352	10.3157
10.8381	355.164	10.3352
10.8392	365.286	10.3547
10.8407	369.069	10.3743
10.8433	363.148	10.3938
10.8443	364.838	10.41333
10.8465	373.597	10.4329
10.8483	363.233	10.4524
10.851	367.734	10.4719
10.8508	376.864	10.4915
10.85217	370.9	10.511
10.8535	367.03	10.5305
10.85663	381.239	10.55
10.8581	376.626	10.56958
10.8595	370.21	10.5891
10.861	380.003	10.6086
10.8622	381.24	10.6282
10.8645	373.932	10.6477
10.8656	382.209	10.6672
10.8683	384.14	10.6868
10.8695	375.768	10.7063
10.8703	384.53	10.72583
10.8733	389.575	10.7454
10.8747	381.882	10.7649
10.8752	383.695	10.7844
10.8767	392.307	10.804
10.8788	387.86	10.8235
10.8807	386.672	10.843
10.8823	392.781	10.8625
10.8822	392.166	10.88208
10.8856	388.33	10.9016
10.8869	397.856	10.9211
10.8887	395.661	10.9407
10.8906	390.29	10.9602
10.8919	394.564	10.9797
10.8938	402.964	10.9993
10.8959	393.265	11.0188
10.8968	398.378	11.03833
10.8983	406.48	11.0579
10.8998	399.993	11.0774
10.901	398.326	11.0969
10.9028	409.549	11.1165
10.9047	401.216	11.136
10.9064	401.627	11.1555
10.9081	413.242	11.175
10.9095	409.015	11.19458
10.9127	399.434	11.2141
10.9137	414.47	11.2336
10.9143	414.202	11.2532
10.9163	405.9617	11.2727
10.9183	414.563	11.2922
10.9195	416.844	11.3118
10.9217	408.805	11.3313
10.9231	416.842	11.35083
10.9244	420.669	11.3704
10.925	411.526	11.3899
10.9279	417.242	11.4094
10.92857	424.871	11.429
10.9313	418.6308	11.4485
10.9329	416.471	11.468
10.9342	428.008	11.4875
10.9365	424.9581	11.50708
10.9375	420.969	11.5266
10.93921	426.233	11.5461
10.9407	430.332	11.5657
10.9418	421.217	11.5852
10.943	432.485	11.6047
10.946	434.93	11.6243
10.94789	425.934	11.6438
10.94957	428.882	11.66333
10.9498	441.615	11.6829
10.9517	429.802	11.7024
10.953	432.376	11.7219
10.9558	441.353	11.7415
10.957	436.44	11.761
10.9581	432.158	11.7805
10.9599	444.806	11.8
10.9621	439.346	11.81958
10.9639	436.4686	11.8391
10.9648	446.779	11.8586
10.9667	445.8866	11.8782
10.96804	434.6492	11.8977
10.9701	446.656	11.9172
10.9714	451.225	11.9368
10.9741	441.801	11.9563
10.9752	447.5502	11.97583
10.97597	453.251	11.9954
10.9781	446.089	12.0149
10.9795	448.87	12.0344
10.9821	458.281	12.054
10.9836	450.141	12.0735
10.9835	449.864	12.093
10.9865	458.035	12.1125
10.9875	458.092	12.13208
10.9902	449.532	12.1516
10.9914	461.453	12.1711
10.9923	461.4707	12.1907
10.9938	457.418	12.2102
10.99494	460.325	12.2297
10.9977	466.203	12.2493
10.9992	456.013	12.2688
11.001	464.724	12.28833
11.00294	472.4404	12.3079
11.0033	462.199	12.3274
11.0059	461.8884	12.3469
11.0081	475.557	12.3665
11.00935	468.408	12.386
11.011	464.695	12.4055
11.0123	476.465	12.425
11.0132	470.783	12.44458
11.0155	466.341	12.4641
11.0167	478.929	12.4836
11.0181	478.29	12.5032
11.0206	469.768	12.5227
11.0226	480.123	12.5422
11.0231	482.486	12.5618
11.0255	472.718	12.5813
11.02742	477.078	12.60083
11.0284	485.642	12.6204
11.0298	477.893	12.6399
11.03194	480.841	12.6594
11.0325	486.176	12.679
11.0346	484.897	12.6985
11.0371	481.241	12.718
11.0394	493.1886	12.7375
11.0403	488.301	12.75708
11.0417	484.041	12.7766
11.0437	491.724	12.7961
11.0448	494.4628	12.8157
11.04557	485.816	12.8352
11.0471	496.175	12.8547
11.0499	497.422	12.8743
11.0508	492.975	12.8938
11.0519	492.1637	12.91333
11.054	502.1236	12.9329
11.0561	493.0257	12.9524
11.058	497.386	12.9719
11.05952	506.508	12.9915
11.06163	498.158	13.011
11.0618	493.9166	13.0305
11.0651	507.532	13.05
11.0653	503.992	13.06958
11.0678	497.449	13.0891
11.0688	509.6777	13.1086
11.0713	508.462	13.1282
11.0724	500.729	13.1477
11.0735	511.955	13.1672
11.0759	512.699	13.1868
11.0785	503.264	13.2063
11.0784	511.842	13.22583
11.081	516.735	13.2454
11.0828	511.5444	13.2649
11.0837	509.655	13.2844
11.0856	522.188	13.304
11.0876	515.806	13.3235
11.08779	516.383	13.343
11.0909	520.377	13.3625
11.09183	519.3905	13.38208
11.094	513.645	13.4016
11.0942	526.969	13.4211
11.097	523.819	13.4407
11.0994	518.157	13.4602
11.1001	521.826	13.4797
11.1013	530.753	13.4993
11.1029	519.726	13.5188
11.1048	526.848	13.53833
11.1065	533.557	13.5579
11.1083	525.485	13.5774
11.1097	525.273	13.5969
11.1113	537.336	13.6165
11.113	529.431	13.636
11.11429	527.002	13.6555
11.1161	541.23	13.675
11.1176	535.497	13.69458
11.121	528.1947	13.7141
11.1223	540.283	13.7336
11.1233	541.8313	13.7532
11.12473	532.939	13.7727
11.1265	541.354	13.7922
11.1278	541.782	13.8118
11.1307	537.504	13.8313
11.1299	542.301	13.85083
11.1326	549.984	13.8704
11.1354	539.948	13.8899
11.1358	544.554	13.9094
11.1376	550.426	13.929
11.1391	547.533	13.9485
11.1408	543.745	13.968
11.1431	554.245	13.9875
11.144	551.878	14.00708
11.1456	548.739	14.0266
11.14687	553.638	14.0461
11.1484	556.57	14.0657
11.1508	547.408	14.0852
11.1522	557.639	14.1047
11.1541	561.573	14.1243
11.155	552.5531	14.1438
11.1579	552.693	14.16333
11.1595	566.219	14.1829
11.16002	554.916	14.2024
11.1625	558.096	14.2219
11.1636	566.529	14.2415
11.1656	559.864	14.261
11.1666	558.7785	14.2805
11.1687	568.588	14.3
11.1711	565.757	14.31958
11.1725	560.743	14.3391
11.1737	573.104	14.3586
11.1746	570.266	14.3782
11.1763	563.201	14.3977
11.1777	569.754	14.4172
11.1799	576.661	14.4368
11.1824	567.255	14.4563
11.1828	575.61	14.47583
11.1848	575.568	14.4954
11.1871	572.63	14.5149
11.1886	573.794	14.5344
11.1906	583.106	14.554
11.1923	574.304	14.5735
11.1932	573.481	14.593
11.1934	580.95	14.6125
11.1968	581.007	14.63208
11.1982	574.822	14.6516
11.201	585.449	14.6711
11.2006	586.006	14.6907
11.2035	580.601	14.7102
11.2043	584.1557	14.7297
11.206	590.7854	14.7493
11.2075	580.456	14.7688
11.21	588.022	14.78833
11.2116	594.878	14.8079
11.2128	585.585	14.8274
11.2139	585.6264	14.8469
11.2157	597.44	14.8665
11.2168	591.368	14.886
11.2193	588.574	14.9055
11.2205	599.2887	14.925
11.2228	594.429	14.94458
11.2243	591.128	14.9641
11.225	601.766	14.9836
11.2269	601.982	15.0032
11.2291	592.506	15.0227
11.2314	603.623	15.0422
11.232	603.146	15.0618
11.2332	598.473	15.0813
11.23445	601.358	15.10083
11.2358	610.121	15.1204
11.2382	601.518	15.1399
11.241	605.335	15.1594
11.2418	608.96	15.179
11.2424	607.083	15.1985
11.2446	605.173	15.218
11.2462	616.345	15.2375
11.2486	611.425	15.25708
11.2493	607.3869	15.2766
11.2523	612.334	15.2961
11.2526	618.987	15.3157
11.2551	607.295	15.3352
11.256	617.173	15.3547
11.2568	621.111	15.3743
11.2592	615.013	15.3938
11.2612	615.873	15.41333
11.2639	623.436	15.4329
11.26461	615.5401	15.4524
11.2654	617.878	15.4719
11.2675	629.714	15.4915
11.2692	622.028	15.511
11.2712	616.32	15.5305
11.2729	629.81	15.55
11.2747	627.91	15.56958
11.2755	620.658	15.5891
11.2767	632.719	15.6086
11.2798	629.2298	15.6282
11.2805	625.016	15.6477
11.28231	632.349	15.6672
11.2843	636.716	15.6868
11.28536	627.5755	15.7063
11.2866	634.299	15.72583
11.2885	636.826	15.7454
11.2912	633.71	15.7649
11.292	631.435	15.7844
11.2949	642.205	15.804
11.29509	637.482	15.8235
11.2972	637.7038	15.843
11.2995	642.216	15.8625
11.3007	642.086	15.88208
11.3019	634.9577	15.9016
11.3047	645.845	15.9211
11.3053	646.29	15.9407
11.30706	639.514	15.9602
11.3081	644.308	15.9797
11.3092	651.771	15.9993
11.3114	641.085	16.0188
11.3133	646.628	16.03833
11.3158	653.566	16.0579
11.3164	646.376	16.0774
11.3176	648.863	16.0969
11.3189	656.5238	16.1165
11.3211	650.13	16.136
11.3227	648.1145	16.1555
11.3254	661.328	16.175
11.3269	655.09	16.19458
11.32791	648.836	16.2141
11.3297	659.62	16.2336
11.3309	661.556	16.2532
11.3322	654.59	16.2727
11.3342	662.243	16.2922
11.3357	660.23	16.3118
11.3375	658.056	16.3313
11.3387	661.244	16.35083
11.3415	669.527	16.3704
11.3421	659.735	16.3899
11.344	664.38	16.4094
11.3456	670.421	16.429
11.3475	668.577	16.4485
11.3491	662.085	16.468
11.3507	672.781	16.4875
11.3523	671.232	16.50708
11.3546	667.073	16.5266
11.3555	672.022	16.5461
11.3575	674.576	16.5657
11.3588	665.9491	16.5852
11.36	677	16.6047
11.36288	680.54	16.6243
11.3634	669.715	16.6438
11.3662	672.177	16.66333
11.367	683.181	16.6829
11.3683	674.714	16.7024
11.3699	674.925	16.7219
11.3725	686.874	16.7415
11.3734	678.19	16.761
11.3753	678.371	16.7805
11.3769	687.7121	16.8
11.3778	684.608	16.81958
11.3806	679.068	16.8391
11.3818	689.407	16.8586
11.3826	686.681	16.8782
11.3849	683.149	16.8977
11.3864	687.293	16.9172
11.3891	695.109	16.9368
11.39	685.816	16.9563
11.3922	692.67	16.97583
11.3927	694.835	16.9954
11.3941	690.334	17.0149
11.3966	691.167	17.0344
11.3978	701.372	17.054
11.3994	694.476	17.0735
11.40124	693.037	17.093
11.4023	699.673	17.1125
11.4042	699.222	17.13208
11.4064	693.489	17.1516
11.4066	702.474	17.1711
11.40903	702.897	17.1907
11.4102	697.165	17.2102
11.4125	702.923	17.2297
11.4149	707.62	17.2493
11.4161	697.925	17.2688
11.4174	705.643	17.28833
11.4196	713.662	17.3079
11.4205	702.0437	17.3274
11.4214	703.196	17.3469
11.4244	713.817	17.3665
11.425	708.923	17.386
11.4272	704.902	17.4055
11.4284	717.479	17.425
11.431	710.277	17.44458
11.4322	709.738	17.4641
11.4337	718.465	17.4836
11.4359	718.001	17.5032
11.4363	708.506	17.5227
11.4387	719.663	17.5422
11.4404	718.932	17.5618
11.4424	714.1991	17.5813
11.4433	715.772	17.60083
11.4447	724.506	17.6204
11.4467	717.152	17.6399
11.4481	721.025	17.6594
11.4505	723.004	17.679
11.4518	722.48	17.6985
11.4528	719.4798	17.718
11.4547	730.641	17.7375
11.4571	727.823	17.75708
11.4592	720.895	17.7766
11.4601	729.061	17.7961
11.4618	732.634	17.8157
11.4627	722.208	17.8352
11.4651	730.009	17.8547
11.4665	735.064	17.8743
11.4678	726.604	17.8938
11.46877	731.399	17.91333
11.4708	737.734	17.9329
11.4726	729.1322	17.9524
11.4732	730.106	17.9719
11.4754	744.253	17.9915
11.4765	732.719	18.011
11.4789	732.158	18.0305
11.4807	740.799	18.05
11.4811	740.723	18.06958
11.4838	735.153	18.0891
11.4862	745.9	18.1086
11.4871	741.195	18.1282
11.49	737.709	18.1477
11.4903	743.977	18.1672
11.4918	748.69	18.1868
11.4939	739.717	18.2063
11.4955	748.149	18.22583
11.4976	750.086	18.2454
11.499	746.4361	18.2649
11.4996	743.168	18.2844
11.5017	756.098	18.304
11.5037	749.425	18.3235
11.505	749.474	18.343
11.5065	753.18	18.3625
11.5083	753.953	18.38208
11.5101	746.258	18.4016
11.5129	757.8067	18.4211
11.5132	759.114	18.4407
11.5153	750.392	18.4602
11.5168	755.548	18.4797
11.5179	762.5946	18.4993
11.5201	753.011	18.5188
11.5217	758.201	18.53833
11.52259	766.128	18.5579
11.5244	756.284	18.5774
11.5262	758.001	18.5969
11.529	768.757	18.6165
11.52898	759.756	18.636
11.531	760.107	18.6555
11.532	771.334	18.675
11.5349	764.17	18.69458
11.5364	760.55	18.7141
11.5379	768.933	18.7336
11.54	770.919	18.7532
11.5419	763.957	18.7727
11.5428	772.428	18.7922
11.5442	772.411	18.8118
11.54542	766.814	18.8313
11.5479	770.907	18.85083
11.5488	777.9668	18.8704
11.5509	769.43	18.8899
11.5531	772.182	18.9094
11.5537	777.871	18.929
11.5555	777.263	18.9485
11.5582	772.113	18.968
11.5587	781.972	18.9875
11.5602	780.127	19.00708
11.5625	774.862	19.0266
11.5638	780.46	19.0461
11.5661	782.346	19.0657
11.5665	775.272	19.0852
11.5691	782.923	19.1047
11.5706	789.27	19.1243
11.5723	777.5791	19.1438
11.5737	781.932	19.16333
11.5752	789.4176	19.1829
11.5764	783.2301	19.2024
11.5773	782.682	19.2219
11.5804	794.907	19.2415
11.5813	784.393	19.261
11.5828	786.795	19.2805
11.5849	794.848	19.3
11.5866	792.8385	19.31958
11.5886	786.307	19.3391
11.5891	798.8656	19.3586
11.5908	794.019	19.3782
11.5922	790.4776	19.3977
11.5949	795.002	19.4172
11.59663	800.903	19.4368
11.5969	792.948	19.4563
11.5995	799.437	19.47583
11.6019	801.561	19.4954
11.6032	796.638	19.5149
11.6047	796.58	19.5344
11.6054	807.178	19.554
11.6076	799.823	19.5735
11.6093	798.148	19.593
11.6124	805.503	19.6125
11.6126	805.198	19.63208
11.61299	799.079	19.6516
11.6159	807.429	19.6711
11.6172	810.414	19.6907
11.6189	802.369	19.7102
11.6206	809.03	19.7297
11.6211	812.57	19.7493
11.6245	804.018	19.7688
11.6249	807.563	19.78833
11.6269	819.92	19.8079
11.6289	806.277	19.8274
11.6302	809.384	19.8469
11.6318	817.6795	19.8665
11.6342	812.945	19.886
11.6355	808.854	19.9055
11.6371	820.466	19.925
11.6381	813.096	19.94458
11.6397	812.865	19.9641
11.6412	818.062	19.9836
11.644	820.994	20.0032
11.6446	815.455	20.0129

Data Header:			0.254_solid_uprint_typei_090_r0			Time:	34.1648	s	4/15/2019 2:58:58 PM
Data Acquisition:	Timed
Station Name:	ft40.cfg
Test File Name:	monotonic_0.2540_typei_solid_090_uprint.tst
Displacement	Force	Running Time
mm	N	s
11.6444	814.732	20.0227
11.6461	816.21	20.0325
11.64581	823.698	20.0422
11.6485	825.112	20.052
11.6481	821.24	20.0618
11.6494	819.525	20.0715
11.6501	819.246	20.0813
11.65027	818.108	20.0911
11.6515	820.148	20.10083
11.6529	825.084	20.1106
11.6519	827.964	20.1204
11.6545	825.549	20.1301
11.6548	820.722	20.1399
11.6553	816.062	20.1497
11.657	823.833	20.1594
11.657	826.9	20.1692
11.6577	829.056	20.179
11.6594	830.102	20.1887
11.65873	823.153	20.1985
11.6605	821.161	20.2083
11.6614	822.735	20.218
11.6623	823.797	20.2278
11.6623	832.363	20.2375
11.6638	834.667	20.2473
11.6654	829.789	20.25708
11.665	823.888	20.2668
11.666	822.261	20.2766
11.6675	829.141	20.2864
11.6673	830.586	20.2961
11.66776	835.623	20.3059
11.6696	834.36	20.3157
11.6709	827.994	20.3254
11.6719	825.902	20.3352
11.67187	824.8111	20.345
11.6734	831.157	20.3547
11.6727	838.973	20.3645
11.6744	838.065	20.3743
11.6757	831.289	20.384
11.676	826.003	20.3938
11.6783	828.624	20.4036
11.6777	834.145	20.41333
11.6786	837.804	20.4231
11.67955	839.988	20.4329
11.6801	836.948	20.4426
11.681	830.523	20.4524
11.6813	827.722	20.4622
11.6821	832.651	20.4719
11.6823	838.534	20.4817
11.68426	845.829	20.4915
11.6856	838.991	20.5012
11.6866	834.028	20.511
11.6869	831.703	20.5208
11.6877	834.286	20.5305
11.6886	841.76	20.5403
11.6892	842.519	20.55
11.6896	844.398	20.5598
11.6913	840.733	20.56958
11.6908	833.023	20.5793
11.6926	836.036	20.5891
11.6931	839.527	20.5989
11.6936	845.312	20.6086
11.69469	847.264	20.6184
11.69446	841.117	20.6282
11.6963	838.652	20.6379
11.6977	838.7	20.6477
11.6985	840.456	20.6575
11.6992	843.768	20.6672
11.6989	847.076	20.677
11.6999	847.999	20.6868
11.7005	843.519	20.6965
11.7018	839.764	20.7063
11.7032	841.378	20.7161
11.7037	847.071	20.72583
11.7047	849.211	20.7356
11.7047	848.713	20.7454
11.7056	845.675	20.7551
11.707	845.407	20.7649
11.7084	843.452	20.7747
11.7085	843.434	20.7844
11.7095	849.526	20.7942
11.7107	853.453	20.804
11.7113	853.3988	20.8137
11.7118	848.64	20.8235
11.7122	841.6554	20.8333
11.7128	846.407	20.843
11.7142	850.13	20.8528
11.71458	852.0141	20.8625
11.7156	857.304	20.8723
11.717	852.061	20.88208
11.7176	849.081	20.8918
11.719	846.426	20.9016
11.719	847.931	20.9114
11.72	855.886	20.9211
11.7195	859.995	20.9309
11.72168	857.169	20.9407
11.7221	849.315	20.9504
11.7228	846.664	20.9602
11.7246	852.051	20.97
11.7244	854.547	20.9797
11.7259	859.783	20.9895
11.727	857.973	20.9993
11.7283	855.489	21.009
11.72754	851.42	21.0188
11.7286	846.639	21.0286
11.729	856.825	21.03833
11.7301	862.753	21.0481
11.7312	863.566	21.0579
11.7321	858.695	21.0676
11.7331	852.424	21.0774
11.7334	851.84	21.0872
11.7351	857.772	21.0969
11.7352	862.288	21.1067
11.7364	864.777	21.1165
11.7374	863.117	21.1262
11.7376	856.7677	21.136
11.7385	853.092	21.1458
11.7391	856.169	21.1555
11.73985	861.706	21.1653
11.7404	867.899	21.175
11.7417	865.1095	21.1848
11.743	860.171	21.19458
11.7432	856.684	21.2043
11.7451	857.345	21.2141
11.7452	863.755	21.2239
11.7448	865.344	21.2336
11.7471	869.973	21.2434
11.7473	865.766	21.2532
11.7484	858.611	21.2629
11.7497	860.635	21.2727
11.7503	861.731	21.2825
11.7505	868.656	21.2922
11.7518	871.295	21.302
11.7526	865.71	21.3118
11.7537	865.888	21.3215
11.7545	861.4541	21.3313
11.7558	863.3587	21.3411
11.7549	865.31	21.35083
11.7558	868.3764	21.3606
11.7572	872.457	21.3704
11.7585	869.237	21.3801
11.75842	863.403	21.3899
11.7597	862.331	21.3997
11.7603	865.898	21.4094
11.7614	872.005	21.4192
11.7626	873.106	21.429
11.763	872.094	21.4387
11.7645	869.451	21.4485
11.7648	865.935	21.4583
11.7652	865.107	21.468
11.7673	869.853	21.4778
11.7669	874.971	21.4875
11.767	879.171	21.4973
11.7696	873.73	21.50708
11.7705	866.444	21.5168
11.7696	868.511	21.5266
11.772	870.803	21.5364
11.7726	876.552	21.5461
11.7719	879.46	21.5559
11.7732	875.3559	21.5657
11.7732	873.802	21.5754
11.7764	867.242	21.5852
11.7763	868.854	21.595
11.7765	875.143	21.6047
11.7778	881.098	21.6145
11.7772	880.744	21.6243
11.7793	875.642	21.634
11.7803	869.451	21.6438
11.7797	872.206	21.6536
11.7826	874.77	21.66333
11.7829	882.414	21.6731
11.7824	881.899	21.6829
11.78321	878.06	21.6926
11.7851	875.311	21.7024
11.7857	870.195	21.7122
11.7865	875.003	21.7219
11.7875	883.074	21.7317
11.7886	885.353	21.7415
11.7892	881.729	21.7512
11.7895	874.878	21.761
11.7902	873.612	21.7708
11.7912	878.402	21.7805
11.79227	882.432	21.7903
11.7927	884.778	21.8
11.7939	886.2403	21.8098
11.794	880.395	21.81958
11.7958	877.621	21.8293
11.797	876.023	21.8391
11.79666	880.853	21.8489
11.7978	887.767	21.8586
11.79917	887.853	21.8684
11.8006	883.17	21.8782
11.8004	878.45	21.8879
11.8017	879.637	21.8977
11.8021	883.253	21.9075
11.80301	885.076	21.9172
11.8041	887.718	21.927
11.804	890.01	21.9368
11.8051	884.424	21.9465
11.8048	881.444	21.9563
11.8066	879.119	21.9661
11.8073	886.144	21.97583
11.8079	891.0484	21.9856
11.8088	890.486	21.9954
11.81052	889.073	22.0051
11.811	884.709	22.0149
11.8124	883.836	22.0247
11.8126	884.5177	22.0344
11.8138	887.235	22.0442
11.8139	893.298	22.054
11.8142	892.9845	22.0637
11.817	887.887	22.0735
11.81666	884.366	22.0833
11.8182	884.3	22.093
11.8188	892.122	22.1028
11.8197	892.767	22.1125
11.8206	893.811	22.1223
11.8209	890.601	22.13208
11.8206	887.306	22.1418
11.8223	885.9386	22.1516
11.823	888.258	22.1614
11.8246	893.79	22.1711
11.8239	899.0506	22.1809
11.8255	895.796	22.1907
11.826	889.693	22.2004
11.8271	886.937	22.2102
11.8281	891.053	22.22
11.829	893.979	22.2297
11.8288	899.425	22.2395
11.8314	896.416	22.2493
11.8322	895.083	22.259
11.8334	890.134	22.2688
11.8337	888.706	22.2786
11.8339	895.949	22.28833
11.8345	899.793	22.2981
11.8359	904.311	22.3079
11.8359	896.9458	22.3176
11.8375	890.369	22.3274
11.8375	890.806	22.3372
11.83892	894.168	22.3469
11.84	901.49	22.3567
11.8406	900.938	22.3665
11.84	899.488	22.3762
11.8426	897.204	22.386
11.8436	889.992	22.3958
11.8439	896.2207	22.4055
11.8442	899.255	22.4153
11.84507	905.935	22.425
11.8459	904.253	22.4348
11.8468	896.7879	22.44458
11.8491	894.361	22.4543
11.8488	896.742	22.4641
11.8489	898.17	22.4739
11.8493	903.091	22.4836
11.8502	902.211	22.4934
11.8512	906.796	22.5032
11.8519	897.522	22.5129
11.8526	896.602	22.5227
11.854	896.3418	22.5325
11.8549	905.135	22.5422
11.8565	907.18	22.552
11.8568	904.874	22.5618
11.8581	899.892	22.5715
11.8587	898.8429	22.5813
11.8584	899.663	22.5911
11.8594	901.435	22.60083
11.8602	905.182	22.6106
11.86146	907.2998	22.6204
11.8626	906.75	22.6301
11.8631	900.31	22.6399
11.8637	897.237	22.6497
11.8645	902.6543	22.6594
11.8647	906.82	22.6692
11.8659	909.185	22.679
11.8673	910.016	22.6887
11.8688	903.601	22.6985
11.86836	903.904	22.7083
11.8701	901.852	22.718
11.8699	903.135	22.7278
11.8716	909.689	22.7375
11.8734	911.792	22.7473
11.87282	908.904	22.75708
11.8738	902.169	22.7668
11.87524	899.703	22.7766
11.8757	907.824	22.7864
11.8765	909.623	22.7961
11.877	915.031	22.8059
11.878	910.758	22.8157
11.8791	905.6286	22.8254
11.879	905.43	22.8352
11.8802	903.151	22.845
11.8812	911.589	22.8547
11.8813	918.079	22.8645
11.8816	914.674	22.8743
11.88446	908.575	22.884
11.8829	902.34	22.8938
11.8842	904.984	22.9036
11.8854	911.724	22.91333
11.8862	916.693	22.9231
11.8881	915.3692	22.9329
11.8889	913.422	22.9426
11.8891	908.738	22.9524
11.8901	906.115	22.9622
11.8913	911.536	22.9719
11.892	915.131	22.9817
11.8929	919.8	22.9915
11.8923	914.909	23.0012
11.8935	909.911	23.011
11.8946	908.372	23.0208
11.8955	910.098	23.0305
11.8957	917.043	23.0403
11.8971	918.017	23.05
11.8981	919.315	23.0598
11.8979	914.3847	23.06958
11.9001	910.119	23.0793
11.9004	910.827	23.0891
11.9013	913.373	23.0989
11.9027	919.783	23.1086
11.9036	922.244	23.1184
11.9036	914.819	23.1282
11.9049	914.139	23.1379
11.9057	912.088	23.1477
11.90609	914.1095	23.1575
11.9078	917.442	23.1672
11.9079	919.002	23.177
11.9084	922.955	23.1868
11.9093	917.291	23.1965
11.91014	912.77	23.2063
11.9111	912.713	23.2161
11.9118	917.454	23.22583
11.9129	922.848	23.2356
11.9135	921.6095	23.2454
11.9149	919.369	23.2551
11.9153	917.815	23.2649
11.9163	914.597	23.2747
11.9158	915.596	23.2844
11.9176	920.331	23.2942
11.9176	923.575	23.304
11.9186	924.154	23.3137
11.9209	920.213	23.3235
11.9211	912.798	23.3333
11.922	916.247	23.343
11.92316	921.466	23.3528
11.9235	926.474	23.3625
11.924	927.082	23.3723
11.9257	922.283	23.38208
11.9269	919.909	23.3918
11.9266	917.976	23.4016
11.9275	917.601	23.4114
11.92923	925.779	23.4211
11.9295	927.51	23.4309
11.9296	928.686	23.4407
11.932	919.087	23.4504
11.9309	915.231	23.4602
11.9322	921.25	23.47
11.9325	924.623	23.4797
11.9333	930.963	23.4895
11.9345	929.167	23.4993
11.936	923.309	23.509
11.936	920.614	23.5188
11.9365	918.2821	23.5286
11.9374	924.078	23.53833
11.9382	931.924	23.5481
11.9391	930.968	23.5579
11.9404	926.961	23.5676
11.9409	919.297	23.5774
11.9428	919.994	23.5872
11.9432	925.818	23.5969
11.9431	928.4325	23.6067
11.9448	931.286	23.6165
11.9451	928.751	23.6262
11.9472	924.163	23.636
11.947	921.102	23.6458
11.9469	921.894	23.6555
11.948	926.237	23.6653
11.9493	932.927	23.675
11.9508	931.5495	23.6848
11.9513	924.634	23.69458
11.9519	921.6	23.7043
11.9522	923.27	23.7141
11.9545	928.902	23.7239
11.9548	928.996	23.7336
11.9551	931.485	23.7434
11.9559	932.444	23.7532
11.95591	926.566	23.7629
11.9566	924.35	23.7727
11.9593	923.633	23.7825
11.9588	932.528	23.7922
11.9597	935.519	23.802
11.9603	931.071	23.8118
11.9613	930.604	23.8215
11.9613	925.393	23.8313
11.9625	926.397	23.8411
11.9641	931.028	23.85083
11.9649	933.117	23.8606
11.9656	935.913	23.8704
11.9661	932.715	23.8801
11.9666	927.563	23.8899
11.968	925.013	23.8997
11.9691	928.289	23.9094
11.97	934.755	23.9192
11.9706	935.443	23.929
11.9711	935.614	23.9387
11.9716	931.535	23.9485
11.973	929.107	23.9583
11.97383	927.632	23.968
11.9737	930.022	23.9778
11.975	935.717	23.9875
11.9759	938.602	23.9973
11.9766	935.526	24.00708
11.9779	926.73	24.0168
11.9779	928.218	24.0266
11.9796	929.6	24.0364
11.9801	937.158	24.0461
11.9812	939.089	24.0559
11.9817	933.767	24.0657
11.9832	931.661	24.0754
11.9845	928.257	24.0852
11.9853	926.515	24.095
11.9851	935.232	24.1047
11.9861	939.103	24.1145
11.9866	941.638	24.1243
11.9867	932.732	24.134
11.9891	926.897	24.1438
11.98948	930.808	24.1536
11.9906	935.491	24.16333
11.9903	941.253	24.1731
11.9919	939.311	24.1829
11.9932	935.262	24.1926
11.9942	934.522	24.2024
11.994	927.539	24.2122
11.9956	934.6308	24.2219
11.9961	938.472	24.2317
11.9956	943.106	24.2415
11.9966	940.506	24.2512
11.9984	930.634	24.261
11.998	930.5191	24.2708
11.9997	934.5918	24.2805
12.0006	938.151	24.2903
12.00086	941.006	24.3
12.0025	940.916	24.3098
12.0026	938.4762	24.31958
12.0037	933.083	24.3293
12.0042	932	24.3391
12.0048	936.795	24.3489
12.0059	942.196	24.3586
12.0075	943.389	24.3684
12.0077	937.36	24.3782
12.0087	934.996	24.3879
12.0089	933.504	24.3977
12.0101	937.9693	24.4075
12.0113	938.763	24.4172
12.0127	941.432	24.427
12.01226	941.419	24.4368
12.0133	939.998	24.4465
12.01508	935.376	24.4563
12.0155	932.6546	24.4661
12.0157	939.15	24.47583
12.0157	943.635	24.4856
12.01723	942.91	24.4954
12.0184	941.1452	24.5051
12.0196	936.735	24.5149
12.0208	936.285	24.5247
12.0203	938.178	24.5344
12.0213	939.684	24.5442
12.0236	944.828	24.554
12.023	944.763	24.5637
12.0234	938.93	24.5735
12.0252	933.166	24.5833
12.02624	934.425	24.593
12.0263	942.708	24.6028
12.02675	943.889	24.6125
12.0289	946.73	24.6223
12.0296	941.009	24.63208
12.0302	935.788	24.6418
12.0309	935.16	24.6516
12.032	936.494	24.6614
12.0321	942.8443	24.6711
12.033	947.964	24.6809
12.0343	944.798	24.6907
12.0344	938.549	24.7004
12.03595	933.42	24.7102
12.0359	936.082	24.72
12.0377	943.47	24.7297
12.0384	948.137	24.7395
12.0391	942.375	24.7493
12.0392	941.108	24.759
12.0409	936.955	24.7688
12.0413	935.058	24.7786
12.0414	941.548	24.78833
12.0423	945.912	24.7981
12.0434	950.558	24.8079
12.044	942.305	24.8176
12.0457	935.254	24.8274
12.0455	936.966	24.8372
12.0472	940.231	24.8469
12.0474	948.326	24.8567
12.0477	946.804	24.8665
12.0497	944.634	24.8762
12.0513	943.207	24.886
12.0504	937.969	24.8958
12.0517	940.513	24.9055
12.05255	943.004	24.9153
12.0538	947.353	24.925
12.0537	948.256	24.9348
12.0553	940.471	24.94458
12.0562	939.071	24.9543
12.0564	939.24	24.9641
12.05783	943.9527	24.9739
12.0584	946.898	24.9836
12.0596	947.202	24.9934
12.0598	947.667	25.0032
12.0605	943.089	25.0129
12.0612	938.49	25.0227
12.0613	941.1217	25.0325
12.06297	944.602	25.0422
12.0636	949.074	25.052
12.0655	947.608	25.0618
12.0658	942.419	25.0715
12.0669	940.984	25.0813
12.0674	940.997	25.0911
12.0682	944.2854	25.10083
12.0684	946.87	25.1106
12.0707	948.366	25.1204
12.0701	947.367	25.1301
12.0715	943.058	25.1399
12.0725	937.5069	25.1497
12.0725	941.597	25.1594
12.0732	947.761	25.1692
12.0751	949.976	25.179
12.0758	949.195	25.1887
12.0756	941.9823	25.1985
12.0763	941.002	25.2083
12.078	941.694	25.218
12.0779	940.61	25.2278
12.0797	950.1958	25.2375
12.0801	951.039	25.2473
12.0811	947.782	25.25708
12.0817	939.932	25.2668
12.08303	936.659	25.2766
12.0839	946.423	25.2864
12.0842	949.118	25.2961
12.0857	951.766	25.3059
12.0857	947.9552	25.3157
12.0869	943.308	25.3254
12.0867	941.503	25.3352
12.0888	938.812	25.345
12.0887	946.3277	25.3547
12.0908	952.461	25.3645
12.0911	951.963	25.3743
12.0912	944.112	25.384
12.0923	937.652	25.3938
12.0938	941.5	25.4036
12.094	948.256	25.41333
12.0951	950.742	25.4231
12.0953	950.409	25.4329
12.0961	947.603	25.4426
12.0969	940.957	25.4524
12.09728	939.884	25.4622
12.0991	943.955	25.4719
12.0998	948.091	25.4817
12.1001	953.829	25.4915
12.1014	950.451	25.5012
12.1016	942.124	25.511
12.1039	940.393	25.5208
12.1052	943.793	25.5305
12.1043	949.991	25.5403
12.1061	950.011	25.55
12.1062	950.951	25.5598
12.10762	948.365	25.56958
12.1077	943.548	25.5793
12.1081	944.98	25.5891
12.10931	943.701	25.5989
12.10971	950.238	25.6086
12.1118	954.221	25.6184
12.1124	946.478	25.6282
12.1132	944.656	25.6379
12.1129	942.806	25.6477
12.1143	944.992	25.6575
12.1155	949.758	25.6672
12.1157	948.715	25.677
12.1181	951.3056	25.6868
12.1171	949.582	25.6965
12.1185	942.707	25.7063
12.1194	942.742	25.7161
12.1218	944.744	25.72583
12.1212	951.331	25.7356
12.1223	950.93	25.7454
12.123	948.459	25.7551
12.1237	944.114	25.7649
12.1245	943.081	25.7747
12.1251	944.9552	25.7844
12.12676	948.2168	25.7942
12.1257	950.233	25.804
12.1273	952.719	25.8137
12.1281	946.836	25.8235
12.12892	941.072	25.8333
12.1294	943.6286	25.843
12.1315	948.235	25.8528
12.1316	952.697	25.8625
12.1331	954.558	25.8723
12.13277	945.682	25.88208
12.1343	943.4906	25.8918
12.1341	942.813	25.9016
12.1346	943.996	25.9114
12.1361	952.192	25.9211
12.1378	951.925	25.9309
12.1378	953.295	25.9407
12.1385	943.309	25.9504
12.13928	938.59	25.9602
12.1406	944.902	25.97
12.1411	949.241	25.9797
12.1421	954.131	25.9895
12.14336	951.012	25.9993
12.1435	945.03	26.009
12.1445	943.4447	26.0188
12.1456	940.641	26.0286
[...]
12.1516	947.301	26.0969
12.15127	950.466	26.1067
12.153	953.593	26.1165
12.1531	949.218	26.1262
12.15321	946.386	26.136
12.155	943.613	26.1458
12.1557	944.578	26.1555
12.1569	947.3963	26.1653
12.1575	955.366	26.175
12.15935	952.226	26.1848
12.1599	947.628	26.19458
12.1601	941.894	26.2043
12.1606	942.702	26.2141
12.162	949.27	26.2239
12.1622	949.826	26.2336
12.16485	951.521	26.2434
12.1634	948.601	26.2532
12.1647	945.665	26.2629
12.166	943.512	26.2727
12.1662	942.685	26.2825
12.1671	948.472	26.2922
12.1685	954.84	26.302
12.1687	950.155	26.3118
12.17	948.6543	26.3215
12.17119	942.499	26.3313
12.1715	945.338	26.3411
12.1715	947.158	26.35083
12.173	947.74	26.3606
12.1735	953.486	26.3704
12.1745	949.924	26.3801
12.1749	944.371	26.3899
12.1768	941.677	26.3997
12.1766	943.311	26.4094
12.1769	951.188	26.4192
12.1789	952.383	26.429
12.1789	951.122	26.4387
12.1808	945.77	26.4485
12.1812	942.229	26.4583
12.1809	943.5481	26.468
12.1834	945.638	26.4778
12.183	951.615	26.4875
12.1846	953.173	26.4973
12.1859	948.9704	26.50708
12.1858	941.518	26.5168
12.1874	940.558	26.5266
12.1877	944.176	26.5364
12.1882	951.577	26.5461
12.189	953.9411	26.5559
12.1904	949.072	26.5657
12.1903	944.1554	26.5754
12.19175	941.974	26.5852
12.1925	942.798	26.595
12.1936	948.063	26.6047
12.1938	950.903	26.6145
12.1953	953.627	26.6243
12.196	945.482	26.634
12.1965	938.578	26.6438
12.1965	941.7276	26.6536
12.1979	944.924	26.66333
12.1991	952.251	26.6731
12.1998	949.181	26.6829
12.2011	946.181	26.6926
12.2008	943.3045	26.7024
12.2012	939.475	26.7122
12.2041	944.79	26.7219
12.2037	948.35	26.7317
12.2046	951.988	26.7415
12.2057	951.773	26.7512
12.2059	941.161	26.761
12.2072	939.849	26.7708
12.2074	943.993	26.7805
12.20924	946.897	26.7903
12.2098	951.0545	26.8
12.2106	947.7215	26.8098
12.21187	947.8642	26.81958
12.2121	943.0849	26.8293
12.2126	940.0473	26.8391
12.2132	942.2829	26.8489
12.2154	949.589	26.8586
12.215	950.9	26.8684
12.21606	947.054	26.8782
12.2168	943.146	26.8879
12.2171	939.534	26.8977
12.2186	943.702	26.9075
12.2202	946.571	26.9172
12.2207	948.226	26.927
12.22184	948.343	26.9368
12.2225	947.255	26.9465
12.2231	941.591	26.9563
12.2227	939.3288	26.9661
12.2254	944.231	26.97583
12.2249	949.4256	26.9856
12.225	949.813	26.9954
12.227	948.604	27.0051
12.2273	940.612	27.0149
12.2284	941.732	27.0247
12.22942	944.299	27.0344
12.23065	944.064	27.0442
12.2305	950.512	27.054
12.2314	950.695	27.0637
12.2329	944.478	27.0735
12.2334	939.856	27.0833
12.2338	938.382	27.093
12.2342	945.7981	27.1028
12.2355	949.4693	27.1125
12.2355	950.779	27.1223
12.2375	946.0047	27.13208
12.2388	939.248	27.1418
12.239	941.553	27.1516
12.2411	940.698	27.1614
12.2402	948.036	27.1711
12.24178	952.549	27.1809
12.2413	948.323	27.1907
12.2433	942.284	27.2004
12.2437	937.554	27.2102
12.2452	940.755	27.22
12.2455	948.97	27.2297
12.2477	950.967	27.2395
12.2475	948.2569	27.2493
12.248	940.258	27.259
12.2484	939.176	27.2688
12.2496	940.1615	27.2786
12.2498	945.514	27.28833
12.2505	948.265	27.2981
12.2519	950.782	27.3079
12.2522	944.229	27.3176
12.2537	938.969	27.3274
12.2546	936.741	27.3372
12.255	941.297	27.3469
12.2566	948.509	27.3567
12.2572	946.972	27.3665
12.2578	944.7782	27.3762
12.25797	943.068	27.386
12.2593	939.2	27.3958
12.2599	943.183	27.4055
12.2616	943.394	27.4153
12.2615	948.576	27.425
12.2626	950.805	27.4348
12.2631	940.734	27.44458
12.26401	940.023	27.4543
12.265	938.345	27.4641
12.2655	942.5	27.4739
12.268	947.908	27.4836
12.2674	943.594	27.4934
12.268	943.373	27.5032
12.269	943.184	27.5129
12.2704	937.881	27.5227
12.2699	940.033	27.5325
12.2716	942.7796	27.5422
12.2724	948.334	27.552
12.2723	947.164	27.5618
12.2746	941.293	27.5715
12.2756	937.854	27.5813
12.2754	939.048	27.5911
12.2764	941.231	27.60083
12.2774	944.131	27.6106
12.2782	944.838	27.6204
12.2789	946.131	27.6301
12.2799	939.831	27.6399
12.2807	936.3277	27.6497
12.2811	938.446	27.6594
12.2828	946.079	27.6692
12.282	949.786	27.679
12.2841	947.997	27.6887
12.2845	938.7829	27.6985
12.2852	938.9173	27.7083
12.287	938.402	27.718
12.288	939.694	27.7278
12.2876	946.427	27.7375
12.288	946.494	27.7473
12.2889	944.217	27.75708
12.2904	936.257	27.7668
12.2899	933.364	27.7766
12.2927	940.724	27.7864
12.293	946.999	27.7961
12.2935	948.368	27.8059
12.2941	943.66	27.8157
12.2944	937.2724	27.8254
12.2954	937.176	27.8352
12.2971	936.352	27.845
12.2974	944.851	27.8547
12.298	946.731	27.8645
12.2979	945.495	27.8743
12.2995	940.714	27.884
12.30147	933.926	27.8938
12.3018	935.743	27.9036
12.302	942.126	27.91333
12.30346	947.259	27.9231
12.30479	946.25	27.9329
12.3047	939.422	27.9426
12.3061	937.014	27.9524
12.307	936.6355	27.9622
12.3076	937.868	27.9719
12.3077	942.7	27.9817
12.3095	946.4209	27.9915
12.3111	943.659	28.0012
12.3109	936.911	28.011
12.3123	935.107	28.0208
12.3122	937.671	28.0305
12.3132	942.134	28.0403
12.3147	942.513	28.05
12.3147	943.711	28.0598
12.3146	941.02	28.06958
12.317	937.346	28.0793
12.3173	938.206	28.0891
12.3183	936.301	28.0989
12.3193	943.393	28.1086
12.3198	946.723	28.1184
12.3208	940.605	28.1282
12.3211	938.829	28.1379
12.3224	935.047	28.1477
12.3224	939.594	28.1575
12.3232	942.845	28.1672
12.3237	942.423	28.177
12.3247	944.164	28.1868
12.3263	941.506	28.1965
12.32726	936.38	28.2063
12.32725	935.6687	28.2161
12.3278	936.453	28.22583
12.329	945.7356	28.2356
12.33	944.783	28.2454
12.3305	942.084	28.2551
12.3315	936.276	28.2649
12.3324	934.197	28.2747
12.3332	937.485	28.2844
12.3347	941.0874	28.2942
12.33497	942.32	28.304
12.3355	944.6673	28.3137
12.3363	937.909	28.3235
12.3363	932.5415	28.3333
12.3381	931.79	28.343
12.3395	938.651	28.3528
12.3409	945.937	28.3625
12.3404	946.431	28.3723
12.3416	937.762	28.38208
12.3415	934.906	28.3918
12.34363	934.032	28.4016
12.3442	935.898	28.4114
12.3444	942.994	28.4211
12.3452	943.887	28.4309
12.3468	943.5351	28.4407
12.3476	934.319	28.4504
12.3481	930.388	28.4602
12.3489	933.662	28.47
12.3491	940.052	28.4797
12.3504	946.085	28.4895
12.3512	940.19	28.4993
12.352	933.566	28.509
12.35283	934.008	28.5188
12.3543	932.49	28.5286
12.3549	938.0332	28.53833
12.3548	943.886	28.5481
12.3557	944.13	28.5579
12.3564	941.375	28.5676
12.3579	931.059	28.5774
12.3584	931.309	28.5872
12.3598	937.921	28.5969
12.3607	940.434	28.6067
12.3605	942.196	28.6165
12.3618	939.713	28.6262
12.3638	935.898	28.636
12.3635	934.531	28.6458
12.3642	934.717	28.6555
12.3651	936.936	28.6653
12.3666	943.05	28.675
12.3671	940.778	28.6848
12.3671	936.2981	28.69458
12.3685	932.275	28.7043
12.3685	931.899	28.7141
12.3703	936.892	28.7239
12.3705	939.62	28.7336
12.372	940.909	28.7434
12.3723	939.738	28.7532
12.3733	935.335	28.7629
12.3737	934.0224	28.7727
12.3752	932.017	28.7825
12.3757	935.258	28.7922
12.3769	943.1178	28.802
12.3764	940.07	28.8118
12.3786	937.821	28.8215
12.3788	930.735	28.8313
12.3796	933.3642	28.8411
12.3808	937.455	28.85083
12.38052	937.076	28.8606
12.3818	941.9411	28.8704
12.3819	939.178	28.8801
12.3843	934.15	28.8899
12.385	929.869	28.8997
12.3849	931.503	28.9094
12.3873	938.153	28.9192
12.3875	942.818	28.929
12.3878	940.2099	28.9387
12.38942	934.355	28.9485
12.389	930.301	28.9583
12.3907	933.488	28.968
12.3914	934.6925	28.9778
12.3916	941.138	28.9875
12.39265	942.148	28.9973
12.3929	937.486	29.00708
12.3943	931.446	29.0168
12.3949	928.859	29.0266
12.3957	932.941	29.0364
12.398	941.754	29.0461
12.3978	942.234	29.0559
12.399	937.217	29.0657
12.3998	934.307	29.0754
12.39926	929.684	29.0852
12.4009	931.952	29.095
12.40201	937.0061	29.1047
12.4024	937.685	29.1145
12.40292	943.019	29.1243
12.40455	932.53	29.134
12.4059	928.961	29.1438
12.406	930.636	29.1536
12.4062	935.229	29.16333
12.4066	942.213	29.1731
12.4081	938.3797	29.1829
12.4095	933.04	29.1926
12.4107	931.329	29.2024
12.4109	929.984	29.2122
12.4109	931.687	29.2219
12.4119	935.62	29.2317
12.4133	940.841	29.2415
12.4145	938.737	29.2512
12.41482	930.753	29.261
12.4159	931.533	29.2708
12.4167	930.923	29.2805
12.4171	935.887	29.2903
12.4172	939.59	29.3
12.41836	935.513	29.3098
12.4189	934.2	29.31958
12.4204	932.644	29.3293
12.4202	928.901	29.3391
12.422	932.104	29.3489
12.423	937.0061	29.3586
12.4233	939.749	29.3684
12.4254	934.556	29.3782
12.4249	931.353	29.3879
12.4268	928.308	29.3977
12.4266	930.931	29.4075
12.4279	935.283	29.4172
12.4283	936.365	29.427
12.4294	936.299	29.4368
12.431	933.274	29.4465
12.4306	931.561	29.4563
12.4321	926.188	29.4661
12.4335	931.324	29.47583
12.4342	935.963	29.4856
12.4347	937.16	29.4954
12.4355	936.886	29.5051
12.4356	927.89	29.5149
12.4365	928.767	29.5247
12.4365	928.265	29.5344
12.439	933.326	29.5442
12.4399	939.741	29.554
12.4401	936.692	29.5637
12.4408	933.118	29.5735
12.4422	927.853	29.5833
12.4414	925.429	29.593
12.4439	931.388	29.6028
12.4449	939.227	29.6125
12.4453	938.103	29.6223
12.4456	932.2243	29.63208
12.4474	926.169	29.6418
12.4473	930.854	29.6516
12.4477	929.121	29.6614
12.44852	934.098	29.6711
12.4495	938.911	29.6809
12.4504	935.407	29.6907
12.4518	931.84	29.7004
12.453	923.478	29.7102
12.4529	928.563	29.72
12.4542	936.13	29.7297
12.4542	937.777	29.7395
12.4552	934.572	29.7493
12.4556	930.575	29.759
12.4585	927.308	29.7688
12.4567	928.424	29.7786
12.4581	932.369	29.78833
12.4604	935.253	29.7981
12.4597	938.393	29.8079
12.461	932.716	29.8176
12.4623	926.528	29.8274
12.4629	926.556	29.8372
12.4634	928.836	29.8469
12.464	936.2699	29.8567
12.4647	936.128	29.8665
12.4653	931.7312	29.8762
12.4669	928.059	29.886
12.4667	927.056	29.8958
12.4693	929.377	29.9055
12.4692	930.983	29.9153
12.4698	934.925	29.925
12.4699	938.308	29.9348
12.47284	929.019	29.94458
12.4732	927.883	29.9543
12.4736	924.813	29.9641
12.4743	931.372	29.9739
12.4761	934.715	29.9836
12.4751	932.337	29.9934
12.4773	932.682	30.0032
12.4779	928.224	30.0129
12.4795	926.171	30.0227
12.4797	926.3681	30.0325
12.4798	929.636	30.0422
12.48087	936.916	30.052
12.481	936.006	30.0618
12.4829	930.027	30.0715
12.4833	924.7395	30.0813
12.4848	926.383	30.0911
12.4837	931.275	30.10083
12.4852	933.004	30.1106
12.4862	935.04	30.1204
12.4864	931.1817	30.1301
12.488	928.119	30.1399
12.4889	923.991	30.1497
12.4893	925.597	30.1594
12.4909	930.962	30.1692
12.49022	937.339	30.179
12.49238	934.649	30.1887
12.4932	925.536	30.1985
12.49343	925.709	30.2083
12.4942	926.253	30.218
12.4953	928.126	30.2278
12.4968	934.873	30.2375
12.497	933.662	30.2473
12.4977	931.108	30.25708
12.4982	924.953	30.2668
12.4989	920.649	30.2766
12.4999	928.202	30.2864
12.4999	933.202	30.2961
12.5012	937.504	30.3059
12.50247	930.614	30.3157
12.5035	924.217	30.3254
12.5037	923.496	30.3352
12.5051	924.911	30.345
12.5057	931.681	30.3547
12.5064	934.129	30.3645
12.5079	933.682	30.3743
12.5087	929.905	30.384
12.5091	920.748	30.3938
12.5095	923.883	30.4036
12.5111	929.902	30.41333
12.5116	933.444	30.4231
12.5127	933.787	30.4329
12.5151	926.984	30.4426
12.5138	923.283	30.4524
12.5147	924.806	30.4622
12.51513	926.498	30.4719
12.5168	929.281	30.4817
12.5168	934.227	30.4915
12.5192	930.932	30.5012
12.5195	923.793	30.511
12.5209	923.253	30.5208
12.521	925.427	30.5305
12.5208	930.55	30.5403
12.5236	932.52	30.55
12.523	928.881	30.5598
12.5243	928.199	30.56958
12.5249	924.2522	30.5793
12.5258	924.14	30.5891
12.5263	922.527	30.5989
12.5282	928.7677	30.6086
12.5288	932.039	30.6184
12.5284	926.171	30.6282
12.5295	926.113	30.6379
12.5301	919.904	30.6477
12.53152	923.662	30.6575
12.5316	930.175	30.6672
12.5331	927.485	30.677
12.5338	930.456	30.6868
12.5345	925.923	30.6965
12.5351	922.132	30.7063
12.5365	921.124	30.7161
12.5378	922.5697	30.72583
12.5383	929.923	30.7356
12.5385	930.58	30.7454
12.5391	926.76	30.7551
12.5395	921.177	30.7649
12.5405	919.703	30.7747
12.5407	922.572	30.7844
12.5428	927.185	30.7942
12.5443	930.2121	30.804
12.5449	928.357	30.8137
12.5453	925.093	30.8235
12.5456	919.554	30.8333
12.5462	918.304	30.843
12.5467	924.614	30.8528
12.5479	931.415	30.8625
12.5488	931.343	30.8723
12.5499	922.9325	30.88208
12.5512	920.375	30.8918
12.5518	920.68	30.9016
12.5531	921.362	30.9114
12.5531	928.666	30.9211
12.5542	929.6134	30.9309
12.5558	928.372	30.9407
12.5551	920.899	30.9504
12.55651	916.377	30.9602
12.5564	920.723	30.97
12.5571	926.803	30.9797
12.5592	931.658	30.9895
12.5594	926.897	30.9993
12.5603	921.8717	31.009
12.5617	921.022	31.0188
12.5627	920.571	31.0286
12.5627	924.987	31.03833
12.5634	927.549	31.0481
12.5637	928.635	31.0579
12.5652	929.133	31.0676
12.5659	917.507	31.0774
12.5669	919.1	31.0872
12.5683	921.92	31.0969
12.5691	927.579	31.1067
12.5697	929.508	31.1165
12.5705	924.0932	31.1262
12.5713	921.1225	31.136
12.5715	920.486	31.1458
12.5733	918.6554	31.1555
12.5732	923.328	31.1653
12.5743	926.675	31.175
12.5741	928.6	31.1848
12.5763	923.772	31.19458
12.5763	918.368	31.2043
12.57736	918.985	31.2141
12.5786	921.981	31.2239
12.5787	926.381	31.2336
12.58	924.282	31.2434
12.58077	924.749	31.2532
12.5811	921.756	31.2629
12.5829	919.105	31.2727
12.5835	917.582	31.2825
12.5838	923.685	31.2922
12.5854	927.803	31.302
12.5857	925.772	31.3118
12.5859	924.707	31.3215
12.5873	915.229	31.3313
12.5882	917.924	31.3411
12.5891	923.026	31.35083
12.5896	924.528	31.3606
12.5902	928.502	31.3704
12.5917	924.449	31.3801
12.59201	921.333	31.3899
12.5926	917.058	31.3997
12.5935	916.385	31.4094
12.595	925.1	31.4192
12.595	929.449	31.429
12.5966	928.103	31.4387
12.59721	919.904	31.4485
12.5986	914.919	31.4583
12.5979	919.324	31.468
12.6	919.6358	31.4778
12.6012	926.886	31.4875
12.6011	926.692	31.4973
12.6013	922.885	31.50708
12.603	917.972	31.5168
12.6031	912.819	31.5266
12.6051	918.4043	31.5364
12.6056	926.3457	31.5461
12.6054	928.788	31.5559
12.6075	923.282	31.5657
12.6079	917.24	31.5754
12.6075	915.413	31.5852
12.60907	917.972	31.595
12.6094	924.966	31.6047
12.6116	924.37	31.6145
12.6112	925.305	31.6243
12.6128	920.902	31.634
12.6138	913.833	31.6438
12.615	915.382	31.6536
12.6147	919.802	31.66333
12.6156	927.221	31.6731
12.6154	923.5437	31.6829
12.6173	917.982	31.6926
12.6173	916.548	31.7024
12.6189	914.171	31.7122
12.6198	917.71	31.7219
12.6206	921.002	31.7317
12.621	922.021	31.7415
12.622	922.737	31.7512
12.6242	913.516	31.761
12.6238	913.986	31.7708
12.6251	915.507	31.7805
12.6259	917.535	31.7903
12.627	923.4259	31.8
12.6266	917.738	31.8098
12.6271	918.884	31.81958
12.6294	914.93	31.8293
12.6291	912.858	31.8391
12.6302	914.985	31.8489
12.6308	917.009	31.8586
12.6311	922.852	31.8684
12.6327	920.499	31.8782
12.6349	912.197	31.8879
12.6345	908.493	31.8977
12.6379	-3.42072	31.9075
12.6438	-16.99	31.9172
12.6434	-28.8946	31.927
12.6431	-47.2893	31.9368
12.6418	-50.8227	31.9465
12.6432	-44.4165	31.9563
12.6425	-46.3084	31.9661
12.6438	-40.76276	31.97583
12.6431	-41.5156	31.9856
12.6438	-35.82793	31.9954
12.64472	-39.8102	32.0051
12.64613	-46.6722	32.0149
12.6477	-47.7155	32.0247
12.6479	-42.4976	32.0344
12.6477	-40.3185	32.0442
12.6481	-36.5185	32.054
12.6499	-38.0076	32.0637
12.6508	-42.7534	32.0735
12.6502	-45.6619	32.0833
12.6523	-49.3529	32.093
12.6519	-40.1317	32.1028
12.6534	-36.1744	32.1125
12.6521	-34.574	32.1223
12.6551	-41.0488	32.13208
12.65568	-48.306	32.1418
12.65624	-45.9012	32.1516
12.6572	-40.919	32.1614
12.65735	-38.3806	32.1711
12.6591	-34.6542	32.1809
12.6592	-38.8677	32.1907
12.6607	-42.5633	32.2004
12.6618	-48.3295	32.2102
12.662	-44.8715	32.22
12.6631	-38.2448	32.2297
12.6634	-35.1701	32.2395
12.66475	-38.1672	32.2493
12.6653	-43.1791	32.259
12.6662	-47.5342	32.2688
12.6668	-45.6271	32.2786
12.6676	-40.426	32.28833
12.6685	-38.3878	32.2981
12.6683	-35.3884	32.3079
12.6695	-40.3393	32.3176
12.6706	-44.5726	32.3274
12.6722	-46.6777	32.3372
12.67236	-42.9032	32.3469
12.6736	-35.569	32.3567
12.6747	-37.0398	32.3665
12.6745	-41.8101	32.3762
12.6749	-42.9877	32.386
12.6773	-46.2783	32.3958
12.6778	-42.2084	32.4055
12.67829	-43.2202	32.4153
12.6787	-37.5715	32.425
12.6803	-35.1449	32.4348
12.6816	-42.6989	32.44458
12.6813	-44.0435	32.4543
12.6827	-46.137	32.4641
12.6828	-41.9221	32.4739
12.683	-36.8734	32.4836
12.6841	-38.38	32.4934
12.68563	-39.2162	32.5032
12.68689	-42.7847	32.5129
12.6864	-45.2381	32.5227
12.6878	-44.4495	32.5325
12.6883	-43.1445	32.5422
12.68903	-35.7629	32.552
12.6903	-35.7123	32.5618
12.6911	-41.0794	32.5715
12.6924	-46.7601	32.5813
12.6934	-47.0953	32.5911
12.6935	-40.4294	32.60083
12.6936	-39.2078	32.6106
12.6952	-35.741	32.6204
12.6955	-39.9519	32.6301
12.6959	-43.5556	32.6399
12.6972	-47.2302	32.6497
12.6988	-46.3918	32.6594
12.6993	-39.1514	32.6692
12.6998	-34.4353	32.679
12.7013	-36.99239	32.6887
12.7015	-44.90646	32.6985
12.7024	-45.9299	32.7083
12.70301	-45.8299	32.718
12.7041	-40.5513	32.7278
12.7038	-36.0267	32.7375
12.70524	-39.4009	32.7473
12.7056	-39.2383	32.75708
12.7069	-45.3759	32.7668
12.7077	-48.6864	32.7766
12.7092	-44.2818	32.7864
12.7102	-38.2284	32.7961
12.7099	-33.7347	32.8059
12.7116	-39.8121	32.8157
12.7131	-47.5802	32.8254
12.7124	-45.9821	32.8352
12.71396	-44.754	32.845
12.71522	-39.8523	32.8547
12.7152	-36.3377	32.8645
12.716	-38.1867	32.8743
12.71651	-39.82177	32.884
12.7189	-48.0143	32.8938
12.7188	-44.6553	32.9036
12.7195	-40.1236	32.91333
12.72	-35.8124	32.9231
12.7206	-35.76376	32.9329
12.722	-41.4535	32.9426
12.7227	-45.6811	32.9524
12.7233	-45.0917	32.9622
12.7248	-41.2266	32.9719
12.7251	-40.0496	32.9817
12.7275	-37.4515	32.9915
12.7275	-39.5035	33.0012
12.7273	-42.2421	33.011
12.7283	-45.8638	33.0208
12.7293	-45.3019	33.0305
12.7301	-38.9786	33.0403
12.7299	-36.6283	33.05
12.7322	-37.599	33.0598
12.7322	-41.4643	33.06958
12.7331	-43.89407	33.0793
12.7344	-43.7119	33.0891
12.7348	-45.8364	33.0989
12.7362	-40.2897	33.1086
12.7361	-35.2931	33.1184
12.737	-38.1948	33.1282
12.7379	-41.8579	33.1379
12.7394	-46.1169	33.1477
12.74	-44.2092	33.1575
12.7407	-39.1238	33.1672
12.7417	-40.2118	33.177
12.7418	-36.4581	33.1868
12.7432	-42.5253	33.1965
12.74436	-44.0672	33.2063
12.7438	-45.084	33.2161
12.7468	-45.6653	33.22583
12.7469	-38.0944	33.2356
12.74822	-34.1583	33.2454
12.748	-39.34584	33.2551
12.7491	-44.7187	33.2649
12.7491	-47.2425	33.2747
12.7496	-43.1156	33.2844
12.7512	-40.35738	33.2942
12.7516	-37.0619	33.304
12.75379	-35.9154	33.3137
12.7543	-42.6585	33.3235
12.754	-45.7137	33.3333
12.7552	-47.0933	33.343
12.7562	-42.5129	33.3528
12.7568	-34.9852	33.3625
12.7578	-34.5623	33.3723
12.7593	-40.8183	33.38208
12.7599	-47.0436	33.3918
12.7609	-46.8736	33.4016
12.7615	-41.7253	33.4114
12.7628	-37.2875	33.4211
12.7625	-38.6248	33.4309
12.764	-38.6373	33.4407
12.7642	-43.8419	33.4504
12.7652	-47.9392	33.4602
12.7658	-44.7119	33.47
12.7668	-40.1232	33.4797
12.7668	-34.1358	33.4895
12.769	-37.4414	33.4993
12.7695	-44.8158	33.509
12.7701	-45.728	33.5188
12.7708	-45.2572	33.5286
12.7718	-40.2826	33.53833
12.772	-39.2965	33.5481
12.7723	-37.7933	33.5579
12.7747	-37.8308	33.5676
12.775	-45.6063	33.5774
12.7761	-46.1753	33.5872
12.77626	-41.3986	33.5969
12.7772	-38.41412	33.6067
12.778	-34.7116	33.6165
12.779	-41.0848	33.6262
12.78	-43.8506	33.636
12.7805	-43.7385	33.6458
12.7824	-45.8481	33.6555
12.7818	-40.6831	33.6653
12.7828	-38.8382	33.675
12.7836	-37.7402	33.6848
12.7846	-38.5868	33.69458
12.785	-44.78714	33.7043
12.786	-46.5038	33.7141
12.7869	-41.5677	33.7239
12.7894	-39.2942	33.7336
12.7887	-36.6771	33.7434
12.7905	-38.588	33.7532
12.7904	-44.0044	33.7629
12.7914	-44.2579	33.7727
12.79155	-44.3315	33.7825
12.7915	-40.9998	33.7922
12.7942	-37.0639	33.802
12.7934	-36.0295	33.8118
12.79602	-39.8855	33.8215
12.7958	-47.3582	33.8313
12.7966	-46.5968	33.8411
12.7985	-40.156	33.85083
12.7982	-39.6423	33.8606
12.7989	-34.7338	33.8704
12.7999	-40.32021	33.8801
12.8007	-43.484	33.8899
12.8017	-45.93618	33.8997
12.8023	-47.8507	33.9094
12.8031	-39.0172	33.9192
12.8044	-35.1752	33.929
12.8052	-36.5406	33.9387
12.8062	-44.142	33.9485
12.8068	-48.7635	33.9583
12.8074	-44.4088	33.968
12.8078	-40.166	33.9778
12.8097	-36.2808	33.9875
12.8098	-36.8851	33.9973
12.8099	-41.6759	34.00708
12.8113	-44.6447	34.0168
12.8133	-47.4086	34.0266
12.8137	-42.1175	34.0364
12.81412	-37.1803	34.0461
12.81498	-33.9676	34.0559
12.8148	-38.8982	34.0657
12.8158	-45.8825	34.0754
12.817	-48.1152	34.0852
12.8182	-41.98941	34.095
12.8194	-39.8357	34.1047
12.8202	-36.6988	34.1145
12.8199	-38.039	34.1243
12.8218	-41.8857	34.134
12.8227	-47.5204	34.1438
12.8223	-44.2522	34.1536