File: data/processed_data_files/tensile/0.254_hd_dimension_typei_090_r(5).dat
MTS793|BTW|ENU|1|2|.|/|:|1|0|0|A

Data Header:			0.254_hd_dimension_typei_090_r0			Time:	20.0181	s	4/15/2019 3:41:17 PM
Data Acquisition:	Timed
Station Name:	ft40.cfg
Test File Name:	monotonic_0.2540_typei_hd_090_dimension.tst
Displacement	Force	Running Time
mm	N	s
9.9802	-163.444	0.0224609
9.98126	-166.451	0.0419922
9.9811	-168.806	0.0615234
9.98166	-170.758	0.0810547
9.98321	-161.536	0.100586
9.98464	-168.563	0.120117
9.98675	-165.659	0.139648
9.98809	-161.273	0.15918
9.98994	-160.879	0.178711
9.99182	-165.3631	0.198242
9.99288	-157.2816	0.217773
9.99429	-160.639	0.237305
9.99611	-161.802	0.256836
9.99787	-157.427	0.276367
10.0003	-151.791	0.295898
10.0013	-158.548	0.31543
10.0026	-157.244	0.334961
10.0043	-154.997	0.354492
10.0062	-155.776	0.374023
10.00717	-156.05	0.393555
10.0088	-147.69	0.413086
10.0112	-151.94	0.432617
10.0119	-157.131	0.452148
10.014	-147.337	0.47168
10.016	-146.0849	0.491211
10.0172	-152.451	0.510742
10.0193	-146.201	0.530273
10.021	-142.409	0.549805
10.023	-149.357	0.569336
10.0237	-145.324	0.588867
10.0253	-137.91	0.608398
10.0275	-144.835	0.62793
10.02825	-141.601	0.647461
10.03028	-132.577	0.666992
10.0312	-145.595	0.686523
10.03357	-139.63	0.706055
10.0347	-132.577	0.725586
10.0368	-134.395	0.745117
10.03807	-138.621	0.764648
10.04069	-130.184	0.78418
10.0411	-136.814	0.803711
10.0435	-134.138	0.823242
10.0447	-130.29	0.842773
10.0475	-126.997	0.862305
10.0478	-134.042	0.881836
10.049	-127.632	0.901367
10.0517	-126.0573	0.920898
10.0534	-129.3401	0.94043
10.0557	-128.883	0.959961
10.0559	-120.196	0.979492
10.0579	-125.377	0.999023
10.0601	-125.203	1.01855
10.061	-120.883	1.03809
10.06236	-121.924	1.05762
10.0646	-124.681	1.07715
10.0657	-114.231	1.09668
10.0673	-119.355	1.11621
10.07	-125.931	1.13574
10.0714	-117.541	1.15527
10.0726	-111.682	1.1748
10.0749	-119.365	1.19434
10.0751	-115.254	1.21387
10.0777	-107.995	1.2334
10.0795	-118.246	1.25293
10.0809	-113.095	1.27246
10.0822	-105.886	1.29199
10.0838	-111.768	1.31152
10.0863	-110.806	1.33105
10.0873	-100.271	1.35059
10.0876	-110.286	1.37012
10.09	-110.256	1.38965
10.0924	-101.039	1.40918
10.0936	-100.156	1.42871
10.095	-105.362	1.44824
10.0969	-98.306	1.46777
10.09766	-100.887	1.4873
10.1001	-102.258	1.50684
10.1013	-98.8629	1.52637
10.1024	-91.19146	1.5459
10.105	-100.923	1.56543
10.1074	-96.6113	1.58496
10.1087	-92.4594	1.60449
10.1098	-93.2655	1.62402
10.1118	-97.5327	1.64355
10.1141	-86.8603	1.66309
10.1147	-90.429	1.68262
10.1162	-92.6003	1.70215
10.11902	-87.1558	1.72168
10.1197	-85.3588	1.74121
10.1224	-90.4177	1.76074
10.1227	-82.5056	1.78027
10.1249	-80.7274	1.7998
10.12733	-91.1032	1.81934
10.1282	-86.2219	1.83887
10.1288	-76.8021	1.8584
10.1306	-83.9796	1.87793
10.133	-80.9241	1.89746
10.1345	-73.3272	1.91699
10.1366	-82.37854	1.93652
10.1382	-80.848	1.95605
10.1379	-70.84198	1.97559
10.1407	-75.037	1.99512
10.1431	-80.59948	2.01465
10.1438	-67.6088	2.03418
10.1466	-74.1087	2.05371
10.1476	-75.5643	2.07324
10.1496	-68.4182	2.09277
10.1504	-65.3349	2.1123
10.1534	-71.1085	2.13184
10.1548	-62.4365	2.15137
10.1554	-64.9424	2.1709
10.1575	-67.4943	2.19043
10.159	-66.6304	2.20996
10.1611	-57.5681	2.22949
10.1619	-64.2206	2.24902
10.1638	-64.579	2.26855
10.1656	-58.6575	2.28809
10.1667	-57.2856	2.30762
10.1679	-61.952	2.32715
10.16935	-52.5394	2.34668
10.171	-57.1574	2.36621
10.1734	-58.11657	2.38574
10.175	-54.4857	2.40527
10.1766	-49.9778	2.4248
10.177	-58.3219	2.44434
10.1798	-50.5314	2.46387
10.1816	-46.1078	2.4834
10.1824	-52.1174	2.50293
10.1855	-50.5393	2.52246
10.1858	-41.5216	2.54199
10.18794	-48.02285	2.56152
10.189	-49.5764	2.58105
10.1914	-39.9973	2.60059
10.1933	-45.573	2.62012
10.1937	-49.8415	2.63965
10.1963	-38.2945	2.65918
10.197	-36.9994	2.67871
10.2005	-46.0108	2.69824
10.20033	-35.9181	2.71777
10.2027	-35.4088	2.7373
10.205	-42.2535	2.75684
10.2054	-36.1862	2.77637
10.2066	-30.6468	2.7959
10.2086	-38.0576	2.81543
10.211	-32.86166	2.83496
10.21211	-30.2443	2.85449
10.2137	-33.9545	2.87402
10.2156	-35.8956	2.89355
10.217	-24.584	2.91309
10.2183	-27.54039	2.93262
10.2204	-30.23978	2.95215
10.2215	-26.9301	2.97168
10.2226	-24.0843	2.99121
10.2254	-28.2392	3.01074
10.2273	-18.5595	3.03027
10.2293	-19.3693	3.0498
10.2302	-25.6131	3.06934
10.2331	-22.2532	3.08887
10.2346	-12.82	3.1084
10.23495	-21.4869	3.12793
10.2373	-17.546	3.14746
10.2386	-11.8002	3.16699
10.2397	-17.9271	3.18652
10.2426	-19.1038	3.20605
10.2431	-9.46556	3.22559
10.2443	-14.14562	3.24512
10.246	-15.9531	3.26465
10.2484	-4.48879	3.28418
10.24843	-9.57306	3.30371
10.251	-15.3886	3.32324
10.2525	-5.67689	3.34277
10.2542	-1.43034	3.3623
10.2563	-9.69076	3.38184
10.2573	-3.77682	3.40137
10.2597	-1.30266	3.4209
10.2613	-6.20394	3.44043
10.2625	-1.54758	3.45996
10.26319	5.42461	3.47949
10.2651	-3.24368	3.49902
10.2673	0.734949	3.51855
10.2693	4.92543	3.53809
10.2706	3.7888	3.55762
10.2726	-2.51748	3.57715
10.2737	11.1141	3.59668
10.2761	7.07996	3.61621
10.2779	4.889226	3.63574
10.2793	6.82754	3.65527
10.2797	11.9408	3.6748
10.2824	4.06759	3.69434
10.2848	12.9045	3.71387
10.2845	17.2713	3.7334
10.2867	9.29337	3.75293
10.28803	8.77688	3.77246
10.29089	22.9528	3.79199
10.2925	15.1196	3.81152
10.2939	15.06741	3.83105
10.2945	22.3486	3.85059
10.297	17.5926	3.87012
10.2989	12.8539	3.88965
10.3001	27.3313	3.90918
10.3016	24.3873	3.92871
10.3038	18.7231	3.94824
10.3045	28.6018	3.96777
10.30674	27.1298	3.9873
10.3087	20.0716	4.00684
10.3102	27.1615	4.02637
10.3117	33.1057	4.0459
10.3134	26.57933	4.06543
10.3148	31	4.08496
10.3158	32.6384	4.10449
10.3183	28.24732	4.12402
10.3198	29.8405	4.14355
10.3214	40.3197	4.16309
10.323	34.2363	4.18262
10.325	32.61842	4.20215
10.3259	37.3893	4.22168
10.3281	42.0912	4.24121
10.3292	33.1875	4.26074
10.3305	43.9392	4.28027
10.3316	44.4144	4.2998
10.3335	38.6055	4.31934
10.3363	44.0064	4.33887
10.3369	51.4119	4.3584
10.339	40.0816	4.37793
10.3411	46.2948	4.39746
10.3426	51.9422	4.41699
10.344	46.725	4.43652
10.346	42.1867	4.45605
10.3466	55.5621	4.47559
10.34923	49.1329	4.49512
10.3501	48.8729	4.51465
10.3515	57.7413	4.53418
10.3539	52.6761	4.55371
10.3557	47.417	4.57324
10.3567	60.7655	4.59277
10.3584	59.7955	4.6123
10.3599	52.9573	4.63184
10.3626	60.37	4.65137
10.3642	62.01828	4.6709
10.3645	56.8278	4.69043
10.3674	60.845	4.70996
10.3684	67.8794	4.72949
10.371	60.7885	4.74902
10.3716	64.0409	4.76855
10.3739	69.4426	4.78809
10.3752	64.7909	4.80762
10.3773	63.2925	4.82715
10.3776	74.1669	4.84668
10.3805	71.5025	4.86621
10.38183	68.0375	4.88574
10.3835	70.37059	4.90527
10.3844	75.5788	4.9248
10.387	68.887	4.94434
10.3887	77.6555	4.96387
10.389	80.2217	4.9834
10.3918	74.2245	5.00293
10.3929	74.3145	5.02246
10.394	85.8474	5.04199
10.3974	76.2172	5.06152
10.3977	77.0289	5.08105
10.3998	87.2495	5.10059
10.4017	85.2076	5.12012
10.4024	77.928	5.13965
10.4042	90.199	5.15918
10.4061	86.9052	5.17871
10.4077	82.7167	5.19824
10.4089	90.9797	5.21777
10.4104	92.7697	5.2373
10.4115	81.3464	5.25684
10.4138	94.9871	5.27637
10.416	98.6118	5.2959
10.4173	91.6414	5.31543
10.4185	93.7983	5.33496
10.4203	100.155	5.35449
10.423	93.3353	5.37402
10.424	95.6078	5.39355
10.4257	102.52	5.41309
10.4269	97.849	5.43262
10.4292	96.7055	5.45215
10.43062	104.905	5.47168
10.4328	100.774	5.49121
10.434	98.254	5.51074
10.435	105.752	5.53027
10.4379	107.827	5.5498
10.4389	104.652	5.56934
10.44005	104.134	5.58887
10.4412	110.847	5.6084
10.44234	104.938	5.62793
10.4438	113.1422	5.64746
10.446	117.573	5.66699
10.4483	110.582	5.68652
10.4495	107.277	5.70605
10.4516	121.13	5.72559
10.4539	115.542	5.74512
10.4546	114.274	5.76465
10.457	122.381	5.78418
10.459	120.39	5.80371
10.4604	112.255	5.82324
10.46174	124.401	5.84277
10.463	123.226	5.8623
10.4653	117.6437	5.88184
10.4653	123.091	5.90137
10.4673	129.636	5.9209
10.4689	118.145	5.94043
10.4719	126.126	5.95996
10.4731	130.447	5.97949
10.4745	126.508	5.99902
10.4754	126.431	6.01855
10.47655	133.892	6.03809
10.4798	126.89	6.05762
10.4806	128.43	6.07715
10.4817	138.7213	6.09668
10.4844	133.932	6.11621
10.4857	130.302	6.13574
10.487	136.769	6.15527
10.4898	138.137	6.1748
10.4904	133.207	6.19434
10.4918	139.916	6.21387
10.4933	142.313	6.2334
10.4954	138.535	6.25293
10.4973	139.25	6.27246
10.4978	147.913	6.29199
10.50027	139.909	6.31152
10.5023	143.021	6.33105
10.5034	151.078	6.35059
10.5056	147.031	6.37012
10.5063	140.171	6.38965
10.5086	152.441	6.40918
10.5103	150.175	6.42871
10.5124	146.556	6.44824
10.5128	153.683	6.46777
10.5144	155.131	6.4873
10.5156	144.769	6.50684
10.51793	155.18	6.52637
10.5199	159.69	6.5459
10.5203	152.934	6.56543
10.52332	156.909	6.58496
10.5253	164.124	6.60449
10.5266	154.291	6.62402
10.5286	158.128	6.64355
10.5291	164.519	6.66309
10.5315	159.859	6.68262
10.5322	159.695	6.70215
10.5344	166.4	6.72168
10.53708	163.144	6.74121
10.5377	161.976	6.76074
10.539	171.238	6.78027
10.5424	171.481	6.7998
10.5425	164.487	6.81934
10.5439	168.724	6.83887
10.54612	174.5181	6.8584
10.5474	168.646	6.87793
10.5488	172.296	6.89746
10.551	179.959	6.91699
10.5519	174.846	6.93652
10.5536	171.7394	6.95605
10.5557	182.401	6.97559
10.5576	176.475	6.99512
10.5579	176.917	7.01465
10.5608	184.06	7.03418
10.5624	184.83	7.05371
10.5654	174.976	7.07324
10.5652	185.367	7.09277
10.56742	185.0152	7.1123
10.569	182.102	7.13184
10.5696	186.631	7.15137
10.5725	191.71	7.1709
10.5724	179.605	7.19043
10.575	190.583	7.20996
10.5767	195.537	7.22949
10.5785	189.3755	7.24902
10.5804	187.249	7.26855
10.581	198.668	7.28809
10.5828	190.059	7.30762
10.5862	193.231	7.32715
10.5862	198.595	7.34668
10.58829	197.497	7.36621
10.5896	195.008	7.38574
10.5915	203.759	7.40527
10.5937	201.491	7.4248
10.5946	196.713	7.44434
10.5962	202.256	7.46387
10.5984	206.35	7.4834
10.6003	199.394	7.50293
10.6007	201.865	7.52246
10.6035	207.203	7.54199
10.6041	204.834	7.56152
10.60618	205.019	7.58105
10.6074	212.34	7.60059
10.6093	209.502	7.62012
10.611	204.145	7.63965
10.6131	214.588	7.65918
10.6135	214.543	7.67871
10.6165	208.169	7.69824
10.6173	215.659	7.71777
10.6198	220.088	7.7373
10.6205	210.679	7.75684
10.6222	218.678	7.77637
10.6243	218.578	7.7959
10.6249	216.459	7.81543
10.6275	218.037	7.83496
10.6284	228.1405	7.85449
10.6318	216.28	7.87402
10.6316	221.269	7.89355
10.6343	228.478	7.91309
10.6343	227.8	7.93262
10.6363	222.201	7.95215
10.6386	232.358	7.97168
10.6409	226.479	7.99121
10.6426	225.919	8.01074
10.6436	231.5334	8.03027
10.6458	233.302	8.0498
10.6464	226.456	8.06934
10.6485	233.564	8.08887
10.6502	235.419	8.1084
10.6516	233.123	8.12793
10.6534	235.071	8.14746
10.654	240.75	8.16699
10.6566	236.34	8.18652
10.6584	236.505	8.20605
10.6599	241.723	8.22559
10.6613	240.073	8.24512
10.6632	237.676	8.26465
10.6651	247.656	8.28418
10.666	245.615	8.30371
10.6674	237.936	8.32324
10.6699	247.209	8.34277
10.6709	251.1808	8.3623
10.6724	244.004	8.38184
10.6753	248.188	8.40137
10.6755	255.6259	8.4209
10.6787	244.769	8.44043
10.6788	249.702	8.45996
10.6805	256.625	8.47949
10.6829	251.613	8.49902
10.6833	251.916	8.51855
10.6857	263.45	8.53809
10.6878	254.124	8.55762
10.6894	254.104	8.57715
10.6915	261.315	8.59668
10.6922	262.782	8.61621
10.6939	255.862	8.63574
10.6958	265.276	8.65527
10.6973	260.926	8.6748
10.6986	259.434	8.69434
10.7007	264.383	8.71387
10.7023	270.447	8.7334
10.7039	262.215	8.75293
10.70564	266.195	8.77246
10.7072	270.515	8.79199
10.70853	268.632	8.81152
10.7108	266.539	8.83105
10.7109	275.161	8.85059
10.7135	271.2095	8.87012
10.7152	268.696	8.88965
10.7154	276.236	8.90918
10.7194	276.2612	8.92871
10.7195	269.387	8.94824
10.7214	279.731	8.96777
10.7234	282.91	8.9873
10.7253	273.539	9.00684
10.7272	276.647	9.02637
10.7282	286.2	9.0459
10.7296	279.729	9.06543
10.7313	282.575	9.08496
10.7338	291.242	9.10449
10.7348	279.816	9.12402
10.736	282.35	9.14355
10.7377	291.99	9.16309
10.7395	287.643	9.18262
10.7411	284.115	9.20215
10.7432	294.665	9.22168
10.7453	290.816	9.24121
10.7458	287.402	9.26074
10.7481	295.006	9.28027
10.74924	297.984	9.2998
10.7508	288.4585	9.31934
10.7513	297.758	9.33887
10.7548	298.489	9.3584
10.7549	293.681	9.37793
10.7572	296.308	9.39746
10.7589	306.473	9.41699
10.76176	298.189	9.43652
10.7626	299.485	9.45605
10.7641	302.791	9.47559
10.7656	304.072	9.49512
10.7676	299.306	9.51465
10.7688	311.523	9.53418
10.7708	306.679	9.55371
10.7719	301.459	9.57324
10.7734	307.665	9.59277
10.7756	314.346	9.6123
10.7767	304.025	9.63184
10.7784	309.3093	9.65137
10.7801	316.227	9.6709
10.78076	306.814	9.69043
10.78361	309.101	9.70996
10.7848	318.944	9.72949
10.787	312.59	9.74902
10.7886	313.715	9.76855
10.7902	322.3157	9.78809
10.7913	315.405	9.80762
10.7928	311.88	9.82715
10.79519	324.631	9.84668
10.7971	322.914	9.86621
10.7975	318.002	9.88574
10.7994	326.77	9.90527
10.8017	324.257	9.9248
10.8035	320.471	9.94434
10.8046	328.151	9.96387
10.8059	333.445	9.9834
10.8076	322.7597	10.00293
10.809	328.826	10.0225
10.8112	331.99	10.042
10.8122	328.875	10.0615
10.8143	326.891	10.0811
10.81546	338.6813	10.1006
10.8184	333.2944	10.1201
10.8191	331.439	10.1396
10.8203	334.835	10.15918
10.8233	337.319	10.1787
10.823	331.665	10.1982
10.8271	342.335	10.2178
10.8276	342.5527	10.2373
10.8287	334.662	10.2568
10.8303	337.312	10.2764
10.8328	348.317	10.2959
10.8339	339.09	10.31543
10.836	343.475	10.335
10.8366	350.741	10.3545
10.8388	342.701	10.374
10.8395	341.443	10.3936
10.8422	354.4147	10.4131
10.8435	348.291	10.4326
10.8458	343.617	10.4521
10.8471	356.908	10.47168
10.84973	352.412	10.4912
10.8509	345.826	10.5107
10.8523	354.866	10.5303
10.8537	358.733	10.5498
10.85524	350.907	10.5693
10.8566	359.549	10.5889
10.8577	357.667	10.6084
10.8599	354.125	10.62793
10.8614	357.579	10.6475
10.8632	368	10.667
10.8635	358.456	10.6865
10.8665	359.653	10.7061
10.8682	366.134	10.7256
10.8694	365.3735	10.7451
10.8723	359.41	10.7646
10.8735	370.761	10.78418
10.8741	367.078	10.8037
10.87686	363.989	10.8232
10.87752	367.992	10.8428
10.8797	375.289	10.8623
10.8818	363.33	10.8818
10.8824	372.609	10.9014
10.8845	378.666	10.9209
10.8855	368.972	10.94043
10.8872	368.1416	10.96
10.8894	381.323	10.9795
10.8906	372.679	10.999
10.8917	375.876	11.0186
10.8952	383.772	11.0381
10.8954	378.062	11.0576
10.8991	370.778	11.0771
10.8994	387.238	11.09668
10.901	381.675	11.1162
10.903	376.142	11.1357
10.9042	386.675	11.1553
10.9062	385.9021	11.1748
10.9065	377.615	11.1943
10.9091	387.8	11.2139
10.9114	392.704	11.2334
10.9122	383.007	11.25293
10.9145	391.53	11.2725
10.9156	392.956	11.292
10.9161	386.624	11.3115
10.9185	387.734	11.3311
10.9206	400.245	11.3506
10.9223	394.887	11.3701
10.9231	390.631	11.3896
10.9251	397.8288	11.40918
10.9259	399.865	11.4287
10.9277	392.025	11.4482
10.9309	402.527	11.4678
10.9306	402.263	11.4873
10.9337	394.4935	11.5068
10.9352	399.104	11.5264
10.9354	409.162	11.5459
10.9374	398	11.56543
10.9404	402.938	11.585
10.94063	410.725	11.6045
10.9425	404.91	11.624
10.9451	401.989	11.6436
10.9473	414.357	11.6631
10.94841	407.125	11.6826
10.9493	406.177	11.7021
10.95103	415.735	11.72168
10.9527	412.45	11.7412
10.955	405.544	11.7607
10.9563	419.134	11.7803
10.95737	418.818	11.7998
10.9602	409.991	11.8193
10.96043	417.204	11.8389
10.96319	421.09	11.8584
10.963	413.185	11.87793
10.9663	420.3013	11.8975
10.9674	425.902	11.917
10.9696	417.275	11.9365
10.9712	419.761	11.9561
10.97123	424.965	11.9756
10.9729	422.012	11.9951
10.9752	418.842	12.0146
10.977	430.008	12.03418
10.97881	428.625	12.0537
10.9805	423.774	12.0732
10.9825	428.494	12.0928
10.9831	431.956	12.1123
10.9858	423.559	12.1318
10.9874	433.873	12.1514
10.9881	437.154	12.1709
10.9895	428.234	12.19043
10.991	428.912	12.21
10.9928	443.458	12.2295
10.9947	432.149	12.249
10.9966	433.11	12.2686
10.9986	443.056	12.2881
10.9999	439.887	12.3076
11.0015	432.59	12.3271
11.004	446.795	12.34668
11.0052	440.874	12.3662
11.0062	438.089	12.3857
11.008	447.053	12.4053
11.0103	448.789	12.4248
11.0108	435.806	12.4443
11.013	448.19	12.4639
11.01479	450.755	12.4834
11.0163	444.15	12.50293
11.0171	448.947	12.5225
11.0188	453.0401	12.542
11.0213	443.832	12.5615
11.022	450.555	12.5811
11.0241	458.874	12.6006
11.0265	451.823	12.6201
11.0269	450.652	12.6396
11.0288	458.304	12.65918
11.0308	456.619	12.6787
11.0326	451.303	12.6982
11.0338	460.162	12.7178
11.0353	461.858	12.7373
11.0372	455.089	12.7568
11.0376	457.714	12.7764
11.0409	466.627	12.7959
11.0421	456.027	12.81543
11.0438	462.915	12.835
11.0459	469.593	12.8545
11.047	462.765	12.874
11.04903	458.658	12.8936
11.05045	473.197	12.9131
11.051	467.414	12.9326
11.0533	465.282	12.9521
11.0553	473.894	12.97168
11.0563	472.494	12.9912
11.05861	462.913	13.0107
11.06008	477.545	13.0303
11.0615	476.055	13.0498
11.0643	469.332	13.0693
11.0659	475.842	13.0889
11.0668	481.675	13.1084
11.0684	469.69	13.12793
11.0703	476.164	13.1475
11.07121	483.045	13.167
11.0725	477.435	13.1865
11.0748	477.297	13.2061
11.0765	486.493	13.2256
11.0775	477.999	13.2451
11.0794	479.519	13.2646
11.081	488.972	13.28418
11.0831	486.7529	13.3037
11.08411	479.258	13.3232
11.0861	487.384	13.3428
11.0878	490.663	13.3623
11.0891	484.5463	13.3818
11.09	491.768	13.4014
11.09293	493.5611	13.4209
11.0958	489.029	13.44043
11.09575	489.915	13.46
11.0965	499.426	13.4795
11.0994	490.304	13.499
11.1009	490.731	13.5186
11.1033	501.639	13.5381
11.1035	497.731	13.5576
11.1053	490.05	13.5771
11.1071	502.287	13.59668
11.1098	500.498	13.6162
11.1097	497.383	13.6357
11.112	504.498	13.6553
11.11335	506.0351	13.6748
11.1162	493.274	13.6943
11.1172	507.543	13.7139
11.11885	509.37	13.7334
11.1195	502.178	13.75293
11.1224	505.653	13.7725
11.1232	513.943	13.792
11.1247	503.653	13.8115
11.1273	507.183	13.8311
11.12761	513.6637	13.8506
11.1302	510.222	13.8701
11.1312	508.17	13.8896
11.1332	516.6366	13.90918
11.135	511.313	13.9287
11.1365	508.963	13.9482
11.13837	517.161	13.9678
11.1384	520.26	13.9873
11.1422	511.657	14.0068
11.1437	515.935	14.0264
11.1448	520.023	14.0459
11.1457	514.552	14.06543
11.1469	520.117	14.085
11.14831	525.53	14.1045
11.1514	518.487	14.124
11.1519	516.231	14.1436
11.1542	529.49	14.1631
11.1558	524.22	14.1826
11.15781	521.485	14.2021
11.1591	529.708	14.22168
11.161	530.679	14.2412
11.1622	520.658	14.2607
11.1635	533.04	14.2803
11.16565	531.6626	14.2998
11.1672	525.59	14.3193
11.1698	534.799	14.3389
11.1698	539.169	14.3584
11.17252	524.9751	14.37793
11.1743	533.723	14.3975
11.1762	539.933	14.417
11.1771	534.042	14.4365
11.1781	532.981	14.4561
11.1798	541.961	14.4756
11.18268	533.792	14.4951
11.1842	536.724	14.5146
11.1852	545.4718	14.53418
11.1861	543.33	14.5537
11.1875	535.803	14.5732
11.19067	546.883	14.5928
11.1921	545.532	14.6123
11.1928	541.487	14.6318
11.1956	545.88	14.6514
11.1963	550.813	14.6709
11.1981	543.582	14.69043
11.2006	547.506	14.71
11.2016	552.083	14.7295
11.2024	546.805	14.749
11.2043	547.3999	14.7686
11.2072	557.222	14.7881
11.2093	552.57	14.8076
11.2101	546.307	14.8271
11.2117	557.532	14.84668
11.2127	555.764	14.8662
11.2147	550.5047	14.8857
11.2161	557.98	14.9053
11.2184	561.334	14.9248
11.22	551.415	14.9443
11.2209	561.63	14.9639
11.2229	564.712	14.9834
11.2237	556.895	15.00293
11.22497	561.655	15.0225
11.2279	571.832	15.042
11.2284	557.745	15.0615
11.2301	561.229	15.0811
11.2317	568.7818	15.1006
11.2349	564.5318	15.1201
11.2351	563.219	15.1396
11.2378	573.321	15.15918
11.2402	565.5011	15.1787
11.2413	564.89	15.1982
11.2423	573.002	15.2178
11.2439	574.445	15.2373
11.2453	565.231	15.2568
11.2472	574.169	15.2764
11.2482	575.601	15.2959
11.2506	572.94	15.31543
11.2514	573.804	15.335
11.25448	581.426	15.3545
11.2564	574.22	15.374
11.2562	574.044	15.3936
11.2581	582.182	15.4131
11.2607	578.575	15.4326
11.2618	574.479	15.4521
11.26264	586.667	15.47168
11.2658	585.222	15.4912
11.2668	576.145	15.5107
11.26662	584.038	15.5303
11.2705	588.73	15.5498
11.272	581.033	15.5693
11.2727	586.625	15.5889
11.2752	593.395	15.6084
11.2752	581.03	15.62793
11.2784	588.368	15.6475
11.2794	595.118	15.667
11.2803	588.151	15.6865
11.2835	586.47	15.7061
11.2849	599.0929	15.7256
11.2858	590.178	15.7451
11.2881	590.068	15.7646
11.2896	598.792	15.78418
11.2919	597.524	15.8037
11.293	592.248	15.8232
11.2936	601.852	15.8428
11.296	597.071	15.8623
11.2975	593.602	15.8818
11.2992	599.311	15.9014
11.3008	606.994	15.9209
11.3025	596.145	15.94043
11.3039	602.281	15.96
11.3055	604.696	15.9795
11.3068	604.581	15.999
11.3085	601.678	16.0186
11.311	612.54	16.0381
11.3127	606.186	16.0576
11.3135	602.5838	16.0771
11.31579	609.495	16.09668
11.31774	611.7804	16.1162
11.3183	602.58	16.1357
11.3205	612.3	16.1553
11.3223	615.158	16.1748
11.3239	605.995	16.1943
11.3262	609.904	16.2139
11.3267	616.804	16.2334
11.3281	609.537	16.25293
11.3301	613.132	16.2725
11.3316	623.466	16.292
11.33323	611.909	16.3115
11.3349	613.76	16.3311
11.3358	624.071	16.3506
11.3383	620.986	16.3701
11.3393	613.92	16.3896
11.3414	626.556	16.40918
11.3433	619.055	16.4287
11.3444	619.7	16.4482
11.3455	626.376	16.4678
11.3477	629.706	16.4873
11.3489	620.865	16.5068
11.3506	630.509	16.5264
11.3538	630.373	16.5459
11.3553	626.169	16.56543
11.3562	626.43	16.585
11.358	636.515	16.6045
11.3596	627.953	16.624
11.3606	629.314	16.6436
11.3618	633.339	16.6631
11.36517	633.012	16.6826
11.3657	628.268	16.7021
11.36684	641.096	16.72168
11.369	637.741	16.7412
11.3709	630.734	16.7607
11.372	638.958	16.7803
11.373	641.665	16.7998
11.3751	634.135	16.8193
11.3778	639.104	16.8389
11.3785	644.912	16.8584
11.3808	635.1095	16.87793
11.382	638.71	16.8975
11.384	651.232	16.917
11.3862	640.223	16.9365
11.3871	640.811	16.9561
11.3892	651.145	16.9756
11.39	642.735	16.9951
11.391	639.795	17.0146
11.3942	652.339	17.03418
11.3952	650.933	17.0537
11.3968	644.217	17.0732
11.39779	653.791	17.0928
11.4003	651.2149	17.1123
11.4018	647.764	17.1318
11.403	653.708	17.1514
11.40602	658.699	17.1709
11.4074	648.8277	17.19043
11.4082	656.245	17.21
11.4092	657.083	17.2295
11.4114	655.027	17.249
11.4132	651.4328	17.2686
11.4155	662.362	17.2881
11.4164	655.853	17.3076
11.4184	655.258	17.3271
11.4197	659.784	17.34668
11.421	662.189	17.3662
11.4229	655.75	17.3857
11.4245	667.6319	17.4053
11.426	667.571	17.4248
11.4286	658.138	17.4443
11.4287	661.053	17.4639
11.4306	671.317	17.4834
11.4326	662.391	17.50293
11.4339	668.135	17.5225
11.4362	673.519	17.542
11.4379	665.854	17.5615
11.44	663.4	17.5811
11.44086	677.756	17.6006
11.4415	670.901	17.6201
11.444	667.517	17.6396
11.4457	678.397	17.65918
11.44757	673.715	17.6787
11.4491	668.381	17.6982
11.4503	677.442	17.7178
11.4515	679.53	17.7373
11.4547	671.178	17.7568
11.45558	679.161	17.7764
11.4571	680.346	17.7959
11.4583	673.117	17.81543
11.4609	679.985	17.835
11.4624	688.539	17.8545
11.46258	679.036	17.874
11.4655	680.141	17.8936
11.4657	686.319	17.9131
11.4682	684.7066	17.9326
11.4699	678.092	17.9521
11.4715	691.467	17.97168
11.4731	688.163	17.9912
11.4747	681.815	18.0107
11.4767	687.037	18.0303
11.4773	692.251	18.0498
11.4804	681.772	18.0693
11.4809	692.068	18.0889
11.48207	696.249	18.1084
11.485	688.678	18.12793
11.4856	689.176	18.1475
11.4888	699.35	18.167
11.49046	689.934	18.1865
11.4903	691.294	18.2061
11.4933	701.368	18.2256
11.4939	694.551	18.2451
11.4962	687.876	18.2646
11.4977	702.947	18.28418
11.4993	699.8335	18.3037
11.5017	692.8653	18.3232
11.5027	701.626	18.3428
11.5044	702.087	18.3623
11.5052	694.307	18.3818
11.5076	703.182	18.4014
11.5082	707.768	18.4209
11.51043	697.784	18.44043
11.5125	704.147	18.46
11.514	708.76	18.4795
11.51522	701.666	18.499
11.5171	702.576	18.5186
11.5183	713.742	18.5381
11.5197	706.648	18.5576
11.522	705.128	18.5771
11.5248	711.741	18.59668
11.5255	711.964	18.6162
11.5269	703.739	18.6357
11.5287	716.888	18.6553
11.5304	716.61	18.6748
11.5312	708.268	18.6943
11.5334	711.601	18.7139
11.5357	722.752	18.7334
11.5367	710.399	18.75293
11.5384	715.247	18.7725
11.54038	722.757	18.792
11.5415	715.507	18.8115
11.5436	711.065	18.8311
11.5443	724.903	18.8506
11.5464	717.635	18.8701
11.5469	714.629	18.8896
11.5502	726.922	18.90918
11.5515	722.817	18.9287
11.5529	713.419	18.9482
11.5556	726.286	18.9678
11.5559	727.44	18.9873
11.5583	719.06	19.0068
11.5598	726.65	19.0264
11.5622	728.526	19.0459
11.5631	720.188	19.06543
11.5648	726.599	19.085
11.5658	733.367	19.1045
11.5673	724.165	19.124
11.569	726.11	19.1436
11.5715	734.853	19.1631
11.5726	729.887	19.1826
11.5745	726.018	19.2021
11.5764	736.67	19.22168
11.5774	735.1673	19.2412
11.5796	729.782	19.2607
11.581	734.533	19.2803
11.5816	736.7785	19.2998
11.5842	729.235	19.3193
11.5861	739.403	19.3389
11.5869	743.5448	19.3584
11.5883	733.7066	19.37793
11.5906	734.352	19.3975
11.5924	745.7558	19.417
11.5942	736.624	19.4365
11.5946	739.228	19.4561
11.5978	745.932	19.4756
11.59831	741.492	19.4951
11.5997	736.422	19.5146
11.6012	749.3927	19.53418
11.6029	744.598	19.5537
11.6049	740.837	19.5732
11.6067	750.2583	19.5928
11.60809	750.8	19.6123
11.6103	737.783	19.6318
11.6116	748.822	19.6514
11.6132	752.969	19.6709
11.6152	745.5307	19.69043
11.617	750.089	19.71
11.6182	755.346	19.7295
11.6201	744.306	19.749
11.6216	749.4436	19.7686
11.6223	757.159	19.7881
11.6246	749.019	19.8076
11.6263	748.83	19.8271
11.6278	755.992	19.84668
11.6294	754.864	19.8662
11.63068	751.078	19.8857
11.6326	760.675	19.9053
11.6344	759.17	19.9248
11.636	754.115	19.9443
11.6379	757.5	19.9639
11.6388	762.862	19.9834
11.6409	753.224	20.00293
11.6416	754.955	20.0127

Data Header:			0.254_hd_dimension_typei_090_r0			Time:	40.0186	s	4/15/2019 3:41:37 PM
Data Acquisition:	Timed
Station Name:	ft40.cfg
Test File Name:	monotonic_0.2540_typei_hd_090_dimension.tst
Displacement	Force	Running Time
mm	N	s
11.6429	758.926	20.0225
11.6446	766.724	20.042
11.64623	761.7691	20.0615
11.6478	755.979	20.0811
11.649	768.937	20.1006
11.6507	762.687	20.1201
11.6523	760.3	20.1396
11.6528	768.925	20.15918
11.6554	766.958	20.1787
11.6573	756.478	20.1982
11.6582	772.34	20.2178
11.6598	770.935	20.2373
11.6618	760.946	20.2568
11.6641	769.366	20.2764
11.6651	775.164	20.2959
11.6671	762.977	20.31543
11.6681	772.389	20.335
11.6709	775.42	20.3545
11.6712	767.9491	20.374
11.67413	771.364	20.3936
11.67535	777.489	20.4131
11.67585	768.712	20.4326
11.6783	770.347	20.4521
11.6795	780.873	20.47168
11.6815	776.097	20.4912
11.6831	771.168	20.5107
11.6846	777.4884	20.5303
11.686	777.87	20.5498
11.6883	772.701	20.5693
11.6895	779.298	20.5889
11.6909	782.184	20.6084
11.6937	776.567	20.62793
11.6941	776.0177	20.6475
11.6961	786.3584	20.667
11.6986	777.422	20.6865
11.6992	780.0202	20.7061
11.7013	787.43	20.7256
11.7027	784.07	20.7451
11.705	776.092	20.7646
11.7066	789.6955	20.78418
11.7086	785.399	20.8037
11.7085	781.217	20.8232
11.7112	790.514	20.8428
11.7122	791.007	20.8623
11.7136	777.187	20.8818
11.716	788.771	20.9014
11.71715	793.499	20.9209
11.7203	785.462	20.94043
11.7203	786.565	20.96
11.7218	796.586	20.9795
11.72452	785.45	20.999
11.7254	790.67	21.0186
11.7271	795.894	21.0381
11.7292	790.86	21.0576
11.73	788.83	21.0771
11.7314	796.729	21.09668
11.7352	791.635	21.1162
11.7342	789.964	21.1357
11.7364	797.072	21.1553
11.7383	798.241	21.1748
11.74111	792.954	21.1943
11.7423	793.49	21.2139
11.7435	798.811	21.2334
11.7444	792.9892	21.25293
11.74684	797.438	21.2725
11.7478	805.1098	21.292
11.7496	796.444	21.3115
11.7517	793.4986	21.3311
11.7521	804.861	21.3506
11.7541	799.548	21.3701
11.7572	797.647	21.3896
11.7582	806.4859	21.40918
11.7603	804.808	21.4287
11.7617	794.159	21.4482
11.7628	807.84	21.4678
11.7645	805.852	21.4873
11.7652	799.597	21.5068
11.7674	806.118	21.5264
11.7691	812.2002	21.5459
11.7729	797.475	21.56543
11.7724	805.879	21.585
11.774	811.901	21.6045
11.7758	804.624	21.624
11.7776	805.31	21.6436
11.7789	813.415	21.6631
11.7813	802.7262	21.6826
11.78229	807.019	21.7021
11.7836	814.756	21.72168
11.7858	813.178	21.7412
11.7873	804.603	21.7607
11.7891	815.988	21.7803
11.7903	811.346	21.7998
11.79155	808.9209	21.8193
11.7937	813.292	21.8389
11.7948	816.6958	21.8584
11.7982	809.846	21.87793
11.7979	812.5	21.8975
11.8004	818.364	21.917
11.8032	813.212	21.9365
11.8049	812.276	21.9561
11.805	821.3219	21.9756
11.807	815.886	21.9951
11.8097	809.369	22.0146
11.8099	819.472	22.03418
11.8119	818.627	22.0537
11.8135	815.53	22.0732
11.816	820.416	22.0928
11.8166	824.341	22.1123
11.8184	812.355	22.1318
11.81996	820.643	22.1514
11.8208	825.0285	22.1709
11.8242	816.3028	22.19043
11.825	818.3327	22.21
11.8264	826.519	22.2295
11.8281	815.86	22.249
11.83	821.103	22.2686
11.83084	827.454	22.2881
11.8337	822.933	22.3076
11.8351	819.2157	22.3271
11.8359	829.04	22.34668
11.8377	820.6908	22.3662
11.8399	819.189	22.3857
11.8417	827.101	22.4053
11.8423	830.202	22.4248
11.8445	821.508	22.4443
11.8457	826.404	22.4639
11.8478	829.923	22.4834
11.8484	823.527	22.50293
11.8506	825.826	22.5225
11.8522	832.34	22.542
11.8549	825.976	22.5615
11.85581	826.086	22.5811
11.8578	831.5791	22.6006
11.8582	827.848	22.6201
11.8616	824.532	22.6396
11.8616	832.78	22.65918
11.8643	831.67	22.6787
11.8657	821.39	22.6982
11.8665	832.839	22.7178
11.86819	832.7644	22.7373
11.8709	826.958	22.7568
11.8711	831.653	22.7764
11.8741	838.173	22.7959
11.8749	824.177	22.81543
11.87749	832.476	22.835
11.8785	838.699	22.8545
11.8808	830.45	22.874
11.8812	830.565	22.8936
11.8836	840.678	22.9131
11.8845	831.157	22.9326
11.8861	831.12	22.9521
11.88765	837.779	22.97168
11.8898	837.505	22.9912
11.8912	829.223	23.0107
11.8938	839.149	23.0303
11.8953	836.6004	23.0498
11.8958	832.15	23.0693
11.8984	837.911	23.0889
11.9	842.223	23.1084
11.9008	833.007	23.12793
11.9037	835.609	23.1475
11.9051	839.497	23.167
11.906	835.338	23.1865
11.90834	835.799	23.2061
11.9098	842.984	23.2256
11.9109	838.047	23.2451
11.9135	832.121	23.2646
11.9141	841.652	23.28418
11.916	842.131	23.3037
11.9173	832.457	23.3232
11.9193	840.909	23.3428
11.92107	843.699	23.3623
11.9236	834.476	23.3818
11.9244	839.671	23.4014
11.9259	844.87	23.4209
11.9272	835.614	23.44043
11.9284	840.511	23.46
11.9309	848.659	23.4795
11.9318	836.21	23.499
11.9334	836.959	23.5186
11.93576	845.823	23.5381
11.9364	843.334	23.5576
11.9388	837.089	23.5771
11.9406	847.21	23.59668
11.9412	839.967	23.6162
11.9431	840.635	23.6357
11.9449	845.714	23.6553
11.9475	845.471	23.6748
11.9492	837.535	23.6943
11.9498	846.43	23.7139
11.951	846.795	23.7334
11.9544	841.177	23.75293
11.9547	841.934	23.7725
11.9566	850.44	23.792
11.9579	842.635	23.8115
11.9597	843.394	23.8311
11.9617	847.485	23.8506
11.964	845.025	23.8701
11.9654	839.536	23.8896
11.9667	850.979	23.90918
11.9678	847.756	23.9287
11.9704	839.306	23.9482
11.9707	845.271	23.9678
11.9736	850.652	23.9873
11.9748	841.567	24.0068
11.976	847.296	24.0264
11.9776	852.8656	24.0459
11.9795	841.525	24.06543
11.98156	845.236	24.085
11.9828	852.036	24.1045
11.9847	843.415	24.124
11.9861	843.428	24.1436
11.9873	854.986	24.1631
11.98882	844.5874	24.1826
11.9917	842.214	24.2021
11.9922	851.65	24.22168
11.9934	850.637	24.2412
11.9957	844.214	24.2607
11.9971	851.972	24.2803
11.9986	847.733	24.2998
12.0004	843.049	24.3193
12.0025	847.352	24.3389
12.0036	854.651	24.3584
12.0057	844.357	24.37793
12.00755	849.657	24.3975
12.0098	850.594	24.417
12.0106	848.2677	24.4365
12.0119	845.108	24.4561
12.0132	854.791	24.4756
12.0156	848.878	24.4951
12.016	846.575	24.5146
12.018	851.799	24.53418
12.0197	851.487	24.5537
12.022	844.291	24.5732
12.0225	854.036	24.5928
12.0255	854.4	24.6123
12.0259	844.38	24.6318
12.0285	847.16	24.6514
12.0303	855.826	24.6709
12.03123	846.839	24.69043
12.0323	848.17	24.71
12.0346	856.056	24.7295
12.0361	844.272	24.749
12.0374	845.983	24.7686
12.03993	856.48	24.7881
12.0414	849.834	24.8076
12.0429	845.826	24.8271
12.0441	857.245	24.84668
12.0461	850.686	24.8662
12.0479	846.483	24.8857
12.04918	852.719	24.9053
12.0508	855.05	24.9248
12.0531	845.852	24.9443
12.0539	853.681	24.9639
12.0546	852.299	24.9834
12.0574	847.563	25.00293
12.0594	848.331	25.0225
12.0611	858.95	25.042
12.0616	849.27	25.0615
12.06466	848.513	25.0811
12.0663	853.391	25.1006
12.0668	853.061	25.1201
12.0693	847.725	25.1396
12.06988	855.99	25.15918
12.0728	852.524	25.1787
12.0746	845.725	25.1982
12.0746	851.848	25.2178
12.077	857.6	25.2373
12.0778	845.809	25.2568
12.0811	853.301	25.2764
12.0816	856.486	25.2959
12.0834	847.341	25.31543
12.0853	846.842	25.335
12.087	857.503	25.3545
12.08909	846.694	25.374
12.0899	849.175	25.3936
12.09194	856.845	25.4131
12.0929	849.484	25.4326
12.0947	843.42	25.4521
12.09727	857.62	25.47168
12.0983	853.713	25.4912
12.09991	845.995	25.5107
12.1013	854.165	25.5303
12.1032	852.151	25.5498
12.10474	845.672	25.5693
12.1072	851.539	25.5889
12.1083	855.6499	25.6084
12.11012	845.231	25.62793
12.1117	852.24	25.6475
12.1139	854.531	25.667
12.1135	847.858	25.6865
12.1166	846.078	25.7061
12.118	859.083	25.7256
12.11961	850.572	25.7451
12.1196	848.68	25.7646
12.1224	851.375	25.78418
12.1247	852.677	25.8037
12.12603	844.969	25.8232
12.1275	854.725	25.8428
12.1299	854.209	25.8623
12.1307	845.992	25.8818
12.1338	849.097	25.9014
12.1341	859.0722	25.9209
12.1357	846.358	25.94043
12.1374	849.075	25.96
12.13957	854.978	25.9795
12.1402	847.192	25.999
12.1428	845.81	26.0186
12.1435	857.259	26.0381
12.1454	848.9469	26.0576
12.1468	846.113	26.0771
12.1486	856.139	26.09668
12.15048	850.396	26.1162
12.1521	841.649	26.1357
12.1539	852.866	26.1553
12.155	853.038	26.1748
12.1572	844.786	26.1943
12.1584	850.704	26.2139
12.1602	851.643	26.2334
12.1611	843.51	26.25293
12.1639	849.085	26.2725
12.1645	856.254	26.292
12.1658	845.745	26.3115
12.1682	846.957	26.3311
12.1704	851.372	26.3506
12.1716	848.452	26.3701
12.1733	844.263	26.3896
12.1751	855.454	26.40918
12.1761	850.881	26.4287
12.1779	846.463	26.4482
12.1791	848.403	26.4678
12.1819	851.282	26.4873
12.1834	840.479	26.5068
12.185	849.5271	26.5264
12.1855	854.534	26.5459
12.1881	844.611	26.56543
12.1892	843.724	26.585
12.19137	856.243	26.6045
12.19174	845.036	26.624
12.1939	846.433	26.6436
12.1962	853.009	26.6631
12.1971	846.935	26.6826
12.19805	841.392	26.7021
12.2	854.446	26.72168
12.2027	846.662	26.7412
12.2039	842.682	26.7607
12.2059	850.914	26.7803
12.2071	851.669	26.7998
12.2085	840.061	26.8193
12.2101	848.959	26.8389
12.2131	850.259	26.8584
12.2146	843.623	26.87793
12.2158	847.171	26.8975
12.2183	851.818	26.917
12.2177	841.741	26.9365
12.21972	843.937	26.9561
12.2222	852.817	26.9756
12.2238	844.978	26.9951
12.2257	841.98	27.0146
12.2274	846.481	27.03418
12.229	846.344	27.0537
12.2298	838.846	27.0732
12.2306	848.495	27.0928
12.2331	848.272	27.1123
12.2352	842.458	27.1318
12.2365	844.235	27.1514
12.2376	850.977	27.1709
12.2401	839.854	27.19043
12.2417	842.475	27.21
12.2429	850.074	27.2295
12.2447	844.593	27.249
12.2466	836.702	27.2686
12.2475	850.068	27.2881
12.2495	842.554	27.3076
12.2511	842.203	27.3271
12.2536	850.007	27.34668
12.2545	842.969	27.3662
12.2559	834.884	27.3857
12.2579	849.014	27.4053
12.2597	845.723	27.4248
12.261	836.85	27.4443
12.2624	845.612	27.4639
12.2641	847.256	27.4834
12.2653	837.988	27.50293
12.2667	840.849	27.5225
12.2688	846.125	27.542
12.2707	839.341	27.5615
12.2727	840.415	27.5811
12.274	848.318	27.6006
12.2752	838.473	27.6201
12.2768	837.64	27.6396
12.2782	848.498	27.65918
12.2813	843.302	27.6787
12.2819	838.446	27.6982
12.2833	841.379	27.7178
12.2855	844.981	27.7373
12.2874	837.125	27.7568
12.2899	844.688	27.7764
12.2906	846.934	27.7959
12.2914	837.6452	27.81543
12.2934	837.0094	27.835
12.2953	847.751	27.8545
12.2966	838.033	27.874
12.2987	837.841	27.8936
12.2996	847.238	27.9131
12.30153	841.213	27.9326
12.3027	832.857	27.9521
12.3048	846.188	27.97168
12.3062	841.262	27.9912
12.3084	835.26	28.0107
12.3099	844.58	28.0303
12.3119	844.882	28.0498
12.31316	829.742	28.0693
12.3148	842.272	28.0889
12.3162	845.562	28.1084
12.3188	835.947	28.12793
12.3193	838.79	28.1475
12.3217	843.988	28.167
12.3222	834.7691	28.1865
12.32455	838.034	28.2061
12.3266	844.057	28.2256
12.3277	836.484	28.2451
12.3292	834.528	28.2646
12.331	841.235	28.28418
12.3326	837.986	28.3037
12.3348	831.137	28.3232
12.3364	841.557	28.3428
12.3388	841.418	28.3623
12.3389	834.849	28.3818
12.3403	836.444	28.4014
12.3429	841.249	28.4209
12.3438	832.734	28.44043
12.3461	838.237	28.46
12.3473	843.658	28.4795
12.3482	834.371	28.499
12.3514	830.137	28.5186
12.3514	844.629	28.5381
12.3542	837.128	28.5576
12.3559	833.942	28.5771
12.3572	841.531	28.59668
12.3585	840.117	28.6162
12.3607	829.421	28.6357
12.36239	842.648	28.6553
12.3628	838.5	28.6748
12.3647	831.982	28.6943
12.3664	838.87	28.7139
12.3682	843.022	28.7334
12.3707	827.358	28.75293
12.3718	836.2	28.7725
12.3733	841.702	28.792
12.3743	834.741	28.8115
12.37661	833.068	28.8311
12.3782	839.411	28.8506
12.3798	830.769	28.8701
12.3823	832.975	28.8896
12.3828	840.226	28.90918
12.3851	835.573	28.9287
12.3878	831.602	28.9482
12.3878	837.817	28.9678
12.3911	836.941	28.9873
12.3904	830.175	29.0068
12.3929	835.549	29.0264
12.3947	838.383	29.0459
12.3968	832.029	29.06543
12.3975	831.572	29.085
12.4	838.642	29.1045
12.4017	831.438	29.124
12.4026	832.619	29.1436
12.4043	841.355	29.1631
12.40595	834.529	29.1826
12.4083	827.0556	29.2021
12.4086	839.975	29.22168
12.4107	836.218	29.2412
12.4125	830.529	29.2607
12.4135	837.609	29.2803
12.4152	838.125	29.2998
12.4163	828.385	29.3193
12.4189	838.716	29.3389
12.4202	838.764	29.3584
12.42205	830.049	29.37793
12.4225	832.74	29.3975
12.4259	839.928	29.417
12.4275	829.171	29.4365
12.4292	832.6723	29.4561
12.4313	836.672	29.4756
12.4315	832.4212	29.4951
12.4345	829.291	29.5146
12.4354	837.965	29.53418
12.4367	832.391	29.5537
12.4389	830.123	29.5732
12.4407	837.414	29.5928
12.4424	837.9209	29.6123
12.4432	829.948	29.6318
12.4448	832.883	29.6514
12.4467	835.344	29.6709
12.4487	830.467	29.69043
12.45026	833.223	29.71
12.451	837.992	29.7295
12.454	831.288	29.749
12.4556	827.333	29.7686
12.4564	836.668	29.7881
12.4579	831.8219	29.8076
12.4591	829.0871	29.8271
12.4619	838.2464	29.84668
12.4634	837.445	29.8662
12.4641	825.147	29.8857
12.4661	835.451	29.9053
12.468	836.422	29.9248
12.4699	827.748	29.9443
12.4704	834.5697	29.9639
12.4731	838.54	29.9834
12.4753	824.364	30.00293
12.4758	832.975	30.0225
12.47698	837.4848	30.042
12.4783	830.35	30.0615
12.4809	828.8855	30.0811
12.4818	837.327	30.1006
12.48501	829.579	30.1201
12.4864	828.747	30.1396
12.4873	834.631	30.15918
12.4892	833.433	30.1787
12.4903	825.068	30.1982
12.4923	835.526	30.2178
12.4942	831.604	30.2373
12.4957	827.5105	30.2568
12.4967	833.246	30.2764
12.4992	835.794	30.2959
12.5002	827.797	30.31543
12.5015	827.283	30.335
12.5036	833.885	30.3545
12.5048	828.616	30.374
12.5067	829.789	30.3936
12.509	836.013	30.4131
12.5113	829.969	30.4326
12.5114	825.206	30.4521
12.5131	833.035	30.47168
12.5159	832.678	30.4912
12.5164	824.704	30.5107
12.5182	832.341	30.5303
12.5207	836.199	30.5498
12.5211	824.31	30.5693
12.5239	832.601	30.5889
12.5255	834.415	30.6084
12.52479	827.087	30.62793
12.5281	829.782	30.6475
12.5293	836.991	30.667
12.5307	823.104	30.6865
12.5316	827.029	30.7061
12.5347	836.931	30.7256
12.5365	829.928	30.7451
12.5381	826.524	30.7646
12.5395	835.464	30.78418
12.5411	829.818	30.8037
12.542	827.647	30.8232
12.5432	833.146	30.8428
12.5459	836.196	30.8623
12.54713	824.5412	30.8818
12.5497	831.171	30.9014
12.5511	832.991	30.9209
12.552	827.197	30.94043
12.5539	828.2019	30.96
12.5558	834.96	30.9795
12.5578	827.349	30.999
12.5591	825.781	31.0186
12.561	831.296	31.0381
12.56182	829.978	31.0576
12.5642	825.301	31.0771
12.5653	834.311	31.09668
12.567	831.433	31.1162
12.5686	821.082	31.1357
12.5696	830.81	31.1553
12.5711	832.729	31.1748
12.5735	823.756	31.1943
12.575	827.933	31.2139
12.5761	834.732	31.2334
12.5796	822.798	31.25293
12.5802	827.996	31.2725
12.58174	834.741	31.292
12.58294	826.287	31.3115
12.5854	825.627	31.3311
12.5873	836.336	31.3506
12.5882	825.56	31.3701
12.59	823.935	31.3896
12.5914	833.472	31.40918
12.5935	830.7392	31.4287
12.5941	824.482	31.4482
12.5969	831.7807	31.4678
12.5981	828.398	31.4873
12.5996	825.634	31.5068
12.6015	829.971	31.5264
12.6026	835.195	31.5459
12.6047	822.594	31.56543
12.6061	827.565	31.585
12.60701	830.837	31.6045
12.6086	827.254	31.624
12.6118	824.727	31.6436
12.6122	832.745	31.6631
12.6144	827.356	31.6826
12.6168	823.626	31.7021
12.6181	830.888	31.72168
12.6182	830.079	31.7412
12.62085	821.47	31.7607
12.6222	831.047	31.7803
12.6241	832.613	31.7998
12.6248	820.298	31.8193
12.6273	825.394	31.8389
12.6282	834.578	31.8584
12.6307	823.5	31.87793
12.6324	825.194	31.8975
12.6343	833.459	31.917
12.6349	822.13	31.9365
12.6366	823.605	31.9561
12.6382	835.37	31.9756
12.6397	827.022	31.9951
12.642	821.219	32.0146
12.6443	833.146	32.03418
[...]
13.3548	817.18	40.5693
13.3565	825.019	40.5889
13.3589	824.81	40.6084
13.3604	820.873	40.62793
13.3612	822.398	40.6475
13.3622	831.808	40.667
13.3661	819.614	40.6865
13.36564	821.278	40.7061
13.3681	826.891	40.7256
13.3691	825.221	40.7451
13.3706	818.1991	40.7646
13.3727	828.757	40.78418
13.3733	824.536	40.8037
13.3753	818.888	40.8232
13.3764	825.262	40.8428
13.3789	828.612	40.8623
13.3805	816.8222	40.8818
13.3822	824.3562	40.9014
13.384	828.462	40.9209
13.3851	817.449	40.94043
13.3867	819.473	40.96
13.3892	829.521	40.9795
13.3905	820.948	40.999
13.3911	819.304	41.0186
13.3938	829.357	41.0381
13.3956	821.423	41.0576
13.3977	817.75	41.0771
13.3991	830.281	41.09668
13.3992	825.295	41.1162
13.4015	816.667	41.1357
13.4033	829.6358	41.1553
13.4056	825.2832	41.1748
13.4056	817.916	41.1943
13.4084	823.296	41.2139
13.4082	828.763	41.2334
13.4117	819.99	41.25293
13.414	824.496	41.2725
13.4151	825.768	41.292
13.41716	821.027	41.3115
13.4186	819.722	41.3311
13.4194	830.1994	41.3506
13.4222	824.654	41.3701
13.42259	819.1	41.3896
13.4247	824.946	41.40918
13.42614	827.118	41.4287
13.428	818.177	41.4482
13.4291	826.928	41.4678
13.43098	825.601	41.4873
13.4326	818.874	41.5068
13.4343	823.651	41.5264
13.4365	829.341	41.5459
13.4376	817.81	41.56543
13.4391	822.059	41.585
13.4404	830.021	41.6045
13.4437	821.145	41.624
13.4436	818.137	41.6436
13.446	829.509	41.6631
13.4479	822.724	41.6826
13.44915	818.729	41.7021
13.4511	827.025	41.72168
13.45263	821.359	41.7412
13.454	815.57	41.7607
13.45673	827.794	41.7803
13.4573	826.295	41.7998
13.4584	817.143	41.8193
13.461	826.044	41.8389
13.4625	824.798	41.8584
13.4634	818.838	41.87793
13.4659	821.576	41.8975
13.4683	827.594	41.917
13.4687	819.853	41.9365
13.4708	822.394	41.9561
13.4724	826.246	41.9756
13.4735	823.311	41.9951
13.4755	816.205	42.0146
13.4761	828.902	42.03418
13.4785	824.988	42.0537
13.4797	818.133	42.0732
13.4824	822.1781	42.0928
13.4829	828.196	42.1123
13.4842	816.185	42.1318
13.4856	825.011	42.1514
13.489	827.531	42.1709
13.48983	818.987	42.19043
13.4922	819.826	42.21
13.4935	830.515	42.2295
13.4939	818.486	42.249
13.4959	818.4718	42.2686
13.497	829.751	42.2881
13.4998	823.291	42.3076
13.5015	815.5047	42.3271
13.5037	826.103	42.34668
13.50457	825.152	42.3662
13.5064	816.698	42.3857
13.507	826.724	42.4053
13.5088	823.853	42.4248
13.5109	814.254	42.4443
13.5121	824.115	42.4639
13.5162	828.64	42.4834
13.5162	818.257	42.50293
13.51695	821.968	42.5225
13.519	826.15	42.542
13.52129	820.395	42.5615
13.5224	821.161	42.5811
13.5242	828.3548	42.6006
13.5259	819.8689	42.6201
13.5271	819.636	42.6396
13.5285	825.085	42.65918
13.5302	824.039	42.6787
13.53172	815.146	42.6982
13.5347	826.3028	42.7178
13.5361	827.511	42.7373
13.5365	818.22	42.7568
13.5387	821.366	42.7764
13.5411	829.14	42.7959
13.5418	818.779	42.81543
13.5433	821.815	42.835
13.5463	829.851	42.8545
13.5457	820.051	42.874
13.5487	814.828	42.8936
13.5503	831.485	42.9131
13.5515	823.254	42.9326
13.5537	819.197	42.9521
13.5558	828.063	42.97168
13.5569	824.238	42.9912
13.5564	815.1	43.0107
13.5594	828.705	43.0303
13.5619	825.778	43.0498
13.5636	817.867	43.0693
13.5653	824.956	43.0889
13.5661	827.751	43.1084
13.5681	815.601	43.12793
13.5701	822.469	43.1475
13.571	829.8	43.167
13.5729	819.962	43.1865
13.5748	821.637	43.2061
13.576	826.59	43.2256
13.5786	822.061	43.2451
13.5798	818.608	43.2646
13.582	830.561	43.28418
13.582	823.607	43.3037
13.5826	816.01	43.3232
13.5855	823.547	43.3428
13.58733	827.997	43.3623
13.5898	816.688	43.3818
13.5895	826.0271	43.4014
13.5919	826.818	43.4209
13.5937	819.66	43.44043
13.5958	817.488	43.46
13.5977	829.333	43.4795
13.5986	818.619	43.499
13.6018	822.109	43.5186
13.6029	829.589	43.5381
13.6042	822.266	43.5576
13.6054	813.778	43.5771
13.6063	829.883	43.59668
13.6087	824.152	43.6162
13.6109	819.428	43.6357
13.6112	824.633	43.6553
13.6129	825.038	43.6748
13.6156	814.197	43.6943
13.6165	825.524	43.7139
13.61864	827.335	43.7334
13.6189	816.451	43.75293
13.62249	822.0625	43.7725
13.62332	827.343	43.792
13.6251	817.747	43.8115
13.6265	821.397	43.8311
13.6283	829.253	43.8506
13.6296	820.939	43.8701
13.6307	820.361	43.8896
13.632	826.876	43.90918
13.6339	820.14	43.9287
13.636	815.059	43.9482
13.6393	828.253	43.9678
13.63969	827.048	43.9873
13.64	817.9621	44.0068
13.6425	819.939	44.0264
13.6447	829.463	44.0459
13.6456	816.688	44.06543
13.6476	822.432	44.085
13.6496	827.517	44.1045
13.6513	821.592	44.124
13.6517	817.876	44.1436
13.6539	830.687	44.1631
13.6561	820.02	44.1826
13.6571	816.826	44.2021
13.6589	828.436	44.22168
13.661	826.804	44.2412
13.6619	814.675	44.2607
13.664	825.677	44.2803
13.6656	824.958	44.2998
13.6669	819.762	44.3193
13.6686	825.5271	44.3389
13.6698	828.692	44.3584
13.6711	815.489	44.37793
13.6744	823.035	44.3975
13.6756	828.637	44.417
13.67744	820.5199	44.4365
13.6789	819.253	44.4561
13.6799	827.747	44.4756
13.6809	819.932	44.4951
13.6834	818.43	44.5146
13.685	830.257	44.53418
13.687	823.398	44.5537
13.6884	818.1792	44.5732
13.6906	824.919	44.5928
13.6914	825.03	44.6123
13.6937	816.721	44.6318
13.69506	824.016	44.6514
13.6962	828.8562	44.6709
13.69786	819.771	44.69043
13.7002	818.4234	44.71
13.7015	829.01	44.7295
13.7028	820.115	44.749
13.7046	822.028	44.7686
13.7054	828.842	44.7881
13.7079	821.7334	44.8076
13.7103	815.6759	44.8271
13.7111	829.171	44.84668
13.7128	823.637	44.8662
13.7153	817.9184	44.8857
13.7163	824.3186	44.9053
13.7179	828.416	44.9248
13.71929	815.023	44.9443
13.7211	824.791	44.9639
13.72257	827.3244	44.9834
13.7253	818.878	45.00293
13.7257	822.369	45.0225
13.7268	829.36	45.042
13.72953	815.877	45.0615
13.7309	820.666	45.0811
13.7318	827.71	45.1006
13.7335	822.864	45.1201
13.7355	818.346	45.1396
13.737	826.009	45.15918
13.7387	820.128	45.1787
13.7409	818.397	45.1982
13.7413	825.073	45.2178
13.74299	825.573	45.2373
13.74592	816.799	45.2568
13.7477	821.159	45.2764
13.749	825.818	45.2959
13.7506	819.3822	45.31543
13.7522	820.828	45.335
13.7529	827.164	45.3545
13.755	820.586	45.374
13.7568	816.423	45.3936
13.7585	824.888	45.4131
13.76	820.262	45.4326
13.7613	819.783	45.4521
13.763	828.493	45.47168
13.7645	824.86	45.4912
13.7679	812.889	45.5107
13.7671	824.948	45.5303
13.7707	824.33	45.5498
13.77016	816.942	45.5693
13.7735	823.803	45.5889
13.7743	828.327	45.6084
13.7758	814.096	45.62793
13.777	823.365	45.6475
13.77907	826.889	45.667
13.78	819.702	45.6865
13.7822	818.473	45.7061
13.7843	828.487	45.7256
13.7864	818.219	45.7451
13.7879	816.786	45.7646
13.7893	824.7771	45.78418
13.7909	824.316	45.8037
13.7916	817.257	45.8232
13.7936	824.913	45.8428
13.7969	823.026	45.8623
13.7968	817.355	45.8818
13.7997	822.089	45.9014
13.7999	828.533	45.9209
13.8016	816.531	45.94043
13.8043	820.165	45.96
13.8051	825.746	45.9795
13.80724	819.305	45.999
13.8091	820.396	46.0186
13.8113	825.089	46.0381
13.8122	820.718	46.0576
13.8142	816.825	46.0771
13.8157	824.813	46.09668
13.8169	822.629	46.1162
13.8182	816.672	46.1357
13.82	825.184	46.1553
13.8223	827.767	46.1748
13.8229	814.257	46.1943
13.8247	822.786	46.2139
13.8268	826.339	46.2334
13.8286	817.995	46.25293
13.82975	820.9881	46.2725
13.8317	828.329	46.292
13.833	815.465	46.3115
13.8351	821.636	46.3311
13.8367	828.213	46.3506
13.8375	821.062	46.3701
13.8393	816.2912	46.3896
13.8412	827.19	46.40918
13.843	821.103	46.4287
13.8443	818.989	46.4482
13.8458	823.622	46.4678
13.8474	825.576	46.4873
13.8501	816.169	46.5068
13.851	823.411	46.5264
13.8525	822.981	46.5459
13.8551	817.565	46.56543
13.8565	818.827	46.585
13.8573	827.995	46.6045
13.859	819.238	46.624
13.8612	815.883	46.6436
13.8623	824.916	46.6631
13.8641	821.276	46.6826
13.8653	817.824	46.7021
13.8681	826.943	46.72168
13.8684	823.566	46.7412
13.8708	813.272	46.7607
13.8719	822.673	46.7803
13.8734	825.227	46.7998
13.8758	817.299	46.8193
13.8766	823.0484	46.8389
13.8796	826.329	46.8584
13.881	814.977	46.87793
13.8806	820.125	46.8975
13.8835	826.968	46.917
13.8855	819.348	46.9365
13.8873	819.179	46.9561
13.8886	828.9657	46.9756
13.8893	815.558	46.9951
13.8925	816.002	47.0146
13.8932	824.342	47.03418
13.8943	824.375	47.0537
13.8968	816.721	47.0732
13.8974	824.1059	47.0928
13.9006	820.529	47.1123
13.901	817.517	47.1318
13.9028	823.182	47.1514
13.9048	826.577	47.1709
13.907	815.447	47.19043
13.9073	821.027	47.21
13.9103	824.761	47.2295
13.91098	820.392	47.249
13.9131	815.712	47.2686
13.9152	827.031	47.2881
13.9174	822.361	47.3076
13.91819	817.975	47.3271
13.9197	822.78	47.34668
13.9195	822.512	47.3662
13.9226	815.273	47.3857
13.9248	825.489	47.4053
13.9256	823.954	47.4248
13.9265	814.965	47.4443
13.9286	819.02	47.4639
13.9309	826.889	47.4834
13.93189	818.6416	47.50293
13.93435	817.405	47.5225
13.9356	826.713	47.542
13.9375	816.657	47.5615
13.9387	818.16	47.5811
13.9401	826.173	47.6006
13.942	818.93	47.6201
13.9438	816.78	47.6396
13.9455	828.48	47.65918
13.9472	819.983	47.6787
13.9483	814.784	47.6982
13.9499	822.835	47.7178
13.9525	824.856	47.7373
13.953	816.32	47.7568
13.95536	824.074	47.7764
13.9576	821.8111	47.7959
13.9595	817.393	47.81543
13.96	819.133	47.835
13.9606	827.779	47.8545
13.9634	816.883	47.874
13.965	819.542	47.8936
13.967	825.565	47.9131
13.9673	821.7583	47.9326
13.9701	817.62	47.9521
13.972	825.746	47.97168
13.9721	824.061	47.9912
13.9747	816.414	48.0107
13.97607	821.87	48.0303
13.9782	824.574	48.0498
13.9793	815.7746	48.0693
13.9802	823.081	48.0889
13.9828	827.727	48.1084
13.98473	815.56	48.12793
13.986	817.645	48.1475
13.9887	828.519	48.167
13.9899	819.338	48.1865
13.9912	818.529	48.2061
13.99358	826.9	48.2256
13.9948	816.462	48.2451
13.9953	817.1709	48.2646
13.9976	825.976	48.28418
13.9991	823.435	48.3037
14.0014	814.347	48.3232
14.0019	824.506	48.3428
14.0047	821.633	48.3623
14.0064	817.2453	48.3818
14.0071	820.683	48.4014
14.0106	826.664	48.4209
14.0107	816.205	48.44043
14.0128	822.231	48.46
14.0133	823.007	48.4795
14.0155	818.001	48.499
14.0171	816.802	48.5186
14.01899	827.106	48.5381
14.0203	820.425	48.5576
14.0223	817.858	48.5771
14.024	822.331	48.59668
14.0258	824.651	48.6162
14.0264	815.65	48.6357
14.0292	823.887	48.6553
14.0299	823.441	48.6748
14.0313	815.814	48.6943
14.0328	820.297	48.7139
14.0344	827.86	48.7334
14.0368	815.755	48.75293
14.0388	819.021	48.7725
14.04	827.078	48.792
14.0415	817.409	48.8115
14.043	815.156	48.8311
14.0457	827.69	48.8506
14.0461	821.28	48.8701
14.049	816.259	48.8896
14.0506	827.0329	48.90918
14.05075	821.097	48.9287
14.0539	813.981	48.9482
14.05417	824.623	48.9678
14.0565	826.505	48.9873
14.05759	814.781	49.0068
14.0597	822.532	49.0264
14.0618	822.591	49.0459
14.063	817.7168	49.06543
14.0636	819.225	49.085
14.0666	826.687	49.1045
14.0675	817.619	49.124
14.0686	820.016	49.1436
14.0719	825.1	49.1631
14.0729	821.394	49.1826
14.0739	814.987	49.2021
14.0761	827.707	49.22168
14.0775	823.994	49.2412
14.0794	818.349	49.2607
14.0801	821.172	49.2803
14.082	824.851	49.2998
14.0848	814.103	49.3193
14.0852	823.29	49.3389
14.0871	825.957	49.3584
14.0887	817.314	49.37793
14.09032	815.941	49.3975
14.0916	830.359	49.417
14.0936	816.943	49.4365
14.0953	817.155	49.4561
14.0967	826.962	49.4756
14.0988	819.008	49.4951
14.1002	813.563	49.5146
14.1012	825.119	49.53418
14.1033	820.374	49.5537
14.1051	814.953	49.5732
14.1067	824.868	49.5928
14.1084	822.809	49.6123
14.10992	811.997	49.6318
14.112	819.7179	49.6514
14.1125	825.3504	49.6709
14.1157	815.023	49.69043
14.1158	819.0719	49.71
14.1167	823.62	49.7295
14.1197	816.25	49.749
14.1213	818.5918	49.7686
14.1217	828.422	49.7881
14.1247	819.619	49.8076
14.1262	816.309	49.8271
14.1272	821.711	49.84668
14.1301	821.77	49.8662
14.1319	811.913	49.8857
14.1336	822.616	49.9053
14.1347	824.677	49.9248
14.1353	816.964	49.9443
14.1373	818.867	49.9639
14.1387	825.867	49.9834
14.1403	814.6366	50.00293
14.1432	819.974	50.0225
14.1435	828.244	50.042
14.14591	816.425	50.0615
14.1489	814.11	50.0811
14.1496	827.579	50.1006
14.1492	818.13	50.1201
14.1526	816.268	50.1396
14.1537	825.83	50.15918
14.1559	821.274	50.1787
14.1573	811.3952	50.1982
14.15876	824.787	50.2178
14.1604	823.891	50.2373
14.1614	812.941	50.2568
14.1637	821.081	50.2764
14.1659	824.469	50.2959
14.1654	813.888	50.31543
14.1688	817.681	50.335
14.17057	826.226	50.3545
14.1727	815.82	50.374
14.1729	816.947	50.3936
14.1752	822.265	50.4131
14.1771	816.968	50.4326
14.1787	813.591	50.4521
14.1796	825.286	50.47168
14.1811	820.6723	50.4912
14.1835	813.928	50.5107
14.1859	818.377	50.5303
14.1869	821.373	50.5498
14.1868	811.471	50.5693
14.1895	821.32	50.5889
14.1917	822.908	50.6084
14.19253	814.595	50.62793
14.1939	814.78	50.6475
14.1958	826.153	50.667
14.1977	815.008	50.6865
14.199	816.426	50.7061
14.2007	825.181	50.7256
14.2016	818.968	50.7451
14.2037	811.021	50.7646
14.2061	823.498	50.78418
14.2072	818.272	50.8037
14.20924	814.054	50.8232
14.2105	822.8584	50.8428
14.2127	824.2486	50.8623
14.215	809.9	50.8818
14.2152	820.26	50.9014
14.2177	823.751	50.9209
14.2187	814.104	50.94043
14.2203	817.197	50.96
14.2226	822.0722	50.9795
14.22363	812.1546	50.999
14.2248	815.885	51.0186
14.2257	822.041	51.0381
14.2289	815.633	51.0576
14.2306	814.102	51.0771
14.2318	820.412	51.09668
14.2347	818.046	51.1162
14.2347	812.044	51.1357
14.2373	822.587	51.1553
14.2383	821.476	51.1748
14.2401	814.658	51.1943
14.2414	818.533	51.2139
14.244	822.99	51.2334
14.2443	813.25	51.25293
14.2465	819.615	51.2725
14.2488	822.601	51.292
14.2496	815.774	51.3115
14.2521	810.252	51.3311
14.2529	825.808	51.3506
14.2546	817.5683	51.3701
14.255	814.648	51.3896
14.2585	823.9801	51.40918
14.2594	820.528	51.4287
14.2613	809.023	51.4482
14.2626	822.393	51.4678
14.2644	819.0498	51.4873
14.2668	812.786	51.5068
14.26741	819.898	51.5264
14.2697	822.176	51.5459
14.2712	808.71	51.56543
14.2719	817.371	51.585
14.2739	824.235	51.6045
14.2768	815.782	51.624
14.2778	815.086	51.6436
14.2787	822.058	51.6631
14.2798	814.058	51.6826
14.2822	814.509	51.7021
14.2851	822.902	51.72168
14.2858	817.912	51.7412
14.2869	813.353	51.7607
14.289	819.251	51.7803
14.2901	819.613	51.7998
14.2937	811.389	51.8193
14.2937	817.568	51.8389
14.295	821.205	51.8584
14.2967	814.31	51.87793
14.299	813.2334	51.8975
14.3	824.186	51.917
14.3023	813.413	51.9365
14.3033	816.134	51.9561
14.3057	823.538	51.9756
14.3072	819.102	51.9951
14.3079	809.4726	52.0146
14.3103	823.232	52.03418
14.3115	819.609	52.0537
14.3138	813.367	52.0732
14.3141	820.496	52.0928
14.3163	822.104	52.1123
14.3177	809.2392	52.1318
14.3196	821.068	52.1514
14.32162	819.989	52.1709
14.324	811.542	52.19043
14.325	817.32	52.21
14.3256	825.682	52.2295
14.3266	810.573	52.249
14.3297	813.841	52.2686
14.332	822.267	52.2881
14.3324	816.422	52.3076
14.3346	811.423	52.3271
14.3363	821.675	52.34668
14.3374	814.148	52.3662
14.3398	811.704	52.3857
14.3411	821.455	52.4053
14.3429	821.0752	52.4248
14.3441	810.518	52.4443
14.3456	818.225	52.4639
14.3478	819.633	52.4834
14.3495	812.449	52.50293
14.3506	814.909	52.5225
14.3524	822.055	52.542
14.3544	815.036	52.5615
14.3552	812.397	52.5811
14.3574	820.906	52.6006
14.3591	814.767	52.6201
14.36016	812.238	52.6396
14.362	821.866	52.65918
14.3633	819.246	52.6787
14.3655	807.434	52.6982
14.3659	820.371	52.7178
14.36864	820.0589	52.7373
14.3711	812.39	52.7568
14.3719	818.29	52.7764
14.373	821.982	52.7959
14.3742	807.801	52.81543
14.3768	816.303	52.835
14.377	822.268	52.8545
14.3797	814.723	52.874
14.3825	813.197	52.8936
14.384	822.665	52.9131
14.3846	812.253	52.9326
14.386	812.2002	52.9521
14.3887	820.385	52.97168
14.3908	817.0199	52.9912
14.3902	811.067	53.0107
14.393	817.9704	53.0303
14.3942	814.536	53.0498
14.3953	810.9292	53.0693
14.398	816.292	53.0889
14.4001	819.452	53.1084
14.402	811.189	53.12793
14.403	811.036	53.1475
14.40436	818.2627	53.167
14.4052	813.217	53.1865
14.40823	812.462	53.2061
14.4096	819.499	53.2256
14.4112	814.699	53.2451
14.4128	808.566	53.2646
14.4149	819.412	53.28418
14.4164	816.977	53.3037
14.4172	810.088	53.3232
14.4197	817.593	53.3428
14.4211	820.073	53.3623
14.42148	807.891	53.3818
14.4234	815.516	53.4014
14.4257	818.527	53.4209
14.42781	811.301	53.44043
14.428	813.97	53.46
14.4298	822.411	53.4795
14.4328	806.774	53.499
14.433	813.001	53.5186
14.4354	819.504	53.5381
14.43844	816.645	53.5576
14.4389	810.252	53.5771
14.4405	820.172	53.59668
14.4426	809.972	53.6162
14.4433	810.851	53.6357
14.4446	815.643	53.6553
14.4478	816.762	53.6748
14.4478	808.154	53.6943
14.4488	817.545	53.7139
14.4521	816.101	53.7334
14.4531	811.227	53.75293
14.4543	812.868	53.7725
14.4563	820.545	53.792
14.45902	810.895	53.8115
14.4597	809.826	53.8311
14.4609	815.986	53.8506
14.4633	813.556	53.8701
14.4652	809.233	53.8896
14.4676	818.79	53.90918
14.4682	815.184	53.9287
14.4701	805.435	53.9482
14.4704	815.037	53.9678
14.4735	818.506	53.9873
14.4745	808.161	54.0068
14.4763	812.987	54.0264
14.47783	819.168	54.0459
14.4805	805.6557	54.06543
14.4808	811.362	54.085
14.4826	819.109	54.1045
14.4846	810.299	54.124
14.4853	810.122	54.1436
14.487	820.156	54.1631
14.4882	808.026	54.1826
14.4901	807.086	54.2021
14.49259	815.673	54.22168
14.49429	814.795	54.2412
14.4957	806.866	54.2607
14.4975	815.305	54.2803
14.4987	811.379	54.2998
14.5006	807.749	54.3193
14.5025	812.404	54.3389
14.5033	817.0401	54.3584
14.5051	805.335	54.37793
14.5069	810.685	54.3975
14.5086	812.803	54.417
14.51	809.753	54.4365
14.5119	806.2	54.4561
14.5137	816.253	54.4756
14.5149	809.938	54.4951
14.5167	804.55	54.5146
14.5181	811.456	54.53418
14.5202	812.7901	54.5537
14.5226	803.074	54.5732
14.524	813.635	54.5928
14.5242	814.032	54.6123
14.5266	801.5744	54.6318
14.5278	807.088	54.6514
14.5307	813.969	54.6709
14.5317	803.125	54.69043
14.5339	804.334	54.71
14.53473	813.828	54.7295
14.5365	800.367	54.749
14.537	802.666	54.7686
14.5405	813.648	54.7881
14.5413	804.34	54.8076
14.5426	798.389	54.8271
14.54467	810.689	54.84668
14.5467	800.765	54.8662
14.5472	794.318	54.8857
14.5588	-147.36	54.9053
14.5559	-50.6544	54.9248
14.5567	-43.6824	54.9443
14.5572	-40.57032	54.9639
14.5567	-43.6973	54.9834
14.5586	-48.964	55.00293
14.5609	-46.8154	55.0225
14.5614	-38.8304	55.042
14.56329	-49.5786	55.0615
14.5656	-49.2198	55.0811
14.5654	-43.9379	55.1006
14.5678	-45.3272	55.1201
14.5692	-52.4417	55.1396
14.5717	-42.8427	55.15918
14.573	-46.0076	55.1787
14.5735	-50.6822	55.1982
14.5759	-44.63	55.2178
14.5774	-40.9944	55.2373
14.5805	-54.2623	55.2568
14.5807	-45.9713	55.2764
14.5823	-38.4747	55.2959
14.5837	-51.7799	55.31543
14.5867	-51.505	55.335
14.5877	-40.3399	55.3545
14.58945	-49.7653	55.374
14.5914	-48.9475	55.3936
14.592	-39.6434	55.4131
14.5946	-49.4977	55.4326
14.595	-53.166	55.4521
14.5967	-41.5005	55.47168
14.5975	-42.9805	55.4912
14.6009	-51.9002	55.5107
14.6025	-42.2095	55.5303
14.6033	-46.3063	55.5498
14.6054	-50.4595	55.5693
14.6069	-46.7657	55.5889
14.6081	-40.9515	55.6084
14.6106	-51.1942	55.62793
14.6105	-45.8719	55.6475
14.6132	-43.6335	55.667
14.6147	-49.1228	55.6865
14.6159	-49.9482	55.7061
14.6185	-40.2351	55.7256
14.6206	-45.883	55.7451
14.6207	-50.333	55.7646
14.6228	-45.8626	55.78418
14.6241	-45.3016	55.8037
14.6254	-53.8336	55.8232
14.6286	-41.1426	55.8428
14.6287	-42.3634	55.8623
14.631	-53.05526	55.8818
14.6323	-47.9738	55.9014
14.6352	-39.4529	55.9209
14.6354	-49.8028	55.94043
14.6373	-47.7544	55.96
14.6391	-40.3735	55.9795
14.6411	-49.031	55.999
14.6427	-51.1449	56.0186
14.6438	-41.3735	56.0381
14.6451	-47.8384	56.0576
14.6474	-52.2962	56.0771
14.6494	-39.2356	56.09668
14.6502	-45.3573	56.1162
14.6524	-54.4231	56.1357
14.6544	-42.81974	56.1553
14.6554	-42.1164	56.1748
14.6564	-52.5373	56.1943
14.6587	-43.52129	56.2139
14.66	-44.4059	56.2334
14.6617	-51.8552	56.25293
14.66325	-48.8637	56.2725
14.6649	-39.6668	56.292
14.6658	-50.4945	56.3115
14.6692	-49.1139	56.3311
14.671	-43.6733	56.3506
14.67043	-46.3914	56.3701
14.6728	-52.52285	56.3896
14.6739	-41.1816	56.40918
14.677	-44.9438	56.4287
14.6782	-49.7059	56.4482
14.6794	-45.9946	56.4678
14.6813	-42.4206	56.4873
14.683	-52.8725	56.5068
14.6842	-44.4085	56.5264
14.6871	-40.58744	56.5459
14.6881	-51.3946	56.56543
14.6902	-51.7932	56.585
14.692	-37.6961	56.6045
14.6922	-50.1781	56.624
14.696	-49.0625	56.6436
14.6962	-40.5966	56.6631
14.6972	-48.1505	56.6826
14.6989	-52.4436	56.7021
14.7013	-40.1113	56.72168
14.7029	-44.6694	56.7412
14.7037	-53.6991	56.7607