File: data/processed_data_files/tensile/0.254_hd_dimension_typeiv_090_r(10).dat
MTS793|BTW|ENU|1|2|.|/|:|1|0|0|A

Data Header:			0.254_hd_dimension_typeiv_090_r0			Time:	20.0188	s	4/14/2019 12:42:45 AM
Data Acquisition:	Timed
Station Name:	ft40.cfg
Test File Name:	monotonic_0.2540_typeiv_hd_090_dimension.tst
Displacement	Force	Running Time
mm	N	s
-40.0415	-241.972	0.0227051
-40.0417	-241.0836	0.0422363
-40.0413	-242.544	0.0617676
-40.0404	-243.335	0.0812988
-40.04	-240.667	0.10083
-40.0387	-241.937	0.120361
-40.0371	-242.865	0.139893
-40.0351	-240.2119	0.159424
-40.0357	-236.255	0.178955
-40.03186	-240.823	0.198486
-40.0307	-236.918	0.218018
-40.0297	-234.186	0.237549
-40.0281	-236.892	0.25708
-40.0277	-239.119	0.276611
-40.02401	-230.976	0.296143
-40.022	-230.493	0.315674
-40.0214	-234.845	0.335205
-40.0191	-229.289	0.354736
-40.0181	-228.595	0.374268
-40.0164	-230.673	0.393799
-40.014	-226.21	0.41333
-40.0134	-221.958	0.432861
-40.0113	-231.24	0.452393
-40.00935	-223.4501	0.471924
-40.0093	-220.854	0.491455
-40.0058	-224.551	0.510986
-40.00404	-223.6	0.530518
-40.0041	-217.972	0.550049
-40.0013	-223.51	0.56958
-39.99947	-220.218	0.589111
-39.9991	-216.743	0.608643
-39.997	-218.223	0.628174
-39.9947	-220.664	0.647705
-39.9928	-210.904	0.667236
-39.9913	-218.083	0.686768
-39.99	-217.69	0.706299
-39.9882	-212.232	0.72583
-39.9863	-208.533	0.745361
-39.98608	-212.958	0.764893
-39.9834	-206.924	0.784424
-39.9827	-209.69	0.803955
-39.9807	-208.026	0.823486
-39.97887	-208.088	0.843018
-39.9765	-201.977	0.862549
-39.9746	-205.815	0.88208
-39.9743	-206.7254	0.901611
-39.9716	-201.885	0.921143
-39.9706	-201.781	0.940674
-39.9687	-204.004	0.960205
-39.9675	-199.054	0.979736
-39.9664	-198.242	0.999268
-39.9645	-200.767	1.0188
-39.96254	-197.061	1.03833
-39.9606	-194.069	1.05786
-39.9593	-198.987	1.07739
-39.9578	-195.3119	1.09692
-39.95602	-190.922	1.11646
-39.953	-197.634	1.13599
-39.9527	-195.975	1.15552
-39.9517	-188.734	1.17505
-39.9493	-191.445	1.19458
-39.9483	-191.41	1.21411
-39.9462	-184.647	1.23364
-39.9447	-191.272	1.25317
-39.944	-188.217	1.27271
-39.9418	-183.948	1.29224
-39.9398	-184.304	1.31177
-39.939	-189.569	1.3313
-39.9364	-178.737	1.35083
-39.9342	-181.943	1.37036
-39.93343	-183.452	1.38989
-39.9311	-181.933	1.40942
-39.9295	-176.153	1.42896
-39.9286	-180.464	1.44849
-39.9265	-176.918	1.46802
-39.925	-177.124	1.48755
-39.9239	-175.465	1.50708
-39.9215	-177.293	1.52661
-39.9206	-171.055	1.54614
-39.919	-174.6727	1.56567
-39.9172	-174.053	1.58521
-39.9153	-170.048	1.60474
-39.9136	-167.967	1.62427
-39.9116	-172.751	1.6438
-39.90892	-168.815	1.66333
-39.9092	-165.788	1.68286
-39.9076	-169.498	1.70239
-39.9049	-166.677	1.72192
-39.9037	-160.333	1.74146
-39.9024	-166.816	1.76099
-39.901	-164.991	1.78052
-39.8986	-156.774	1.80005
-39.8974	-162.12	1.81958
-39.8957	-160.995	1.83911
-39.8941	-156.951	1.85864
-39.8927	-157.485	1.87817
-39.8905	-159.431	1.89771
-39.8894	-151.809	1.91724
-39.88773	-156.746	1.93677
-39.8864	-158.1407	1.9563
-39.8856	-150.797	1.97583
-39.8819	-149.537	1.99536
-39.881	-154.266	2.01489
-39.8796	-148.997	2.03442
-39.8777	-149.052	2.05396
-39.8759	-148.742	2.07349
-39.8747	-150.035	2.09302
-39.8722	-143.982	2.11255
-39.871	-145.988	2.13208
-39.87075	-144.711	2.15161
-39.86747	-142.837	2.17114
-39.8675	-139.989	2.19067
-39.86525	-145.33	2.21021
-39.8625	-137.462	2.22974
-39.8617	-137.989	2.24927
-39.8602	-142.032	2.2688
-39.8575	-139.759	2.28833
-39.8572	-134.3743	2.30786
-39.8559	-138.642	2.32739
-39.8536	-134.593	2.34692
-39.852	-131.839	2.36646
-39.85043	-136.714	2.38599
-39.8483	-134.224	2.40552
-39.8469	-126.119	2.42505
-39.8455	-132.42	2.44458
-39.8444	-132.669	2.46411
-39.8419	-124.166	2.48364
-39.8408	-128.36	2.50317
-39.8395	-129.737	2.52271
-39.8372	-122.122	2.54224
-39.8356	-124.419	2.56177
-39.8341	-126.84	2.5813
-39.8329	-119.379	2.60083
-39.831	-121.182	2.62036
-39.8285	-124.903	2.63989
-39.8282	-119.739	2.65942
-39.8255	-114.197	2.67896
-39.82399	-120.737	2.69849
-39.8224	-118.005	2.71802
-39.8207	-116.43	2.73755
-39.8192	-114.026	2.75708
-39.8169	-115.302	2.77661
-39.8154	-109.434	2.79614
-39.8148	-114.831	2.81567
-39.813	-113.079	2.83521
-39.8116	-109.24	2.85474
-39.8102	-107.422	2.87427
-39.8083	-114.078	2.8938
-39.8066	-105.549	2.91333
-39.8044	-102.147	2.93286
-39.8023	-108.381	2.95239
-39.8019	-108.522	2.97192
-39.7991	-100.282	2.99146
-39.7987	-106.669	3.01099
-39.79623	-101.832	3.03052
-39.795	-97.2651	3.05005
-39.7939	-102.006	3.06958
-39.7916	-104.052	3.08911
-39.791	-95.3088	3.10864
-39.7869	-97.3469	3.12817
-39.787	-99.916	3.14771
-39.78466	-92.3069	3.16724
-39.784	-96.2357	3.18677
-39.7817	-98.5544	3.2063
-39.7811	-91.35218	3.22583
-39.7778	-90.8226	3.24536
-39.7778	-95.6199	3.26489
-39.7768	-88.15	3.28442
-39.77351	-87.8749	3.30396
-39.7721	-91.9629	3.32349
-39.7701	-88.5224	3.34302
-39.7686	-82.4922	3.36255
-39.7674	-86.8567	3.38208
-39.7658	-84.2769	3.40161
-39.7646	-84.2611	3.42114
-39.7617	-81.2771	3.44067
-39.761	-83.6267	3.46021
-39.759	-76.70919	3.47974
-39.7581	-78.7813	3.49927
-39.756	-81.5061	3.5188
-39.75386	-77.95134	3.53833
-39.752	-73.0627	3.55786
-39.7501	-80.6185	3.57739
-39.7495	-76.4	3.59692
-39.7475	-71.3896	3.61646
-39.7469	-72.8654	3.63599
-39.7436	-75.9094	3.65552
-39.7427	-67.2422	3.67505
-39.7413	-73.8487	3.69458
-39.7396	-70.34478	3.71411
-39.7382	-63.0153	3.73364
-39.7362	-67.6534	3.75317
-39.7352	-72.1903	3.77271
-39.73328	-61.1864	3.79224
-39.7311	-63.9784	3.81177
-39.7295	-67.2499	3.8313
-39.7285	-61.1177	3.85083
-39.726	-60.5852	3.87036
-39.7247	-65.0568	3.88989
-39.7238	-60.8081	3.90942
-39.7212	-58.6686	3.92896
-39.7192	-62.2524	3.94849
-39.7181	-57.93811	3.96802
-39.7164	-54.6252	3.98755
-39.7154	-56.0808	4.00708
-39.7142	-57.1521	4.02661
-39.71175	-48.809	4.04614
-39.71048	-52.9749	4.06567
-39.709	-52.6445	4.08521
-39.7061	-50.0959	4.10474
-39.7058	-48.9283	4.12427
-39.7039	-53.1326	4.1438
-39.7029	-44.5419	4.16333
-39.7	-45.83836	4.18286
-39.6997	-48.2662	4.20239
-39.6984	-46.3622	4.22192
-39.6956	-39.36554	4.24146
-39.6953	-46.1488	4.26099
-39.6922	-43.7545	4.28052
-39.6911	-39.2719	4.30005
-39.689	-42.43866	4.31958
-39.68795	-44.2677	4.33911
-39.68544	-34.3764	4.35864
-39.68354	-39.2423	4.37817
-39.6842	-40.5131	4.39771
-39.6818	-32.365	4.41724
-39.6797	-33.9706	4.43677
-39.6775	-40.7243	4.4563
-39.6768	-31.7675	4.47583
-39.67466	-30.9488	4.49536
-39.6725	-34.9821	4.51489
-39.6711	-28.8522	4.53442
-39.6698	-28.5603	4.55396
-39.6686	-33.1863	4.57349
-39.6671	-27.5622	4.59302
-39.6646	-23.7688	4.61255
-39.663	-29.2369	4.63208
-39.6624	-27.0971	4.65161
-39.6601	-22.8322	4.67114
-39.658	-24.7541	4.69067
-39.656	-26.6904	4.71021
-39.65506	-19.2595	4.72974
-39.6535	-20.6735	4.74927
-39.6532	-21.79777	4.7688
-39.6499	-19.521	4.78833
-39.6488	-16.1537	4.80786
-39.6471	-21.5392	4.82739
-39.6451	-15.3463	4.84692
-39.6442	-12.1116	4.86646
-39.6412	-15.3596	4.88599
-39.6405	-17.5894	4.90552
-39.6388	-8.44811	4.92505
-39.638	-13.1897	4.94458
-39.6368	-12.5816	4.96411
-39.6344	-8.54929	4.98364
-39.6329	-10.2623	5.00317
-39.6308	-14.4696	5.02271
-39.6295	-3.11241	5.04224
-39.6262	-7.28997	5.06177
-39.6257	-9.24559	5.0813
-39.6245	-3.311213	5.10083
-39.6226	-0.8556	5.12036
-39.6208	-8.27539	5.13989
-39.6199	-0.154536	5.15942
-39.6172	0.808628	5.17896
-39.6158	-2.69955	5.19849
-39.6151	0.629454	5.21802
-39.6127	5.39746	5.23755
-39.61113	-1.33075	5.25708
-39.60907	3.26844	5.27661
-39.6082	7.02802	5.29614
-39.6053	2.69763	5.31567
-39.6058	4.02274	5.33521
-39.6035	8.54035	5.35474
-39.6015	7.638155	5.37427
-39.5994	5.5805	5.3938
-39.5985	10.8411	5.41333
-39.5962	10.0179	5.43286
-39.5955	9.00238	5.45239
-39.5927	12.3364	5.47192
-39.592	17.4017	5.49146
-39.5908	10.0923	5.51099
-39.5887	14.6565	5.53052
-39.587	19.1153	5.55005
-39.5847	17.8991	5.56958
-39.5836	12.9646	5.58911
-39.5828	20.2713	5.60864
-39.5797	15.6324	5.62817
-39.5791	18.0115	5.64771
-39.5766	23.8138	5.66724
-39.5762	25.4616	5.68677
-39.5745	15.6196	5.7063
-39.57122	28.243	5.72583
-39.5704	26.1249	5.74536
-39.5688	22.8014	5.76489
-39.5672	25.71208	5.78442
-39.5658	30.4318	5.80396
-39.5641	23.4121	5.82349
-39.5615	29.3969	5.84302
-39.5612	32.6247	5.86255
-39.5581	28.3193	5.88208
-39.5574	31.1391	5.90161
-39.5547	36.16539	5.92114
-39.5543	31.734	5.94067
-39.55349	33.5267	5.96021
-39.5516	36.6457	5.97974
-39.5505	36.9347	5.99927
-39.5472	35.52721	6.0188
-39.5464	41.0052	6.03833
-39.5443	40.0156	6.05786
-39.5424	36.7861	6.07739
-39.54047	41.7227	6.09692
-39.5388	44.2861	6.11646
-39.5386	41.6296	6.13599
-39.5366	40.5967	6.15552
-39.5352	48.9026	6.17505
-39.5336	44.2645	6.19458
-39.5326	43.78397	6.21411
-39.52924	49.3909	6.23364
-39.5284	51.765	6.25317
-39.5276	43.1472	6.27271
-39.5251	54.6835	6.29224
-39.5231	49.9725	6.31177
-39.5223	50.3086	6.3313
-39.5207	55.094	6.35083
-39.5197	57.9279	6.37036
-39.5168	48.1968	6.38989
-39.5147	57.4462	6.40942
-39.51284	56.938	6.42896
-39.5123	53.7883	6.44849
-39.5093	57.5132	6.46802
-39.5089	63.1882	6.48755
-39.5078	55.4457	6.50708
-39.5055	60.9954	6.52661
-39.5049	64.7764	6.54614
-39.5021	61.6412	6.56567
-39.4994	61.0788	6.58521
-39.4995	68.6479	6.60474
-39.4977	63.9054	6.62427
-39.4952	64.1642	6.6438
-39.49345	66.2735	6.66333
-39.4932	69.5786	6.68286
-39.4909	67.2335	6.70239
-39.4902	70.5609	6.72192
-39.4884	71.4386	6.74146
-39.4868	68.0213	6.76099
-39.4834	71.0224	6.78052
-39.4833	76.7943	6.80005
-39.4805	74.4118	6.81958
-39.4801	71.3078	6.83911
-39.47715	78.54969	6.85864
-39.4757	77.1577	6.87817
-39.4737	74.6203	6.89771
-39.4728	80.8273	6.91724
-39.4707	80.3336	6.93677
-39.4705	74.8713	6.9563
-39.4687	84.97226	6.97583
-39.4666	83.4157	6.99536
-39.4645	79.7908	7.01489
-39.4634	82.7748	7.03442
-39.4619	89.2123	7.05396
-39.4597	80.1274	7.07349
-39.4584	86.6215	7.09302
-39.4567	89.11338	7.11255
-39.4548	87.73867	7.13208
-39.4536	87.2315	7.15161
-39.4513	94.81176	7.17114
-39.45018	86.8315	7.19067
-39.4484	90.4078	7.21021
-39.4472	94.65	7.22974
-39.4445	95.0565	7.24927
-39.4443	92.4648	7.2688
-39.44186	95.9297	7.28833
-39.4415	95.2795	7.30786
-39.4389	95.5906	7.32739
-39.4373	97.3037	7.34692
-39.4359	99.37	7.36646
-39.434	97.7569	7.38599
-39.4325	99.1408	7.40552
-39.431	102.926	7.42505
-39.4284	99.33622	7.44458
-39.4281	99.9324	7.46411
-39.42543	104.7102	7.48364
-39.4239	105.679	7.50317
-39.4219	102.978	7.52271
-39.42141	107.238	7.54224
-39.4188	106.9408	7.56177
-39.41782	105.332	7.5813
-39.4165	109.695	7.60083
-39.4145	112.116	7.62036
-39.4118	104.911	7.63989
-39.412	113.637	7.65942
-39.4109	113.586	7.67896
-39.4085	110.6227	7.69849
-39.4055	112.57	7.71802
-39.40596	118.524	7.73755
-39.403	110.34	7.75708
-39.4002	116.14	7.77661
-39.4	120.507	7.79614
-39.3983	118.455	7.81567
-39.3953	116.376	7.83521
-39.3946	123.202	7.85474
-39.3944	117.669	7.87427
-39.39164	119.406	7.8938
-39.3904	122.147	7.91333
-39.3878	125.7076	7.93286
-39.387	122.191	7.95239
-39.3851	126.538	7.97192
-39.3848	125.907	7.99146
-39.3821	125.958	8.01099
-39.3808	125.711	8.03052
-39.3782	130.957	8.05005
-39.3778	128.489	8.06958
-39.3752	129.1	8.08911
-39.3746	131.621	8.10864
-39.3725	131.607	8.12817
-39.37072	128.275	8.14771
-39.3692	134.895	8.16724
-39.3671	136.126	8.18677
-39.3663	130.587	8.2063
-39.3651	134.805	8.22583
-39.3619	137.894	8.24536
-39.361	134.557	8.26489
-39.3597	138.3208	8.28442
-39.3587	142.378	8.30396
-39.3574	134.484	8.32349
-39.3534	140.035	8.34302
-39.3534	143.575	8.36255
-39.3522	140.379	8.38208
-39.3494	140.301	8.40161
-39.3477	148.673	8.42114
-39.3461	141.944	8.44067
-39.3454	144.379	8.46021
-39.3436	147.457	8.47974
-39.3417	147.695	8.49927
-39.3399	146.027	8.5188
-39.3388	151.602	8.53833
-39.3366	148.5305	8.55786
-39.3343	147.72	8.57739
-39.3326	148.498	8.59692
-39.3303	154.347	8.61646
-39.3291	151.949	8.63599
-39.3288	153.699	8.65552
-39.3277	154.685	8.67505
-39.3251	153.403	8.69458
-39.3238	153.809	8.71411
-39.3226	159.316	8.73364
-39.3197	156.604	8.75317
-39.3184	154.717	8.77271
-39.3167	159.646	8.79224
-39.31459	162.455	8.81177
-39.3134	155.884	8.8313
-39.3117	162.1709	8.85083
-39.3108	163.923	8.87036
-39.3088	159.5791	8.88989
-39.3073	162.996	8.90942
-39.306	167.76	8.92896
-39.3039	161.097	8.94849
-39.3026	164.71	8.96802
-39.2995	173.164	8.98755
-39.299	164.343	9.00708
-39.2981	165.375	9.02661
-39.2954	171.235	9.04614
-39.2938	168.7894	9.06567
-39.293	168.62	9.08521
-39.291	176.163	9.10474
-39.2893	170.539	9.12427
-39.28706	171.9303	9.1438
-39.2853	174.244	9.16333
-39.2844	176.835	9.18286
-39.28339	170.707	9.20239
-39.2813	178.556	9.22192
-39.2805	175.729	9.24146
-39.27887	177.547	9.26099
-39.2759	175.807	9.28052
-39.2731	184.222	9.30005
-39.2729	179.623	9.31958
-39.2717	179.537	9.33911
-39.2687	181.889	9.35864
-39.2673	182.303	9.37817
-39.2672	178.985	9.39771
-39.2649	187.713	9.41724
-39.2635	186.5029	9.43677
-39.2618	181.772	9.4563
-39.2597	187.043	9.47583
-39.2584	191.305	9.49536
-39.25565	183.616	9.51489
-39.2546	185.935	9.53442
-39.2531	191.258	9.55396
-39.252	187.163	9.57349
-39.2513	189.557	9.59302
-39.2487	195.158	9.61255
-39.247	189.7126	9.63208
-39.2448	189.344	9.65161
-39.2439	197.734	9.67114
-39.2425	192.075	9.69067
-39.2409	191.269	9.71021
-39.2388	197.971	9.72974
-39.2365	197.989	9.74927
-39.2356	194.078	9.7688
-39.23394	201.488	9.78833
-39.2316	197.786	9.80786
-39.2316	195.815	9.82739
-39.2291	200.654	9.84692
-39.2272	204.336	9.86646
-39.2264	199.022	9.88599
-39.2248	201.462	9.90552
-39.2211	203.632	9.92505
-39.2203	204.307	9.94458
-39.2196	200.987	9.96411
-39.2172	208.289	9.98364
-39.21664	205.311	10.0032
-39.213	205.093	10.0227
-39.2126	207.447	10.0422
-39.2099	209.75	10.0618
-39.2101	203.648	10.0813
-39.2084	210.546	10.10083
-39.2061	213.724	10.1204
-39.2053	207.546	10.1399
-39.2026	207.04	10.1594
-39.2012	214.891	10.179
-39.201	209.5687	10.1985
-39.1973	211.5882	10.218
-39.19659	218.0728	10.2375
-39.1947	213.316	10.25708
-39.1929	211.579	10.2766
-39.1917	221.877	10.2961
-39.1903	215.2744	10.3157
-39.19	213.531	10.3352
-39.1865	224.383	10.3547
-39.185	220.185	10.3743
-39.18314	216.891	10.3938
-39.1819	220.797	10.41333
-39.1798	224.5602	10.4329
-39.178	217.487	10.4524
-39.1766	223.771	10.4719
-39.1746	223.137	10.4915
-39.1735	222.438	10.511
-39.173	222.233	10.5305
-39.1707	230.216	10.55
-39.1683	226.7719	10.56958
-39.1671	226.472	10.5891
-39.1654	228.287	10.6086
-39.1643	228.922	10.6282
-39.162	225.914	10.6477
-39.1607	232.292	10.6672
-39.1589	229.8855	10.6868
-39.1574	228.575	10.7063
-39.156	230.522	10.72583
-39.1544	235.195	10.7454
-39.153	227.928	10.7649
-39.151	235.319	10.7844
-39.1487	237.937	10.804
-39.1478	232.604	10.8235
-39.1462	230.487	10.843
-39.1429	239.648	10.8625
-39.1425	233.9352	10.88208
-39.1404	236.258	10.9016
-39.1393	242.395	10.9211
-39.1382	237.81	10.9407
-39.1372	235.1781	10.9602
-39.1342	244.228	10.9797
-39.1327	242.676	10.9993
-39.1303	236.34	11.0188
-39.1295	244.765	11.03833
-39.1281	242.624	11.0579
-39.1257	240.01	11.0774
-39.125	244.615	11.0969
-39.1231	248.193	11.1165
-39.1215	241.514	11.136
-39.1195	247.207	11.1555
-39.1183	248.85	11.175
-39.1174	245.5	11.19458
-39.1141	244.973	11.2141
-39.1126	252.203	11.2336
-39.1111	249.826	11.2532
-39.1094	248.946	11.2727
-39.1096	249.123	11.2922
-39.1074	252.147	11.3118
-39.10474	246.4146	11.3313
-39.1041	256.571	11.35083
-39.1019	256.628	11.3704
-39.1002	251.935	11.3899
-39.0989	252.821	11.4094
-39.0964	261.219	11.429
-39.0958	252.7549	11.4485
-39.0947	255.096	11.468
-39.0923	260.964	11.4875
-39.0906	257.529	11.50708
-39.0883	253.895	11.5266
-39.0875	262.06	11.5461
-39.085	257.891	11.5657
-39.0846	257.789	11.5852
-39.0823	266.976	11.6047
-39.0808	263.966	11.6243
-39.0788	257.027	11.6438
-39.0763	264.989	11.66333
-39.07531	265.24	11.6829
-39.0744	261.951	11.7024
-39.0733	266.8558	11.7219
-39.0706	267.914	11.7415
-39.06992	262.94	11.761
-39.0676	268.03	11.7805
-39.0674	271.123	11.8
-39.0638	264.624	11.81958
-39.0642	267.89	11.8391
-39.0606	271.446	11.8586
-39.05925	270.569	11.8782
-39.0578	267.0575	11.8977
-39.05698	274.108	11.9172
-39.0545	274.136	11.9368
-39.054	271.934	11.9563
-39.051	273.382	11.97583
-39.0495	275.3902	11.9954
-39.0481	271.124	12.0149
-39.0465	276.168	12.0344
-39.0445	280.606	12.054
-39.04385	276.038	12.0735
-39.0422	274.452	12.093
-39.0394	283.639	12.1125
-39.0383	276.985	12.13208
-39.0384	277.704	12.1516
-39.0355	283.078	12.1711
-39.0329	280.423	12.1907
-39.0319	275.007	12.2102
-39.03046	286.667	12.2297
-39.0287	282.344	12.2493
-39.0265	279.015	12.2688
-39.0253	284.887	12.28833
-39.023	287.492	12.3079
-39.0228	278.433	12.3274
-39.0203	287.1936	12.3469
-39.0189	288.974	12.3665
-39.017	283.663	12.386
-39.0154	288.444	12.4055
-39.0142	289.925	12.425
-39.013	284.289	12.44458
-39.0106	288.329	12.4641
-39.0091	294.677	12.4836
-39.0071	289.482	12.5032
-39.0056	289.147	12.5227
-39.0025	291.735	12.5422
-39.0034	295.772	12.5618
-39.0008	290.007	12.5813
-38.9989	294.921	12.60083
-38.9972	296.759	12.6204
-38.9963	294.189	12.6399
-38.9949	294.244	12.6594
-38.99305	300.706	12.679
-38.99147	292.72	12.6985
-38.9893	296.084	12.718
-38.9875	303.245	12.7375
-38.9858	298.9295	12.75708
-38.983	292.599	12.7766
-38.9836	304.281	12.7961
-38.9806	299.485	12.8157
-38.9815	299.164	12.8352
-38.9786	305.226	12.8547
-38.9769	303.142	12.8743
-38.9758	299.12	12.8938
-38.9731	308.327	12.91333
-38.9715	306.8667	12.9329
-38.97	299.276	12.9524
-38.9684	307.423	12.9719
-38.9673	309.943	12.9915
-38.9657	303.407	13.011
-38.9636	307.809	13.0305
-38.961	311.86	13.05
-38.9598	307.423	13.06958
-38.9585	308.8042	13.0891
-38.9573	311.946	13.1086
-38.955	308.08	13.1282
-38.9532	307.675	13.1477
-38.9525	313.953	13.1672
-38.9512	311.879	13.1868
-38.9481	309.266	13.2063
-38.949	312.907	13.22583
-38.9449	315.707	13.2454
-38.9446	310.384	13.2649
-38.9428	315.407	13.2844
-38.9414	315.699	13.304
-38.94	314.349	13.3235
-38.9371	312.623	13.343
-38.935	321.765	13.3625
-38.9339	313.843	13.38208
-38.933	316.489	13.4016
-38.93087	322.312	13.4211
-38.9285	321.368	13.4407
-38.9269	315.021	13.4602
-38.9261	325.3959	13.4797
-38.92527	321.468	13.4993
-38.9237	319.46	13.5188
-38.9212	325.2319	13.53833
-38.9191	326.109	13.5579
-38.918	316.914	13.5774
-38.9169	325.444	13.5969
-38.9142	328.602	13.6165
-38.9122	322.571	13.636
-38.9112	325.337	13.6555
-38.9099	330.541	13.675
-38.9088	324.394	13.69458
-38.9065	326.47	13.7141
-38.90451	329.671	13.7336
-38.9032	326.6506	13.7532
-38.902	326.7388	13.7727
-38.8995	331.835	13.7922
-38.899	329.964	13.8118
-38.8949	326.972	13.8313
-38.8948	332.988	13.85083
-38.8936	334.573	13.8704
-38.8923	331.27	13.8899
-38.8912	330.5639	13.9094
-38.88916	336.0434	13.929
-38.88723	331.588	13.9485
-38.886	334.138	13.968
-38.8836	336.6441	13.9875
-38.8831	334.372	14.00708
-38.8803	332.106	14.0266
-38.8779	340.192	14.0461
-38.8773	337.422	14.0657
-38.8766	334.777	14.0852
-38.875	341.78	14.1047
-38.8719	342.284	14.1243
-38.8712	333.266	14.1438
-38.8681	342.208	14.16333
-38.86655	342.33	14.1829
-38.8651	339.1351	14.2024
-38.8644	343.836	14.2219
-38.8624	346.523	14.2415
-38.8609	337.276	14.261
-38.8589	343.047	14.2805
-38.8579	347.187	14.3
-38.855	344.205	14.31958
-38.8542	341.673	14.3391
-38.8531	347.526	14.3586
-38.852	342.484	14.3782
-38.8511	344.043	14.3977
-38.8486	348.376	14.4172
-38.8456	346.077	14.4368
-38.8446	344.336	14.4563
-38.8427	349.792	14.47583
-38.841	349.041	14.4954
-38.83942	346.608	14.5149
-38.83979	350.694	14.5344
-38.8366	353.224	14.554
-38.8349	349.581	14.5735
-38.8336	349.158	14.593
-38.8313	354.167	14.6125
-38.8302	350.069	14.63208
-38.82885	352.723	14.6516
-38.8269	355.008	14.6711
-38.8259	355.2962	14.6907
-38.8245	348.487	14.7102
-38.8219	357.456	14.7297
-38.8194	354.354	14.7493
-38.819	352.718	14.7688
-38.8189	357.233	14.78833
-38.8156	360.773	14.8079
-38.8142	351.135	14.8274
-38.8124	358.883	14.8469
-38.81073	358.749	14.8665
-38.8098	356.639	14.886
-38.80735	358.938	14.9055
-38.8064	363.952	14.925
-38.8039	354.905	14.94458
-38.8023	360.127	14.9641
-38.8007	362.002	14.9836
-38.7979	359.923	15.0032
-38.797	358.78	15.0227
-38.7953	365.069	15.0422
-38.7945	359.292	15.0618
-38.7934	361.635	15.0813
-38.7905	365.777	15.10083
-38.7888	366.693	15.1204
-38.7881	361.488	15.1399
-38.785	365.6351	15.1594
-38.78513	367.283	15.179
-38.7829	363.688	15.1985
-38.7812	365.464	15.218
-38.7794	368.2	15.2375
-38.778	365.832	15.25708
-38.7769	364.311	15.2766
-38.7744	371.17	15.2961
-38.7725	366.399	15.3157
-38.7716	365.766	15.3352
-38.7698	371.29	15.3547
-38.7686	371.7178	15.3743
-38.7661	362.197	15.3938
-38.7652	371.745	15.41333
-38.7631	370.706	15.4329
-38.7618	369.426	15.4524
-38.75975	370.93	15.4719
-38.7584	375.991	15.4915
-38.7582	367.42	15.511
-38.7544	373.289	15.5305
-38.7546	374.758	15.55
-38.7523	370.112	15.56958
-38.7506	372.313	15.5891
-38.7494	378.953	15.6086
-38.7474	370.785	15.6282
-38.7451	371.655	15.6477
-38.744	377.382	15.6672
-38.743	376.54	15.6868
-38.7402	374.779	15.7063
-38.7391	378.059	15.72583
-38.7375	375.911	15.7454
-38.7345	374.8046	15.7649
-38.7344	378.477	15.7844
-38.7326	381.529	15.804
-38.7307	375.319	15.8235
-38.729	376.939	15.843
-38.7275	379.861	15.8625
-38.7262	379.4852	15.88208
-38.72414	377.0022	15.9016
-38.7228	383.707	15.9211
-38.7212	379.224	15.9407
-38.7193	376.337	15.9602
-38.7186	384.2468	15.9797
-38.7165	382.556	15.9993
-38.7146	378.195	16.0188
-38.7124	383.49	16.03833
-38.7121	385.705	16.0579
-38.7091	377.694	16.0774
-38.7087	384.777	16.0969
-38.7055	387.007	16.1165
-38.70499	381.2702	16.136
-38.7031	384.642	16.1555
-38.7018	389.823	16.175
-38.699	379.7569	16.19458
-38.6989	384.653	16.2141
-38.696	388.8804	16.2336
-38.6942	386.373	16.2532
-38.6934	382.885	16.2727
-38.6895	390.796	16.2922
-38.6897	385.127	16.3118
-38.6876	386.523	16.3313
-38.6878	388.492	16.35083
-38.68483	389.904	16.3704
-38.6835	385.7121	16.3899
-38.6815	390.557	16.4094
-38.6801	389.1387	16.429
-38.6786	387.222	16.4485
-38.67659	387.508	16.468
-38.67461	395.92	16.4875
-38.6736	389.571	16.50708
-38.67271	388.451	16.5266
-38.6698	393.336	16.5461
-38.6691	391.042	16.5657
-38.6667	388.782	16.5852
-38.6653	393.897	16.6047
-38.6643	394.31	16.6243
-38.66227	388.707	16.6438
-38.6607	394.684	16.66333
-38.6585	396.855	16.6829
-38.6579	389.672	16.7024
-38.65633	394.688	16.7219
-38.6549	399.716	16.7415
-38.6526	390.307	16.761
-38.6502	394.31	16.7805
-38.6484	396.6774	16.8
-38.6466	393.013	16.81958
-38.6448	394.192	16.8391
-38.6443	401.728	16.8586
-38.6425	394.775	16.8782
-38.641	393.92	16.8977
-38.6402	398.348	16.9172
-38.6383	398.439	16.9368
-38.6368	393.1539	16.9563
-38.6341	400.125	16.97583
-38.6323	397.373	16.9954
-38.6316	398.648	17.0149
-38.6295	397.832	17.0344
-38.6274	400.61	17.054
-38.6265	394.781	17.0735
-38.62582	399.5365	17.093
-38.6226	400.363	17.1125
-38.6216	398.203	17.13208
-38.6199	396.4	17.1516
-38.6173	403.423	17.1711
-38.6165	401.753	17.1907
-38.6148	398.746	17.2102
-38.6136	400.744	17.2297
-38.612	402.045	17.2493
-38.6087	397.142	17.2688
-38.6087	403.809	17.28833
-38.6076	403.819	17.3079
-38.6057	394.9	17.3274
-38.6036	401.885	17.3469
-38.6005	406.082	17.3665
-38.6005	399.69	17.386
-38.5979	399.876	17.4055
-38.5973	406.377	17.425
-38.5958	398.474	17.44458
-38.5939	402.115	17.4641
-38.5926	405.151	17.4836
-38.5909	402.862	17.5032
-38.5894	400.753	17.5227
-38.5866	408.214	17.5422
-38.586	401.69	17.5618
-38.585	400.523	17.5813
-38.5823	404.7	17.60083
-38.5808	406.976	17.6204
-38.5787	401.29	17.6399
-38.578	405.4129	17.6594
-38.5766	403.517	17.679
-38.574	404.128	17.6985
-38.5732	404.074	17.718
-38.5717	409.626	17.7375
-38.5687	404.441	17.75708
-38.5681	405.038	17.7766
-38.5671	407.46	17.7961
-38.5648	406.849	17.8157
-38.5625	402.632	17.8352
-38.5613	407.998	17.8547
-38.56	408.995	17.8743
-38.558	404.718	17.8938
-38.5565	404.784	17.91333
-38.5535	409.714	17.9329
-38.553	404.6077	17.9524
-38.55106	408.915	17.9719
-38.5498	412.0943	17.9915
-38.5486	404.729	18.011
-38.5461	405.293	18.0305
-38.5454	412.171	18.05
-38.5438	407.205	18.06958
-38.5414	404.888	18.0891
-38.5401	413.904	18.1086
-38.53907	406.428	18.1282
-38.5369	408.412	18.1477
-38.5355	412.704	18.1672
-38.5339	410.879	18.1868
-38.532	405.258	18.2063
-38.5308	414.571	18.22583
-38.5283	410.533	18.2454
-38.5269	406.511	18.2649
-38.5248	410.619	18.2844
-38.524	413.577	18.304
-38.5228	408.78	18.3235
-38.5201	411.711	18.343
-38.5185	411.495	18.3625
-38.5184	411.555	18.38208
-38.5155	408.55	18.4016
-38.51424	414.219	18.4211
-38.513	411.573	18.4407
-38.5115	408.716	18.4602
-38.5086	413.136	18.4797
-38.5079	416.527	18.4993
-38.5069	407.77	18.5188
-38.5041	413.628	18.53833
-38.5029	415.95	18.5579
-38.5008	408.988	18.5774
-38.5008	411.337	18.5969
-38.4962	415.188	18.6165
-38.4967	407.842	18.636
-38.4954	411.056	18.6555
-38.49197	418.115	18.675
-38.4923	409.297	18.69458
-38.4893	407.966	18.7141
-38.4874	417.761	18.7336
-38.4858	412.786	18.7532
-38.4851	409.4259	18.7727
-38.4831	417.591	18.7922
-38.4825	413.173	18.8118
-38.4803	409.845	18.8313
-38.47797	415.176	18.85083
-38.4769	416.012	18.8704
-38.47488	408.673	18.8899
-38.4732	416.492	18.9094
-38.4718	413.75	18.929
-38.4698	411.628	18.9485
-38.4694	411.148	18.968
-38.4677	418.063	18.9875
-38.4665	413.528	19.00708
-38.4634	414.01	19.0266
-38.4613	415.697	19.0461
-38.4595	415.1756	19.0657
-38.4584	411.542	19.0852
-38.4559	419.3187	19.1047
-38.4554	416.74	19.1243
-38.4538	413.141	19.1438
-38.4522	413.1315	19.16333
-38.4511	420.172	19.1829
-38.4488	411.772	19.2024
-38.4474	414.814	19.2219
-38.4453	418.857	19.2415
-38.4444	413.188	19.261
-38.4429	412.317	19.2805
-38.4398	420.043	19.3
-38.43858	412.423	19.31958
-38.4362	413.274	19.3391
-38.4365	418.9881	19.3586
-38.4348	412.735	19.3782
-38.4328	409.858	19.3977
-38.4308	419.193	19.4172
-38.4288	416.97	19.4368
-38.42775	412.017	19.4563
-38.4251	419.777	19.47583
-38.4244	416.778	19.4954
-38.4235	412.382	19.5149
-38.4215	417.339	19.5344
-38.419	419.068	19.554
-38.4188	411.2948	19.5735
-38.4164	416.019	19.593
-38.4139	415.591	19.6125
-38.4135	415.6683	19.63208
-38.4105	412.232	19.6516
-38.4087	417.54	19.6711
-38.4074	415.526	19.6907
-38.4069	411.635	19.7102
-38.4048	416.429	19.7297
-38.4033	415.96	19.7493
-38.4009	409.612	19.7688
-38.4008	417.634	19.78833
-38.3988	419.685	19.8079
-38.3968	413.73	19.8274
-38.3946	413.54	19.8469
-38.3935	420.495	19.8665
-38.3929	411.047	19.886
-38.3907	414.94	19.9055
-38.3887	418.751	19.925
-38.3872	412.86	19.94458
-38.3846	409.4505	19.9641
-38.3829	420.035	19.9836
-38.3807	414.276	20.0032
-38.3817	407.993	20.0129

Data Header:			0.254_hd_dimension_typeiv_090_r0			Time:	21.1924	s	4/14/2019 12:42:46 AM
Data Acquisition:	Timed
Station Name:	ft40.cfg
Test File Name:	monotonic_0.2540_typeiv_hd_090_dimension.tst
Displacement	Force	Running Time
mm	N	s
-38.3793	408.629	20.0227
-38.3807	416.64	20.0325
-38.3786	418.609	20.0422
-38.3777	415.612	20.052
-38.3767	414.307	20.0618
-38.3765	411.545	20.0715
-38.3754	407.779	20.0813
-38.3751	412.587	20.0911
-38.375	415.072	20.10083
-38.3739	420.07	20.1106
-38.3727	416.636	20.1204
-38.3709	408.559	20.1301
-38.3707	409.46	20.1399
-38.3706	411.854	20.1497
-38.3693	414.37	20.1594
-38.36771	413.5701	20.1692
-38.367	412.58	20.179
-38.3666	411.321	20.1887
-38.3653	407.889	20.1985
-38.3649	409.2782	20.2083
-38.3644	409.737	20.218
-38.3639	413.9321	20.2278
-38.3617	414.059	20.2375
-38.3611	408.213	20.2473
-38.3611	406.819	20.25708
-38.3606	406.373	20.2668
-38.3606	407.858	20.2766
-38.3579	410.134	20.2864
-38.3568	409.956	20.2961
-38.3574	410.21	20.3059
-38.35622	406.989	20.3157
-38.3559	401.485	20.3254
-38.3551	394.323	20.3352
-38.35	-1.65235	20.345
-38.3499	-14.9569	20.3547
-38.34898	-43.5668	20.3645
-38.3492	-52.8054	20.3743
-38.3482	-46.1198	20.384
-38.3485	-40.4251	20.3938
-38.3487	-45.5423	20.4036
-38.3458	-41.459	20.41333
-38.3461	-42.2589	20.4231
-38.3456	-39.2522	20.4329
-38.3461	-44.0457	20.4426
-38.3431	-47.3124	20.4524
-38.3429	-45.4161	20.4622
-38.3425	-41.361	20.4719
-38.3423	-42.352	20.4817
-38.3414	-37.7119	20.4915
-38.3395	-43.2931	20.5012
-38.3401	-44.34766	20.511
-38.3383	-46.8143	20.5208
-38.3369	-46.9414	20.5305
-38.3374	-41.5507	20.5403
-38.3365	-39.7309	20.55
-38.3357	-40.14286	20.5598
-38.3339	-46.3115	20.56958
-38.3329	-50.1048	20.5793
-38.3331	-44.2718	20.5891
-38.3318	-43.1806	20.5989
-38.3313	-39.4908	20.6086
-38.33147	-41.1451	20.6184
-38.3295	-43.7821	20.6282
-38.3282	-45.1296	20.6379
-38.3287	-48.8337	20.6477
-38.327	-43.4063	20.6575
-38.3268	-39.6055	20.6672
-38.3254	-39.26659	20.677
-38.3251	-43.6911	20.6868
-38.3254	-48.0723	20.6965
-38.3238	-47.5176	20.7063
-38.3224	-42.146	20.7161
-38.3205	-42.2897	20.72583
-38.32085	-40.3862	20.7356
-38.3193	-39.1908	20.7454
-38.3204	-44.0066	20.7551
-38.318	-47.6727	20.7649
-38.3181	-46.1836	20.7747
-38.3161	-42.6263	20.7844
-38.3165	-38.2983	20.7942
-38.315	-39.8853	20.804
-38.3144	-45.3097	20.8137
-38.3134	-47.0307	20.8235
-38.3128	-44.881	20.8333
-38.3117	-41.4211	20.843
-38.3114	-42.6028	20.8528
-38.3107	-40.4906	20.8625
-38.309	-41.0163	20.8723
-38.3091	-45.9265	20.88208
-38.3084	-44.4898	20.8918
-38.3066	-47.1573	20.9016
-38.3061	-40.9778	20.9114
-38.3063	-38.7668	20.9211
-38.3048	-42.7535	20.9309
-38.304	-44.5924	20.9407
-38.303	-45.04171	20.9504
-38.3014	-44.8214	20.9602
-38.3015	-44.15205	20.97
-38.3014	-43.464	20.9797
-38.3007	-39.2194	20.9895
-38.2993	-42.60096	20.9993
-38.29834	-44.0919	21.009
-38.29734	-46.2106	21.0188
-38.2971	-47.0187	21.0286
-38.2951	-41.4333	21.03833
-38.2943	-42.7822	21.0481
-38.2939	-41.6463	21.0579
-38.2928	-43.5159	21.0676
-38.2937	-46.5508	21.0774
-38.2917	-46.3446	21.0872
-38.2915	-43.9755	21.0969
-38.2907	-41.6973	21.1067
-38.2883	-38.1737	21.1165
-38.2892	-42.9369	21.1262
-38.2871	-46.5119	21.136
-38.2863	-48.0651	21.1458
-38.2859	-43.2967	21.1555
-38.2853	-41.4077	21.1653
-38.2843	-39.2615	21.175
-38.2831	-41.1318	21.1848