File: data/processed_data_files/tensile/0.254_hd_dimension_typeiv_090_r(2).dat
MTS793|BTW|ENU|1|2|.|/|:|1|0|0|A

Data Header:			0.254_hd_dimension_typeiv_090_r0			Time:	20.0215	s	4/14/2019 12:28:08 AM
Data Acquisition:	Timed
Station Name:	ft40.cfg
Test File Name:	monotonic_0.2540_typeiv_hd_090_dimension.tst
Displacement	Force	Running Time
mm	N	s
-40.04105	-145.1647	0.0231934
-40.0415	-140.561	0.0427246
-40.041	-142.4274	0.0622559
-40.0404	-143.7668	0.0817871
-40.0387	-145.516	0.101318
-40.0381	-136.746	0.12085
-40.0352	-141.204	0.140381
-40.0346	-140.456	0.159912
-40.0332	-133.119	0.179443
-40.0318	-137.82	0.198975
-40.02961	-141.476	0.218506
-40.028	-132.413	0.238037
-40.0271	-131.614	0.257568
-40.0251	-137.297	0.2771
-40.0235	-127.983	0.296631
-40.0214	-132.071	0.316162
-40.0196	-132.503	0.335693
-40.0181	-128.034	0.355225
-40.01709	-124.115	0.374756
-40.0147	-129.946	0.394287
-40.0125	-124.376	0.413818
-40.0124	-124.011	0.43335
-40.0101	-122.574	0.452881
-40.0083	-126.305	0.472412
-40.0062	-116.154	0.491943
-40.0044	-120.406	0.511475
-40.0039	-119.443	0.531006
-40.0026	-119.661	0.550537
-40.0007	-115.154	0.570068
-39.99881	-120.375	0.5896
-39.9985	-113.029	0.609131
-39.9965	-111.328	0.628662
-39.99334	-117.192	0.648193
-39.9918	-116.465	0.667725
-39.98925	-106.508	0.687256
-39.989	-112.099	0.706787
-39.9883	-111.111	0.726318
-39.9864	-105.508	0.74585
-39.9842	-107.499	0.765381
-39.9812	-111.14	0.784912
-39.98045	-103.377	0.804443
-39.9799	-104.669	0.823975
-39.9773	-107.558	0.843506
-39.9765	-98.453	0.863037
-39.97467	-102.452	0.882568
-39.973	-104.737	0.9021
-39.9705	-98.95105	0.921631
-39.9719	-95.7568	0.941162
-39.9678	-99.94619	0.960693
-39.9666	-95.3676	0.980225
-39.96455	-95.9544	0.999756
-39.9627	-96.4653	1.01929
-39.96	-95.3651	1.03882
-39.9603	-89.17305	1.05835
-39.958	-92.4702	1.07788
-39.9572	-91.4371	1.09741
-39.9558	-89.1072	1.11694
-39.95356	-87.36058	1.13647
-39.952	-91.94809	1.15601
-39.9493	-84.9071	1.17554
-39.9477	-83.94281	1.19507
-39.9465	-85.64949	1.2146
-39.944	-86.6719	1.23413
-39.9438	-80.4091	1.25366
-39.9426	-84.0231	1.27319
-39.941	-80.8533	1.29272
-39.939	-76.346	1.31226
-39.9374	-82.6788	1.33179
-39.9359	-82.2676	1.35132
-39.9342	-71.7967	1.37085
-39.93108	-76.2359	1.39038
-39.9311	-76.5925	1.40991
-39.9298	-71.7768	1.42944
-39.927	-74.6999	1.44897
-39.9259	-75.2433	1.46851
-39.9235	-69.80558	1.48804
-39.9222	-69.9277	1.50757
-39.9212	-71.976	1.5271
-39.9188	-65.9918	1.54663
-39.9184	-67.1242	1.56616
-39.9163	-69.8372	1.58569
-39.9148	-66.6976	1.60522
-39.9118	-59.7959	1.62476
-39.911	-63.9171	1.64429
-39.9089	-62.2528	1.66382
-39.9091	-62.0182	1.68335
-39.9072	-59.1518	1.70288
-39.9048	-61.21497	1.72241
-39.9026	-54.5193	1.74194
-39.9026	-57.7401	1.76147
-39.9001	-58.0866	1.78101
-39.8982	-55.14621	1.80054
-39.8969	-50.6884	1.82007
-39.8958	-56.895	1.8396
-39.8929	-51.6729	1.85913
-39.8914	-49.3641	1.87866
-39.8912	-52.3371	1.89819
-39.8872	-52.87204	1.91772
-39.8868	-45.741	1.93726
-39.8837	-49.9575	1.95679
-39.8829	-48.9642	1.97632
-39.8818	-41.4105	1.99585
-39.8805	-49.31221	2.01538
-39.8792	-48.327	2.03491
-39.8775	-40.3806	2.05444
-39.8758	-40.34866	2.07397
-39.87286	-44.9749	2.09351
-39.8729	-38.0403	2.11304
-39.8696	-40.7796	2.13257
-39.8684	-40.6448	2.1521
-39.8684	-38.0752	2.17163
-39.8644	-34.3936	2.19116
-39.86372	-37.88007	2.21069
-39.8619	-32.3442	2.23022
-39.8605	-33.0842	2.24976
-39.8588	-32.7304	2.26929
-39.8573	-35.2035	2.28882
-39.8563	-26.7412	2.30835
-39.85511	-31.1549	2.32788
-39.8533	-30.388	2.34741
-39.8506	-27.9305	2.36694
-39.8493	-24.9944	2.38647
-39.8488	-28.7226	2.40601
-39.8469	-22.0735	2.42554
-39.8447	-23.4097	2.44507
-39.8424	-26.7428	2.4646
-39.841	-23.7725	2.48413
-39.8395	-17.4954	2.50366
-39.838	-24.3248	2.52319
-39.8366	-20.6123	2.54272
-39.8341	-15.4726	2.56226
-39.8331	-23.00642	2.58179
-39.8311	-19.9861	2.60132
-39.8291	-12.5543	2.62085
-39.8285	-15.943	2.64038
-39.82687	-15.611	2.65991
-39.8255	-8.90249	2.67944
-39.8231	-14.5249	2.69897
-39.8225	-14.6599	2.71851
-39.81963	-9.66805	2.73804
-39.8186	-6.61344	2.75757
-39.8153	-12.7769	2.7771
-39.8164	-6.2479	2.79663
-39.8146	-8.1728	2.81616
-39.8117	-6.520782	2.83569
-39.8106	-4.78968	2.85522
-39.8076	0.115456	2.87476
-39.8068	-4.04659	2.89429
-39.80685	-1.03405	2.91382
-39.8032	-1.19359	2.93335
-39.8029	1.3288	2.95288
-39.8004	-2.08963	2.97241
-39.8002	5.29328	2.99194
-39.7973	5.8338	3.01147
-39.7966	1.86402	3.03101
-39.7937	3.98031	3.05054
-39.7925	9.65282	3.07007
-39.7914	3.79816	3.0896
-39.7893	9.7441	3.10913
-39.7888	11.7787	3.12866
-39.7858	5.68754	3.14819
-39.7841	9.43888	3.16772
-39.7826	16.1113	3.18726
-39.7813	11.0797	3.20679
-39.78	11.9386	3.22632
-39.7772	19.3431	3.24585
-39.7758	13.9513	3.26538
-39.7745	14.4369	3.28491
-39.7732	20.3351	3.30444
-39.7723	21.365	3.32397
-39.7691	18.4244	3.34351
-39.7674	26.2711	3.36304
-39.7669	21.6644	3.38257
-39.7645	19.4975	3.4021
-39.7635	25.2233	3.42163
-39.7609	29.0871	3.44116
-39.76	23.531	3.46069
-39.758	28.5225	3.48022
-39.7558	27.5495	3.49976
-39.7557	29.0922	3.51929
-39.75391	28.8412	3.53882
-39.7526	36.2107	3.55835
-39.75	28.7877	3.57788
-39.7491	31.2078	3.59741
-39.7473	33.6182	3.61694
-39.7454	36.531	3.63647
-39.7439	31.6199	3.65601
-39.7407	38.8915	3.67554
-39.7401	39.5355	3.69507
-39.7387	35.9707	3.7146
-39.7372	37.92664	3.73413
-39.7349	43.1689	3.75366
-39.7337	38.973	3.77319
-39.7315	40.6283	3.79272
-39.7306	47.8903	3.81226
-39.7281	39.7794	3.83179
-39.7277	42.1379	3.85132
-39.7256	49.7187	3.87085
-39.724	46.2054	3.89038
-39.7235	44.1347	3.90991
-39.7211	52.9742	3.92944
-39.7209	46.8339	3.94897
-39.7172	49.058	3.96851
-39.7165	54.2201	3.98804
-39.714	54.3616	4.00757
-39.7135	50.9545	4.0271
-39.7115	57.3205	4.04663
-39.7104	54.8415	4.06616
-39.7065	53.8107	4.08569
-39.7067	56.3655	4.10522
-39.7062	63.0985	4.12476
-39.7032	57.9224	4.14429
-39.7013	58.766	4.16382
-39.6988	60.70113	4.18335
-39.6989	63.7935	4.20288
-39.6958	59.9989	4.22241
-39.6954	65.9774	4.24194
-39.6934	66.5378	4.26147
-39.6918	62.7602	4.28101
-39.6899	67.14032	4.30054
-39.6888	69.2946	4.32007
-39.68689	63.7369	4.3396
-39.6841	70.019	4.35913
-39.6834	74.90062	4.37866
-39.6819	67.5816	4.39819
-39.68058	70.0523	4.41772
-39.6783	76.977	4.43726
-39.6773	73.2099	4.45679
-39.6761	74.2368	4.47632
-39.6736	82.1603	4.49585
-39.6729	74.18	4.51538
-39.67141	77.0941	4.53491
-39.6681	84.1111	4.55444
-39.6664	82.102	4.57397
-39.6655	77.3628	4.59351
-39.6635	86.5221	4.61304
-39.6634	82.2343	4.63257
-39.6609	84.2106	4.6521
-39.6578	85.5303	4.67163
-39.6573	90.0708	4.69116
-39.6562	85.3393	4.71069
-39.6548	89.3987	4.73022
-39.6534	88.9748	4.74976
-39.6514	88.5685	4.76929
-39.6498	88.30619	4.78882
-39.6481	97.1144	4.80835
-39.6465	92.9933	4.82788
-39.6446	91.9134	4.84741
-39.6418	95.543	4.86694
-39.6422	98.3944	4.88647
-39.6395	95.0155	4.90601
-39.6377	98.7896	4.92554
-39.6373	100.831	4.94507
-39.6342	95.3824	4.9646
-39.6338	100.139	4.98413
-39.6315	105.002	5.00366
-39.6289	99.013	5.02319
-39.62878	103.019	5.04272
-39.6261	109.576	5.06226
-39.6245	101.625	5.08179
-39.6237	103.76	5.10132
-39.6215	109.665	5.12085
-39.6199	108.951	5.14038
-39.6181	106.79	5.15991
-39.6174	114.3779	5.17944
-39.615	107.049	5.19897
-39.6139	110.409	5.21851
-39.6114	114.983	5.23804
-39.6093	116.606	5.25757
-39.6089	111.69	5.2771
-39.6082	116.719	5.29663
-39.60498	117.042	5.31616
-39.60339	116.491	5.33569
-39.60247	118.232	5.35522
-39.6013	122.608	5.37476
-39.5989	120.4894	5.39429
-39.5964	121.159	5.41382
-39.5944	122.576	5.43335
-39.5939	122.111	5.45288
-39.5922	122.245	5.47241
-39.5918	129.406	5.49194
-39.5893	126.714	5.51147
-39.5876	121.89	5.53101
-39.58667	127.1238	5.55054
-39.5847	130.288	5.57007
-39.5819	125.843	5.5896
-39.5816	130.759	5.60913
-39.5795	134.188	5.62866
-39.5776	128.031	5.64819
-39.5764	132.468	5.66772
-39.5756	136.723	5.68726
-39.5734	132.212	5.70679
-39.5722	134.429	5.72632
-39.5703	141.454	5.74585
-39.5685	134.597	5.76538
-39.566	137.669	5.78491
-39.5657	141.1619	5.80444
-39.5635	142.4281	5.82397
-39.5602	139.571	5.84351
-39.5597	145.521	5.86304
-39.557	140.426	5.88257
-39.5559	142.329	5.9021
-39.5552	146.931	5.92163
-39.5537	150.7664	5.94116
-39.5513	144.55	5.96069
-39.55	146.291	5.98022
-39.5482	150.549	5.99976
-39.5469	150.284	6.01929
-39.5455	149.559	6.03882
-39.5434	154.005	6.05835
-39.5424	151.646	6.07788
-39.5399	150.787	6.09741
-39.5384	154.975	6.11694
-39.5377	155.189	6.13647
-39.5361	152.488	6.15601
-39.5345	158.617	6.17554
-39.5316	162.371	6.19507
-39.5303	153.823	6.2146
-39.5282	158.4529	6.23413
-39.5273	163.323	6.25366
-39.52536	159.934	6.27319
-39.524	163.453	6.29272
-39.5241	166.897	6.31226
-39.5207	159.837	6.33179
-39.5193	163.98	6.35132
-39.5176	169.368	6.37085
-39.5163	167.1526	6.39038
-39.5148	164.998	6.40991
-39.5127	173.279	6.42944
-39.5117	167.3672	6.44897
-39.5102	169.305	6.46851
-39.5079	173.296	6.48804
-39.5064	173.9838	6.50757
-39.5043	171.439	6.5271
-39.5032	176.903	6.54663
-39.5017	174.787	6.56616
-39.5001	174.108	6.58569
-39.4975	177.468	6.60522
-39.4965	182.869	6.62476
-39.4955	176.875	6.64429
-39.4942	178.769	6.66382
-39.4918	183.457	6.68335
-39.48999	182.332	6.70288
-39.4891	179.45	6.72241
-39.4883	184.744	6.74194
-39.4849	187.472	6.76147
-39.48246	182.324	6.78101
-39.482	186.896	6.80054
-39.4799	188.94	6.82007
-39.4798	186.0372	6.8396
-39.4772	191.0551	6.85913
-39.4755	195.7809	6.87866
-39.4754	185.777	6.89819
-39.4725	192.6472	6.91772
-39.47147	197.1452	6.93726
-39.4695	194.339	6.95679
-39.467	193.924	6.97632
-39.4666	199.457	6.99585
-39.4642	192.673	7.01538
-39.4614	197.609	7.03491
-39.4608	200.9817	7.05444
-39.4587	200.284	7.07397
-39.4572	197.531	7.09351
-39.4558	204.334	7.11304
-39.455	201.782	7.13257
-39.4534	202.132	7.1521
-39.4517	202.814	7.17163
-39.4491	207.067	7.19116
-39.4483	203.391	7.21069
-39.4457	207.22	7.23022
-39.4447	207.479	7.24976
-39.4433	207.53	7.26929
-39.441	208.537	7.28882
-39.4389	213.112	7.30835
-39.4384	210.167	7.32788
-39.437	206.28	7.34741
-39.4347	214.4	7.36694
-39.4339	214.587	7.38647
-39.4324	211.488	7.40601
-39.4296	217.436	7.42554
-39.4279	219.684	7.44507
-39.4262	212.691	7.4646
-39.4246	219.241	7.48413
-39.4223	219.542	7.50366
-39.4224	217.4	7.52319
-39.4197	221.562	7.54272
-39.4182	226.917	7.56226
-39.41634	216.451	7.58179
-39.4155	222.413	7.60132
-39.4136	227.556	7.62085
-39.4116	224.991	7.64038
-39.41058	223.934	7.65991
-39.4083	231.124	7.67944
-39.4074	225.342	7.69897
-39.4053	227.404	7.71851
-39.403	232.452	7.73804
-39.4015	233.79	7.75757
-39.4008	229.691	7.7771
-39.3998	234.275	7.79663
-39.398	233.743	7.81616
-39.39505	232.646	7.83569
-39.3945	233.657	7.85522
-39.3929	238.9491	7.87476
-39.39225	236.185	7.89429
-39.3893	235.876	7.91382
-39.3869	240.202	7.93335
-39.3856	238.293	7.95288
-39.3846	238.789	7.97241
-39.3823	244.505	7.99194
-39.3819	244.069	8.01147
-39.3795	237.748	8.03101
-39.3783	245.7377	8.05054
-39.3758	246.689	8.07007
-39.3755	244.565	8.0896
-39.3726	246.373	8.10913
-39.3718	250.087	8.12866
-39.3702	243.441	8.14819
-39.3681	252.019	8.16772
-39.36652	252.744	8.18726
-39.3649	249.988	8.20679
-39.3625	252.326	8.22632
-39.3606	257.817	8.24585
-39.3591	249.2048	8.26538
-39.358	252.0495	8.28491
-39.35601	257.469	8.30444
-39.354	257.23	8.32397
-39.3532	254.637	8.34351
-39.3517	260.259	8.36304
-39.3502	256.757	8.38257
-39.3499	258.196	8.4021
-39.3461	262.666	8.42163
-39.3448	264.685	8.44116
-39.343	260.336	8.46069
-39.3413	262.691	8.48022
-39.3402	266.866	8.49976
-39.3392	264.007	8.51929
-39.3377	264.647	8.53882
-39.3356	269.503	8.55835
-39.3344	268.996	8.57788
-39.33223	264.478	8.59741
-39.3306	270.825	8.61694
-39.3296	269.541	8.63647
-39.3281	268.8804	8.65601
-39.3265	274.537	8.67554
-39.3241	275.181	8.69507
-39.3219	267.106	8.7146
-39.32132	276.8681	8.73413
-39.3198	276.141	8.75366
-39.3174	274.66	8.77319
-39.3167	276.724	8.79272
-39.315	281.069	8.81226
-39.3129	273.438	8.83179
-39.3116	279.107	8.85132
-39.3094	282.8287	8.87085
-39.3078	280.733	8.89038
-39.3048	280.709	8.90991
-39.3041	286.435	8.92944
-39.3022	280.071	8.94897
-39.3012	279.931	8.96851
-39.3002	287.246	8.98804
-39.2981	289.455	9.00757
-39.2963	285.403	9.0271
-39.2942	287.571	9.04663
-39.2932	288.395	9.06616
-39.2924	287.327	9.08569
-39.28952	290.27	9.10522
-39.2884	294.699	9.12476
-39.2861	290.588	9.14429
-39.2856	288.54	9.16382
-39.2826	295.03	9.18335
-39.2815	294.11	9.20288
-39.2796	292.256	9.22241
-39.2784	297.805	9.24194
-39.2759	298.859	9.26147
-39.2754	291.448	9.28101
-39.2737	303.03	9.30054
-39.2714	299.604	9.32007
-39.2699	297.92	9.3396
-39.2696	302.85	9.35913
-39.2675	305.88	9.37866
-39.2644	294.82	9.39819
-39.2632	304.656	9.41772
-39.2625	307.193	9.43726
-39.2612	304.428	9.45679
-39.2595	304.871	9.47632
-39.2564	310.146	9.49585
-39.2562	303.891	9.51538
-39.2537	309.002	9.53491
-39.252	312.626	9.55444
-39.2513	310.129	9.57397
-39.2486	307.901	9.59351
-39.2482	313.088	9.61304
-39.246	311.826	9.63257
-39.2451	309.098	9.6521
-39.2437	316.507	9.67163
-39.241	315.891	9.69116
-39.2396	312.989	9.71069
-39.2382	314.51	9.73022
-39.2363	318.398	9.74976
-39.2346	317.185	9.76929
-39.2339	318.989	9.78882
-39.2321	322.9458	9.80835
-39.2288	319.322	9.82788
-39.229	316.3468	9.84741
-39.226	326.789	9.86694
-39.2246	322.304	9.88647
-39.2231	320.906	9.90601
-39.2222	326.618	9.92554
-39.22	328.034	9.94507
-39.2187	320.071	9.9646
-39.2179	328.724	9.98413
-39.2143	328.7236	10.0037
-39.2135	326.373	10.0232
-39.2121	329.299	10.0427
-39.2108	334.422	10.0623
-39.2087	323.474	10.0818
-39.2071	330.659	10.1013
-39.2059	336.202	10.12085
-39.2037	332.109	10.1404
-39.202	331.226	10.1599
-39.2007	335.8551	10.1794
-39.1987	334.968	10.199
-39.1981	334.579	10.2185
-39.1948	339.296	10.238
-39.1945	339.144	10.2576
-39.1921	336.954	10.2771
-39.1902	339.992	10.2966
-39.1891	340.741	10.3162
-39.1867	336.7117	10.3357
-39.1845	341.291	10.3552
-39.1836	346.633	10.3748
-39.1832	343.962	10.3943
-39.1818	338.439	10.4138
-39.1792	346.767	10.43335
-39.1777	344.261	10.4529
-39.1769	344.443	10.4724
-39.174	350.726	10.4919
-39.1724	349.616	10.5115
-39.1716	341.1163	10.531
-39.1684	352.388	10.5505
-39.1675	350.988	10.5701
-39.1666	348.306	10.5896
-39.1642	352.851	10.6091
-39.1633	356.171	10.6287
-39.1612	347.778	10.6482
-39.16	354.448	10.6677
-39.1586	356.8913	10.6873
-39.1558	354.264	10.7068
-39.1541	357.0401	10.7263
-39.1525	360.375	10.74585
-39.152	354.943	10.7654
-39.1504	357.103	10.7849
-39.1478	361.699	10.8044
-39.1465	360.992	10.824
-39.14497	357.546	10.8435
-39.1429	360.752	10.863
-39.1422	359.8522	10.8826
-39.1407	360.984	10.9021
-39.1384	365.102	10.9216
-39.1371	366.857	10.9412
-39.1355	362.85	10.9607
-39.1347	362.767	10.9802
-39.1319	370.2485	10.9998
-39.1283	363.597	11.0193
-39.1285	366.319	11.0388
-39.1273	371.918	11.05835
-39.1268	369	11.0779
-39.1227	361.842	11.0974
-39.1218	372.802	11.1169
-39.1219	370.2753	11.1365
-39.1193	371.0686	11.156
-39.1176	375.943	11.1755
-39.116	375.69	11.1951
-39.1147	367.492	11.2146
-39.1128	378.801	11.2341
-39.11018	377.436	11.2537
-39.1101	374.1965	11.2732
-39.1082	375.781	11.2927
-39.1062	381.3468	11.3123
-39.1042	373.005	11.3318
-39.1028	379.463	11.3513
-39.1013	382.167	11.37085
-39.0998	378.294	11.3904
-39.0976	381.503	11.4099
-39.095	384.292	11.4294
-39.0948	379.529	11.449
-39.0921	377.833	11.4685
-39.0904	385.895	11.488
-39.0909	387.197	11.5076
-39.0879	383.205	11.5271
-39.0863	384.28	11.5466
-39.0839	389.06	11.5662
-39.0821	384.09	11.5857
-39.0825	389.476	11.6052
-39.08	390.507	11.6248
-39.0786	388.9	11.6443
-39.0771	385.159	11.6638
-39.0756	395.112	11.68335
-39.0733	388.231	11.7029
-39.0719	391.321	11.7224
-39.0716	395.303	11.7419
-39.0683	394.274	11.7615
-39.0672	387.572	11.781
-39.0655	399.1402	11.8005
-39.0636	394.575	11.8201
-39.0614	393.155	11.8396
-39.0608	398.325	11.8591
-39.0591	400.422	11.8787
-39.0579	392.0097	11.8982
-39.0558	399.9017	11.9177
-39.0532	401.843	11.9373
-39.0525	397.435	11.9568
-39.05051	399.392	11.9763
-39.0491	402.36	11.99585
-39.0467	399.373	12.0154
-39.0449	400.004	12.0349
-39.0445	405.618	12.0544
-39.0427	402.189	12.074
-39.0406	403.4137	12.0935
-39.0391	404.28	12.113
-39.03738	404.738	12.1326
-39.0359	401.312	12.1521
-39.0325	409.22	12.1716
-39.0326	410.771	12.1912
-39.0317	405.4483	12.2107
-39.0294	405.493	12.2302
-39.0289	411.913	12.2498
-39.0251	406.085	12.2693
-39.0241	409.166	12.2888
-39.0233	413.7616	12.30835
-39.0214	410.425	12.3279
-39.0193	406.845	12.3474
-39.0169	417.418	12.3669
-39.0159	411.11	12.3865
-39.0152	409.473	12.406
-39.0131	415.385	12.4255
-39.012	417.247	12.4451
-39.0111	409.018	12.4646
-39.0087	417.165	12.4841
-39.0063	417.739	12.5037
-39.0056	412.663	12.5232
-39.0033	418.245	12.5427
-39.0017	419.9035	12.5623
-39.0002	412.575	12.5818
-38.99786	417.7941	12.6013
-38.9962	423.081	12.62085
-38.9952	416.2879	12.6404
-38.99382	417.02	12.6599
-38.9928	422.255	12.6794
-38.9906	420.339	12.699
-38.9889	417.725	12.7185
-38.9883	423.292	12.738
-38.9842	422.553	12.7576
-38.9836	421.219	12.7771
-38.983	422.477	12.7966
-38.98069	425.673	12.8162
-38.9783	420.322	12.8357
-38.9779	425.441	12.8552
-38.975	428.66	12.8748
-38.9727	424.643	12.8943
-38.9715	419.246	12.9138
-38.97197	431.1424	12.93335
-38.9692	425.653	12.9529
-38.9675	427.049	12.9724
-38.9659	430.356	12.9919
-38.9646	427.55	13.0115
-38.961	422.35	13.031
-38.96143	433.463	13.0505
-38.9599	430.031	13.0701
-38.9574	427.399	13.0896
-38.9561	431.65	13.1091
-38.9545	432.398	13.1287
-38.95335	425.006	13.1482
-38.9517	429.722	13.1677
-38.9489	434.2	13.1873
-38.9484	429.551	13.2068
-38.9473	433.24	13.2263
-38.9453	435.768	13.24585
-38.9439	429.2121	13.2654
-38.9425	432.657	13.2849
-38.93956	439.27	13.3044
-38.9386	433.282	13.324
-38.9371	430.752	13.3435
-38.9354	433.917	13.363
-38.9331	437.323	13.3826
-38.9317	433.054	13.4021
-38.93008	435.995	13.4216
-38.9288	438.7099	13.4412
-38.9265	435.928	13.4607
-38.9256	433.119	13.4802
-38.923	441.366	13.4998
-38.9226	434.408	13.5193
-38.9208	436.863	13.5388
-38.9176	442.918	13.55835
-38.9177	437.645	13.5779
-38.9151	432.226	13.5974
-38.9128	444.041	13.6169
-38.9118	439.36	13.6365
-38.9099	436.845	13.656
-38.9087	442.25	13.6755
-38.9081	439.606	13.6951
-38.9062	434.568	13.7146
-38.9039	443.557	13.7341
-38.9024	444.247	13.7537
-38.9003	437.936	13.7732
-38.8998	442.2341	13.7927
-38.898	445.053	13.8123
-38.8953	437.902	13.8318
-38.8939	440.805	13.8513
-38.8927	444.858	13.87085
-38.8907	441.619	13.8904
-38.8893	442.4812	13.9099
-38.8876	443.264	13.9294
-38.8856	442.91	13.949
-38.8834	439.384	13.9685
-38.883	447.823	13.988
-38.8809	444.236	14.0076
-38.8784	440.012	14.0271
-38.87928	440.325	14.0466
-38.8768	447.631	14.0662
-38.8738	441.709	14.0857
-38.8728	443.949	14.1052
-38.8717	448.525	14.1248
-38.8698	443.978	14.1443
-38.8671	441.964	14.1638
-38.866	449.28	14.18335
-38.8652	441.453	14.2029
-38.864	444.273	14.2224
-38.8615	450.38	14.2419
-38.8605	445.535	14.2615
-38.8593	438.271	14.281
-38.8574	448.752	14.3005
-38.854	447.665	14.3201
-38.8528	443.202	14.3396
-38.8521	447.76	14.3591
-38.8498	447.186	14.3787
-38.848	440.464	14.3982
-38.8465	447.841	14.4177
-38.846	450.412	14.4373
-38.84309	442.122	14.4568
-38.843	445.983	14.4763
-38.841	448.773	14.49585
-38.8388	445.574	14.5154
-38.8373	443.1723	14.5349
-38.8366	450.252	14.5544
-38.8338	447.709	14.574
-38.8317	444.709	14.5935
-38.8305	447.483	14.613
-38.8298	449.019	14.6326
-38.828	443.038	14.6521
-38.82526	450.492	14.6716
-38.825	451.11	14.6912
-38.823	443.824	14.7107
-38.8213	443.607	14.7302
-38.8193	453.157	14.7498
-38.81823	446.302	14.7693
-38.8169	445.469	14.7888
-38.8146	450.011	14.80835
-38.8131	447.525	14.8279
-38.8117	441.252	14.8474
-38.8092	451.987	14.8669
-38.8078	445.821	14.8865
-38.8077	443.796	14.906
-38.8051	450.902	14.9255
-38.8036	447.166	14.9451
-38.8014	441.668	14.9646
-38.8002	448.9054	14.9841
-38.7986	450.793	15.0037
-38.7971	443.053	15.0232
-38.7947	447.053	15.0427
-38.7937	446.05	15.0623
-38.7922	444.593	15.0818
-38.7902	446.476	15.1013
-38.7884	451.143	15.12085
-38.7872	444.272	15.1404
-38.7853	444.384	15.1599
-38.78315	446.6217	15.1794
-38.7814	449.668	15.199
-38.7806	440.6879	15.2185
-38.77903	448.173	15.238
-38.7771	447.312	15.2576
-38.776	443.724	15.2771
-38.776	443.771	15.2966
-38.7715	449.0018	15.3162
-38.7708	442.51	15.3357
-38.769	447.249	15.3552
-38.7679	449.164	15.3748
-38.7664	442.826	15.3943
-38.7653	441.937	15.4138
-38.7616	450.497	15.43335
-38.7601	444.561	15.4529
-38.759	442.789	15.4724
-38.7572	449.475	15.4919
-38.75621	444.935	15.5115
-38.7539	439.991	15.531
-38.7528	447.553	15.5505
-38.75161	445.954	15.5701
-38.75	439.054	15.5896
-38.7474	447.805	15.6091
-38.747	443.592	15.6287
-38.7452	440.184	15.6482
-38.7425	442.926	15.6677
-38.7419	447.3887	15.6873
-38.74017	442.159	15.7068
-38.738	444.598	15.7263
-38.737	442.9613	15.74585
-38.7347	442.196	15.7654
-38.733	439.812	15.7849
-38.7312	446.741	15.8044
-38.73019	442.378	15.824
-38.7284	440.078	15.8435
-38.7267	441.58	15.863
-38.7249	447.062	15.8826
-38.72366	437.635	15.9021
-38.7222	444.374	15.9216
-38.7191	444.956	15.9412
-38.7184	439.546	15.9607
-38.7168	437.846	15.9802
-38.71434	445.611	15.9998
-38.7142	438.112	16.0193
-38.7133	439.189	16.0388
-38.7101	446.441	16.05835
-38.7104	439.526	16.0779
-38.70673	436.168	16.0974
-38.7069	443.998	16.1169
-38.7047	443.072	16.1365
-38.7025	437.392	16.156
-38.70002	443.829	16.1755
-38.6986	440.851	16.1951
-38.6973	436.675	16.2146
-38.696	441.712	16.2341
-38.6941	443.489	16.2537
-38.6931	435.526	16.2732
-38.6908	441.601	16.2927
-38.6886	441.65	16.3123
-38.6871	437.442	16.3318
-38.6862	436.031	16.3513
-38.6847	443.5596	16.37085
-38.6837	439.968	16.3904
-38.6807	438.171	16.4099
-38.67942	438.8877	16.4294
-38.6773	441.214	16.449
-38.6771	434.592	16.4685
-38.675	442.369	16.488
-38.6734	440.114	16.5076
-38.6714	435.084	16.5271
-38.6692	435.456	16.5466
-38.668	443.531	16.5662
-38.6663	435.599	16.5857
-38.6644	437.104	16.6052
-38.66301	441.4379	16.6248
-38.6626	435.516	16.6443
-38.6606	433.695	16.6638
-38.65823	439.8634	16.68335
-38.657	436.1	16.7029
-38.6554	433.49	16.7224
-38.6541	441.746	16.7419
-38.6519	435.248	16.7615
-38.6497	431.984	16.781
-38.6491	437.501	16.8005
-38.6463	440.313	16.8201
-38.6441	433.346	16.8396
-38.6441	437.159	16.8591
-38.6417	435.74	16.8787
-38.6399	434.197	16.8982
-38.6389	435.051	16.9177
-38.6373	440.883	16.9373
-38.6365	433.43	16.9568
-38.6344	437.421	16.9763
-38.6332	437.104	16.99585
-38.6301	435.408	17.0154
-38.6289	430.8179	17.0349
-38.62772	439.836	17.0544
-38.6265	436.146	17.074
-38.6253	432.4101	17.0935
-38.6233	434.141	17.113
-38.6218	437.086	17.1326
-38.6191	428.776	17.1521
-38.6177	436.294	17.1716
-38.6161	438.053	17.1912
-38.6138	429.828	17.2107
-38.6138	431.403	17.2302
-38.6113	438.697	17.2498
-38.6097	431.559	17.2693
-38.6075	432.121	17.2888
-38.606	436.86	17.30835
-38.6047	432.2034	17.3279
-38.6029	430.222	17.3474
-38.601	436.766	17.3669
-38.6009	433.5397	17.3865
-38.5987	429.89	17.406
-38.5965	438.014	17.4255
-38.5957	431.817	17.4451
-38.5946	429.0083	17.4646
-38.5917	434.496	17.4841
-38.5905	437.714	17.5037
-38.5889	429.883	17.5232
-38.5871	435.172	17.5427
-38.5867	432.141	17.5623
-38.5831	432.962	17.5818
-38.5821	430.452	17.6013
-38.5795	436.996	17.62085
-38.5793	431.913	17.6404
-38.5766	431.815	17.6599
-38.5757	432.282	17.6794
-38.5735	434.091	17.699
-38.5718	428.464	17.7185
-38.5695	435.009	17.738
-38.56744	434.833	17.7576
-38.5679	428.682	17.7771
-38.56451	428.952	17.7966
-38.56282	435.872	17.8162
-38.56353	427.818	17.8357
-38.5613	431.5452	17.8552
-38.5596	435.555	17.8748
-38.5565	427.9397	17.8943
-38.55566	427.14	17.9138
-38.5545	434.932	17.93335
-38.552	430.076	17.9529
-38.5507	427.729	17.9724
-38.5492	435.064	17.9919
-38.5476	430.47	18.0115
-38.54604	429.388	18.031
-38.5442	432.449	18.0505
-38.5443	432.594	18.0701
-38.5419	428.775	18.0896
-38.5397	434.157	18.1091
-38.53791	430.577	18.1287
-38.5364	427.936	18.1482
-38.53516	429.723	18.1677
-38.5328	435.012	18.1873
-38.5318	429.691	18.2068
-38.53006	429.755	18.2263
-38.5272	430.3031	18.24585
-38.5278	431.15	18.2654
-38.5244	426.345	18.2849
-38.5231	432.846	18.3044
-38.5214	430.71	18.324
-38.5196	428.464	18.3435
-38.5195	429.757	18.363
-38.5156	433.103	18.3826
-38.5162	425.578	18.4021
-38.51329	430.778	18.4216
-38.5114	433.858	18.4412
-38.5103	425.5842	18.4607
-38.5092	427.436	18.4802
-38.507	433.441	18.4998
-38.5051	428.887	18.5193
-38.5038	428.106	18.5388
-38.50214	434.407	18.55835
-38.501	425.3165	18.5779
-38.4988	427.402	18.5974
-38.4967	433.831	18.6169
-38.4957	432	18.6365
-38.4936	424.883	18.656
-38.4923	433.096	18.6755
-38.4901	428.686	18.6951
-38.4885	428.0224	18.7146
-38.4863	429.959	18.7341
-38.48637	432.249	18.7537
-38.4849	427.6459	18.7732
-38.4827	429.461	18.7927
-38.4811	429.803	18.8123
-38.4794	427.451	18.8318
-38.4778	427.002	18.8513
-38.4763	433.451	18.87085
-38.4747	428.915	18.8904
-38.4726	426.387	18.9099
-38.47118	429.798	18.9294
-38.4702	432.152	18.949
-38.4679	426.411	18.9685
-38.4669	430.368	18.988
-38.4646	432.342	19.0076
-38.4632	426.023	19.0271
-38.4625	428.603	19.0466
-38.4594	431.8746	19.0662
-38.4582	425.812	19.0857
-38.45575	427.591	19.1052
-38.4561	435.119	19.1248
-38.4532	426.595	19.1443
-38.4522	424.887	19.1638
-38.4498	431.358	19.18335
-38.4486	428.637	19.2029
-38.4469	426.098	19.2224
-38.4456	433.523	19.2419
-38.4442	424.957	19.2615
-38.4417	427.059	19.281
-38.44	430.001	19.3005
-38.4378	431.636	19.3201
-38.4372	424.912	19.3396
-38.4353	431.309	19.3591
-38.4345	429.106	19.3787
-38.4323	427.728	19.3982
-38.4311	426.569	19.4177
-38.4293	431.567	19.4373
-38.4267	427.201	19.4568
-38.4268	427.024	19.4763
-38.423	428.651	19.49585
-38.4217	428.334	19.5154
-38.4209	425.203	19.5349
-38.4174	431.658	19.5544
-38.4169	430.388	19.574
-38.4166	423.386	19.5935
-38.41452	426.588	19.613
-38.4127	429.904	19.6326
-38.41074	425.731	19.6521
-38.40947	428.559	19.6716
-38.4075	432.415	19.6912
-38.4072	423.515	19.7107
-38.4044	428.016	19.7302
-38.4024	431.553	19.7498
-38.4009	426.393	19.7693
-38.3994	425.875	19.7888
-38.3991	432.914	19.80835
-38.3965	423.961	19.8279
-38.3942	425.857	19.8474
-38.3936	428.963	19.8669
-38.3918	429.0802	19.8865
-38.3901	425.368	19.906
-38.3881	431.039	19.9255
-38.38596	424.686	19.9451
-38.3848	425.648	19.9646
-38.3837	428.304	19.9841
-38.3817	432.1947	20.0037
-38.3815	426.992	20.0134

Data Header:			0.254_hd_dimension_typeiv_090_r0			Time:	32.2192	s	4/14/2019 12:28:20 AM
Data Acquisition:	Timed
Station Name:	ft40.cfg
Test File Name:	monotonic_0.2540_typeiv_hd_090_dimension.tst
Displacement	Force	Running Time
mm	N	s
-38.3805	425.05	20.0232
-38.3795	424.018	20.033
-38.3788	426.683	20.0427
-38.3776	431.179	20.05249
-38.3761	427.7074	20.0623
-38.3758	426.997	20.072
-38.3754	428.109	20.0818
-38.3749	423.4567	20.0916
-38.3746	423.9903	20.1013
-38.3727	425.536	20.1111
-38.3727	428.934	20.12085
-38.3707	430.351	20.1306
-38.371	426.798	20.1404
-38.36911	421.918	20.1501
-38.3675	426.496	20.1599
-38.368	428.15	20.1697
-38.3665	428.407	20.1794
-38.3666	430.853	20.1892
-38.3658	427.786	20.199
-38.3648	426.861	20.20874
-38.3639	424.772	20.2185
-38.3627	422.057	20.2283
-38.36277	428.215	20.238
-38.3608	432.279	20.2478
-38.35989	429.544	20.2576
-38.3596	425.315	20.2673
-38.3586	422.809	20.2771
-38.3586	425.243	20.2869
-38.356	426.47	20.2966
-38.356	431.578	20.3064
-38.3559	429.387	20.3162
-38.3554	425.41	20.3259
-38.3545	424.215	20.3357
-38.3529	420.1203	20.3455
-38.3525	426.29	20.3552
-38.35202	431.179	20.36499
-38.3516	430.516	20.3748
-38.3502	427.705	20.3845
-38.3485	421.875	20.3943
-38.3473	424.292	20.4041
-38.34877	425.841	20.4138
-38.347	428.561	20.4236
-38.3458	430.752	20.43335
-38.3452	429.42	20.4431
-38.3449	427.061	20.4529
-38.3432	421.112	20.4626
-38.3429	424.287	20.4724
-38.342	428.243	20.4822
-38.3406	431.622	20.4919
-38.3407	428.28	20.5017
-38.33989	424.327	20.5115
-38.3386	422.261	20.52124
-38.33773	425.608	20.531
-38.3368	428.21	20.5408
-38.3356	426.937	20.5505
-38.336	428.452	20.5603
-38.3353	430.871	20.5701
-38.3327	422.035	20.5798
-38.3333	426.18	20.5896
-38.3329	425.095	20.5994
-38.3314	429.23	20.6091
-38.33012	429.872	20.6189
-38.3289	425.16	20.6287
-38.3282	427.229	20.6384
-38.3279	422.899	20.6482
-38.32711	425.271	20.658
-38.3267	427.5842	20.6677
-38.3249	426.346	20.67749
-38.3236	429.925	20.6873
-38.3237	426.8606	20.697
-38.3229	422.875	20.7068
-38.3224	423.6998	20.7166
-38.3216	424.11	20.7263
-38.3217	430.254	20.7361
-38.3189	426.672	20.74585
-38.3189	427.496	20.7556
-38.3186	426.508	20.7654
-38.3176	423.71	20.7751
-38.3165	422.75	20.7849
-38.3156	423.933	20.7947
-38.3152	428.007	20.8044
-38.3134	430.467	20.8142
-38.3129	426.106	20.824
-38.3128	422.846	20.83374
-38.3113	421.853	20.8435
-38.3106	424.456	20.8533
-38.3092	427.854	20.863
-38.3095	428.918	20.8728
-38.3092	428.393	20.8826
-38.3078	426.4129	20.8923
-38.307	421.99	20.9021
-38.3055	422.302	20.9119
-38.3054	427.583	20.9216
-38.30447	431.071	20.9314
-38.3029	432.128	20.9412
-38.3027	425.195	20.9509
-38.3015	420.861	20.9607
-38.30286	424.149	20.9705
-38.3001	426.008	20.9802
-38.30019	430.4769	20.98999
-38.2983	429.2666	20.9998
-38.298	426.809	21.0095
-38.2957	426.645	21.0193
-38.2952	421.109	21.0291
-38.29546	425.888	21.0388
-38.294	428.589	21.0486
-38.2938	430.286	21.05835
-38.2927	429.752	21.0681
-38.2918	422.966	21.0779
-38.2917	422.293	21.0876
-38.2897	426.132	21.0974
-38.2903	427.147	21.1072
-38.2881	428.074	21.1169
-38.2886	427.108	21.1267
-38.2866	427.66	21.1365
-38.2879	421.851	21.14624
-38.2864	422.3797	21.156
-38.2852	426.1037	21.1658
-38.2853	429.602	21.1755
-38.2837	429.068	21.1853
-38.2828	425.864	21.1951
-38.2818	423.8017	21.2048
-38.2803	424.684	21.2146
-38.281	425.254	21.2244
-38.2786	425.4744	21.2341
-38.2782	428.4765	21.2439
-38.2774	427.818	21.2537
-38.2761	426.014	21.2634
-38.2758	423.462	21.2732
-38.2752	422.817	21.283
-38.2744	426.379	21.2927
-38.2724	428.911	21.30249
-38.2729	426.385	21.3123
-38.2715	427.295	21.322
-38.2709	425.614	21.3318
-38.2696	423.056	21.3416
-38.2691	425.175	21.3513
-38.2688	425.858	21.3611
-38.2671	429.732	21.37085
-38.2666	428.11	21.3806
-38.2664	425.416	21.3904
-38.26548	422.214	21.4001
-38.26569	420.927	21.4099
-38.2634	428.897	21.4197
-38.2623	427.809	21.4294
-38.2619	429.023	21.4392
-38.2606	426.656	21.449
-38.2613	422.617	21.45874
-38.2585	422.0481	21.4685
-38.259	422.4	21.4783
-38.2585	426.198	21.488
-38.2571	431.598	21.4978
-38.2566	427.503	21.5076
-38.2556	423.252	21.5173
-38.2559	419.877	21.5271
-38.2546	424.01	21.5369
-38.253	429.002	21.5466
-38.2516	432.044	21.5564
-38.2512	428.674	21.5662
-38.251	425.979	21.5759
-38.2503	423.517	21.5857
-38.25058	420.427	21.5955
-38.2487	425.4	21.6052
-38.2468	429.26	21.61499
-38.2458	431.6311	21.6248
-38.2458	426.386	21.6345
-38.2446	421.598	21.6443
-38.2435	422.985	21.6541
-38.2435	425.658	21.6638
-38.2426	428.332	21.6736
-38.2422	428.232	21.68335
-38.2418	427.2746	21.6931
-38.2408	426.7486	21.7029
-38.23938	418.8764	21.7126
-38.2382	423.802	21.7224
-38.2381	427.385	21.7322
-38.2369	429.333	21.7419
-38.2359	429.776	21.7517
-38.235	420.615	21.7615
-38.2348	423.57	21.77124
-38.2336	423.274	21.781
-38.2334	424.797	21.7908
-38.2318	426.659	21.8005
-38.2302	427.075	21.8103
-38.2301	426.751	21.8201
-38.2296	424.445	21.8298
-38.22937	421.803	21.8396
-38.2278	423.217	21.8494
-38.2277	427.241	21.8591
-38.2254	429.768	21.8689
-38.2255	425.31	21.8787
-38.2249	426.1283	21.8884
-38.2233	423.813	21.8982
-38.22337	425.185	21.908
-38.2224	423.51	21.9177
-38.222	426.114	21.92749
-38.2212	426.986	21.9373
-38.2196	427.73	21.947
-38.2187	425.664	21.9568
-38.2178	422.331	21.9666
-38.21793	424.318	21.9763
-38.2171	427.797	21.9861
-38.2157	426.5061	21.99585
-38.2142	428.534	22.0056
-38.2143	424.914	22.0154
-38.2134	423.6	22.0251
-38.2119	423.807	22.0349
-38.211	422.858	22.0447
-38.2111	428.596	22.0544
-38.21048	429.323	22.0642
-38.2091	426.6474	22.074
-38.2084	421.401	22.08374
-38.2081	418.938	22.0935
-38.2066	424.753	22.1033
-38.206	426.51	22.113
-38.2052	428.896	22.1228
-38.2037	427.653	22.1326
-38.2032	422.921	22.1423
-38.2018	422.223	22.1521
-38.2009	421.732	22.1619
-38.20071	424.448	22.1716
-38.2007	429.244	22.1814
-38.1985	429.278	22.1912
-38.1988	424.661	22.2009
-38.198	419.227	22.2107
-38.1968	420.804	22.2205
-38.1948	428.336	22.2302
-38.1952	430.478	22.23999
-38.1941	426.968	22.2498
-38.1935	425	22.2595
-38.1927	423.272	22.2693
-38.19186	418.697	22.2791
-38.1915	425.079	22.2888
-38.1903	427.254	22.2986
-38.18996	430.48	22.30835
-38.1887	426.555	22.3181
-38.1884	421.741	22.3279
-38.1875	421.955	22.3376
-38.1869	423.3801	22.3474
-38.1852	428.384	22.3572
-38.1851	427.199	22.3669
-38.18438	427.651	22.3767
-38.1825	425.562	22.3865
-38.182	422.826	22.39624
-38.1811	422.248	22.406
-38.1807	423.311	22.4158
-38.1798	428.062	22.4255
-38.1794	430.4	22.4353
-38.1786	422.929	22.4451
-38.1772	424.322	22.4548
-38.1769	423.491	22.4646
-38.1763	424.9866	22.4744
-38.1757	426.317	22.4841
-38.1735	426.156	22.4939
-38.1742	426.013	22.5037
-38.172	426.775	22.5134
-38.1708	421.708	22.5232
-38.171	421.442	22.533
-38.1706	424.861	22.5427
-38.1689	427.948	22.55249
-38.1696	427.763	22.5623
-38.1677	424.787	22.572
-38.1662	422.989	22.5818
-38.1666	423.481	22.5916
-38.1658	423.86	22.6013
-38.1647	424.697	22.6111
-38.1632	428.9075	22.62085
-38.1621	428.716	22.6306
-38.162	425.87	22.6404
-38.1619	420.071	22.6501
-38.1606	421.014	22.6599
-38.1597	425.257	22.6697
-38.1577	426.73	22.6794
-38.157	428.084	22.6892
-38.1571	424.5434	22.699
-38.1562	423.8634	22.70874
-38.1553	422.699	22.7185
-38.156	421.143	22.7283
-38.1528	428.354	22.738
-38.1532	428.434	22.7478
-38.1521	427.39	22.7576
-38.1523	423.665	22.7673
-38.1514	419.409	22.7771
-38.1497	423.548	22.7869
-38.1496	425.396	22.7966
-38.1478	428.305	22.8064
-38.1473	427.818	22.8162
-38.146	422.967	22.8259
-38.14608	422.799	22.8357
-38.1439	418.663	22.8455
-38.1435	425.732	22.8552
-38.1434	428.032	22.86499
-38.14267	430.23	22.8748
-38.1414	426.383	22.8845
-38.1409	420.136	22.8943
-38.1407	420.494	22.9041
-38.1386	425.988	22.9138
-38.1381	426.045	22.9236
-38.1382	427.403	22.93335
-38.137	426.463	22.9431
-38.1346	424.66	22.9529
-38.1351	421.453	22.9626
-38.1349	422.9639	22.9724
-38.1343	425.45	22.9822
-38.1318	429.82	22.9919
-38.1309	428.241	23.0017
-38.131	422.083	23.0115
-38.1302	421.864	23.02124
-38.1294	421.166	23.031
-38.129	427.548	23.0408
-38.128	426.013	23.0505
-38.1276	424.967	23.0603
-38.1255	426.639	23.0701
-38.1255	423.001	23.0798
-38.1241	422.83	23.0896
-38.124	421.102	23.0994
-38.1241	425.457	23.1091
-38.1215	429.952	23.1189
-38.12146	424.979	23.1287
-38.12	425.972	23.1384
-38.1193	423.162	23.1482
-38.1191	421.927	23.158
-38.1173	425.851	23.1677
-38.11705	424.84	23.17749
-38.1151	428.315	23.1873
-38.116	427.501	23.197
-38.1141	422.865	23.2068
-38.11425	421.6835	23.2166
-38.11348	421.418	23.2263
-38.1116	428.103	23.2361
-38.1118	426.8	23.24585
-38.1114	427.418	23.2556
-38.1095	424.9689	23.2654
-38.1097	421.903	23.2751
-38.108	422.742	23.2849
-38.10696	422.9	23.2947
-38.1071	427.1037	23.3044
-38.1049	428.898	23.3142
-38.105	426.9407	23.324
-38.1044	420.65	23.33374
-38.10368	420.064	23.3435
-38.1033	423.379	23.3533
-38.1021	426.412	23.363
-38.1001	429.944	23.3728
-38.1001	422.746	23.3826
-38.0998	424.94	23.3923
-38.0982	422.537	23.4021
-38.0982	419.352	23.4119
-38.0959	426.959	23.4216
-38.0965	429.884	23.4314
-38.0948	429.819	23.4412
-38.0943	424.517	23.4509
-38.093	418.959	23.4607
-38.0927	421.278	23.4705
-38.0926	426.909	23.4802
-38.0918	429.452	23.48999
-38.09066	427.7774	23.4998
-38.0892	423.449	23.5095
-38.0894	425.397	23.5193
-38.0868	419.405	23.5291
-38.0864	424.09	23.5388
-38.0876	427.431	23.5486
-38.0863	429.683	23.55835
-38.0849	427.5509	23.5681
-38.0833	422.047	23.5779
-38.0834	421.116	23.5876
-38.0822	424.876	23.5974
-38.081	425.948	23.6072
-38.0801	427.92	23.6169
-38.0798	425.631	23.6267
-38.0788	425.085	23.6365
-38.07835	422.151	23.64624
-38.0764	422.4537	23.656
-38.0767	422.822	23.6658
-38.0764	427.346	23.6755
-38.0752	428.2374	23.6853
-38.0726	424.818	23.6951
-38.0728	423.324	23.7048
-38.0716	422.805	23.7146
-38.0722	425.5719	23.7244
-38.0705	425.366	23.7341
-38.0698	424.833	23.7439
-38.06876	427.048	23.7537
-38.06839	424.885	23.7634
-38.0683	422.7926	23.7732
-38.0678	419.796	23.783
-38.0657	423.96	23.7927
-38.0647	429.051	23.80249
-38.0651	424.367	23.8123
-38.0639	426.175	23.822
-38.0635	422.5545	23.8318
-38.0627	421.468	23.8416
-38.0613	424.07	23.8513
-38.0599	422.886	23.8611
-38.0599	427.693	23.87085
-38.0584	429.292	23.8806
-38.05875	424.155	23.8904
-38.0573	420.012	23.9001
-38.0551	418.999	23.9099
-38.0556	424.608	23.9197
-38.0542	427.714	23.9294
-38.0537	425.64	23.9392
-38.0533	423.134	23.949
-38.0518	422.3967	23.95874
-38.0518	422.316	23.9685
-38.0508	420.884	23.9783
-38.04932	426.24	23.988
-38.0487	427.954	23.9978
-38.0488	427.186	24.0076
-38.047	422.942	24.0173
-38.0474	419.077	24.0271
-38.0459	420.722	24.0369
-38.0451	425.585	24.0466
-38.0452	428.724	24.0564
-38.0431	426.484	24.0662
-38.0425	422.824	24.0759
-38.0411	421.542	24.0857
-38.0403	418.993	24.0955
-38.0399	425.208	24.1052
-38.0389	427.308	24.11499
-38.0386	429.752	24.1248
-38.0362	425.975	24.1345
-38.0369	420.014	24.1443
-38.0358	420.737	24.1541
-38.0349	424.852	24.1638
-38.03434	427.0336	24.1736
-38.0337	427.316	24.18335
-38.0333	423.74	24.1931
-38.0312	424.534	24.2029
-38.0314	421.0332	24.2126
-38.0297	421.2774	24.2224
-38.0289	424.067	24.2322
-38.02774	426.677	24.2419
-38.0271	428.083	24.2517
-38.0252	420.78	24.2615
-38.0258	420.11	24.27124
-38.0248	423.7757	24.281
-38.0241	425.365	24.2908
-38.0224	426.089	24.3005
-38.0228	425.506	24.3103
-38.0218	424.34	24.3201
-38.0212	424.2753	24.3298
-38.0208	421.828	24.3396
-38.0198	420.711	24.3494
-38.0193	424.734	24.3591
-38.0177	427.338	24.3689
-38.0175	424.73	24.3787
-38.0161	424.314	24.3884
-38.0153	420.61	24.3982
-38.0154	423.5643	24.408
-38.0129	422.772	24.4177
-38.0131	423.0412	24.42749
-38.0119	427.233	24.4373
-38.01054	424.836	24.447
-38.0096	423.913	24.4568
-38.0107	419.382	24.4666
-38.0098	420.7966	24.4763
-38.0084	426.22	24.4861
-38.0068	426.566	24.49585
-38.0067	427.804	24.5056
-38.006	420.942	24.5154
-38.0052	419.39	24.5251
-38.0043	421.63	24.5349
-38.0027	420.509	24.5447
-38.0018	427.022	24.5544
-38.0018	426.55	24.5642
-38.00053	425.252	24.574
-38.0004	420.828	24.58374
-37.9998	416.918	24.5935
-37.9978	423.22	24.6033
-37.998	426.939	24.613
-37.9974	426.726	24.6228
-37.996	425.514	24.6326
-37.9958	421.301	24.6423
-37.9944	419.1319	24.6521
-37.9935	419.471	24.6619
-37.9922	423.6713	24.6716
-37.9923	429.17	24.6814
-37.9911	427.7952	24.6912
-37.9911	422.398	24.7009
-37.98938	418.54	24.7107
-37.9878	418.323	24.7205
-37.9877	425.283	24.7302
-37.9872	427.018	24.73999
-37.9862	426.105	24.7498
-37.9852	423.206	24.7595
-37.9849	421.611	24.7693
-37.9847	419.072	24.7791
-37.984	421.687	24.7888
-37.9815	423.557	24.7986
-37.9808	427.483	24.80835
-37.9802	426.855	24.8181
-37.98069	419.487	24.8279
-37.9784	420.214	24.8376
-37.9785	420.798	24.8474
-37.9767	424.819	24.8572
-37.976	424.914	24.8669
-37.9757	424.545	24.8767
-37.9743	424.36	24.8865
-37.9738	421.563	24.89624
-37.9728	420.048	24.906
-37.9717	419.809	24.9158
-37.9716	423.381	24.9255
-37.9717	427.007	24.9353
-37.97	421.16	24.9451
-37.9693	419.886	24.9548
-37.9679	419.181	24.9646
-37.9681	420.604	24.9744
-37.9678	424.037	24.9841
-37.9665	422.817	24.9939
-37.96529	422.209	25.0037
-37.9647	424.3356	25.0134
-37.9631	419.802	25.0232
-37.9638	418.023	25.033
-37.9612	420.585	25.0427
-37.9609	427.017	25.05249
-37.9602	425.428	25.0623
-37.9586	421.363	25.072
-37.9579	418.849	25.0818
-37.9572	419.899	25.0916
-37.9577	422.197	25.1013
-37.9564	421.595	25.1111
-37.9546	425.281	25.12085
-37.9531	426.283	25.1306
-37.9536	424.666	25.1404
-37.9524	418.046	25.1501
-37.9522	417.195	25.1599
-37.9521	422.713	25.1697
-37.9509	426.557	25.1794
-37.9497	427.3931	25.1892
-37.9489	421.4838	25.199
-37.9476	419.139	25.20874
-37.9474	419.855	25.2185
-37.9469	417.785	25.2283
-37.9454	426.608	25.238
-37.9443	426.8905	25.2478
-37.9436	425.685	25.2576
-37.9426	421.504	25.2673
-37.9429	414.2829	25.2771
-37.9409	421.106	25.2869
-37.9414	424.361	25.2966
-37.94	426.616	25.3064
-37.9389	426.053	25.3162
-37.9384	419.568	25.3259
-37.9366	420.065	25.3357
-37.9377	418.763	25.3455
-37.9353	422.374	25.3552
-37.935	426.204	25.36499
-37.9333	425.074	25.3748
-37.9335	424.804	25.3845
-37.9321	417.731	25.3943
-37.9312	419.138	25.4041
-37.93	421.767	25.4138
-37.9299	425.709	25.4236
-37.9284	424.708	25.43335
-37.9283	422.875	25.4431
-37.9267	421.456	25.4529
-37.9276	420.161	25.4626
-37.9259	420.898	25.4724
-37.9251	421.952	25.4822
-37.9242	426.689	25.4919
-37.9232	425.337	25.5017
-37.9221	421.406	25.5115
-37.92276	419.658	25.52124
-37.9212	419.291	25.531
-37.9204	422.762	25.5408
-37.9196	426.019	25.5505
-37.9188	423.051	25.5603
-37.9171	423.214	25.5701
-37.9165	421.649	25.5798
-37.9161	422.111	25.5896
-37.9157	420.6311	25.5994
-37.9154	421.39	25.6091
-37.9143	427.716	25.6189
-37.9134	423.651	25.6287
-37.9128	422.321	25.6384
-37.9109	419.359	25.6482
-37.9107	419.823	25.658
-37.9101	423.597	25.6677
-37.9087	422.298	25.67749
-37.90765	425.223	25.6873
-37.90696	425.556	25.697
-37.9065	420.341	25.7068
-37.9062	418.884	25.7166
-37.9048	418.3208	25.7263
-37.90387	423.811	25.7361
-37.9043	426.901	25.74585
-37.903	425.0639	25.7556
-37.90086	420.7291	25.7654
-37.9016	418.986	25.7751
-37.8988	419.77	25.7849
-37.8986	420.546	25.7947
-37.8984	424.67	25.8044
-37.8967	424.383	25.8142
-37.8964	424.572	25.824
-37.8971	418.973	25.83374
-37.8944	415.96	25.8435
-37.8947	421.7775	25.8533
-37.8927	426.411	25.863
-37.892	427.028	25.8728
-37.8915	421.807	25.8826
-37.8907	419.054	25.8923
-37.89027	421.918	25.9021
-37.8891	417.987	25.9119
-37.88773	425.359	25.9216
-37.8879	425.349	25.9314
-37.8871	426.21	25.9412
-37.8861	422.879	25.9509
-37.8847	415.8	25.9607
-37.8842	419.062	25.9705
-37.8842	423.196	25.9802
-37.8826	426.199	25.98999
-37.88253	424.726	25.9998
-37.8824	420.716	26.0095
-37.8797	419.146	26.0193
-37.88	418.979	26.0291
-37.8786	417.838	26.0388
-37.878	424.277	26.0486
-37.8778	425.313	26.05835
-37.8762	424.014	26.0681
-37.8742	419.524	26.0779
-37.87442	418.033	26.0876
-37.8745	420.764	26.0974
-37.8727	421.9494	26.1072
-37.8713	423.533	26.1169
-37.8724	421.384	26.1267
-37.8708	422.889	26.1365
-37.8694	421.632	26.14624
-37.8694	418.448	26.156
-37.8671	419.216	26.1658
-37.8668	424.268	26.1755
-37.8662	425.924	26.1853
-37.8659	422.6113	26.1951
-37.8645	422.2	26.2048
-37.8638	416.371	26.2146
-37.8633	422.166	26.2244
-37.8623	423.189	26.2341
-37.862	421.744	26.2439
-37.8612	424.038	26.2537
-37.8613	422.704	26.2634
-37.859	420.594	26.2732
-37.8587	417.8074	26.283
-37.8575	417.771	26.2927
-37.8573	424.359	26.30249
-37.8564	424.649	26.3123
-37.856	422.391	26.322
-37.854	418.697	26.3318
-37.8532	417.639	26.3416
-37.8513	421.618	26.3513
-37.8523	420.806	26.3611
-37.8495	425.694	26.37085
-37.8498	426.089	26.3806
-37.8488	422.096	26.3904
-37.8486	419.565	26.4001
-37.8481	416.197	26.4099
-37.8461	420.768	26.4197
-37.8464	426.356	26.4294
-37.8452	425.846	26.4392
-37.8434	421.625	26.449
-37.84388	418.22	26.45874
-37.84362	420.029	26.4685
-37.8427	420.604	26.4783
-37.8412	425.414	26.488
-37.8405	426.303	26.4978
-37.8397	423.974	26.5076
-37.838	419.609	26.5173
-37.8392	415.691	26.5271
-37.8371	419.802	26.5369
-37.8352	424.221	26.5466
-37.83456	428.127	26.5564
-37.8349	423.646	26.5662
-37.8349	418.974	26.5759
-37.8321	418.29	26.5857
-37.8322	418.983	26.5955
-37.8317	421.773	26.6052
-37.8304	423.299	26.61499
-37.8306	425.429	26.6248
-37.8287	423.3063	26.6345
-37.829	415.498	26.6443
-37.8281	419.209	26.6541
-37.8267	421.552	26.6638
-37.8262	424.932	26.6736
-37.8241	426.478	26.68335
-37.82534	420.429	26.6931
-37.8231	421.276	26.7029
-37.8227	421.271	26.7126
-37.8215	418.176	26.7224
-37.8213	422.177	26.7322
-37.8203	423.1561	26.7419
-37.8194	425.893	26.7517
-37.8183	421.284	26.7615
-37.8178	418.37	26.77124
-37.8164	420.556	26.781
-37.8162	422.893	26.7908
-37.8151	423.91	26.8005
-37.8147	423.589	26.8103
-37.8134	423.522	26.8201
-37.8132	422.554	26.8298
-37.8121	419.247	26.8396
-37.81126	418.271	26.8494
-37.8111	420.508	26.8591
-37.8097	424.724	26.8689
-37.8085	424.358	26.8787
-37.8077	422.639	26.8884
-37.8076	416.179	26.8982
-37.8058	420.139	26.908
-37.80574	421.547	26.9177
-37.804	421.433	26.92749
-37.8037	424.851	26.9373
-37.8042	423.7345	26.947
-37.802	420.834	26.9568
-37.8017	415.727	26.9666
-37.8006	417.3605	26.9763
-37.7984	425.2413	26.9861
-37.7992	425.549	26.99585
-37.7977	424.591	27.0056
-37.7973	419.317	27.0154
-37.7968	416.3063	27.0251
-37.796	422.661	27.0349
-37.7961	418.856	27.0447
-37.79427	425.682	27.0544
-37.793	426.24	27.0642
-37.7919	421.901	27.074
-37.792	419.6185	27.08374
-37.7909	415.363	27.0935
-37.7897	419.596	27.1033
-37.7892	425.511	27.113
-37.7877	424.451	27.1228
-37.7874	422.563	27.1326
-37.7851	418.202	27.1423
-37.7869	418.929	27.1521
-37.7842	419.749	27.1619
-37.7843	423.0885	27.1716
-37.7836	425.685	27.1814
-37.7825	426.2482	27.1912
-37.7805	421.509	27.2009
-37.7812	417.772	27.2107
-37.7803	417.2074	27.2205
-37.7796	422.5209	27.2302
-37.7779	425.436	27.23999
-37.7781	423.106	27.2498
-37.7769	419.358	27.2595
-37.7763	419.028	27.2693
-37.7751	418.123	27.2791
-37.7752	421.937	27.2888
-37.7726	421.109	27.2986
-37.7729	424.404	27.30835
-37.7713	424.12	27.3181
-37.7717	416.887	27.3279
-37.7702	418.4808	27.3376
-37.7712	417.834	27.3474
-37.76926	422.491	27.3572
-37.7672	423.481	27.3669
-37.7676	419.325	27.3767
-37.7667	423.134	27.3865
-37.7659	419.171	27.39624
-37.7649	419.31	27.406
-37.7643	418.932	27.4158
-37.7627	421.011	27.4255
-37.7621	424.886	27.4353
-37.7607	422.055	27.4451
-37.7601	419.84	27.4548
-37.7603	416.959	27.4646
-37.7589	418.273	27.4744
-37.75914	423.4097	27.4841
-37.7569	421.792	27.4939
-37.7573	422.257	27.5037
-37.7559	422.742	27.5134
-37.7559	417.376	27.5232
-37.755	416.585	27.533
-37.7535	418.934	27.5427
-37.7519	422.157	27.55249
-37.7525	424.6626	27.5623
-37.75037	423.358	27.572
-37.7506	418.051	27.5818
-37.7497	417.591	27.5916
-37.7481	419.607	27.6013
-37.7481	420.935	27.6111
-37.747	424.356	27.62085
-37.7453	423.559	27.6306
-37.7454	422.02	27.6404
-37.7445	417.549	27.6501
-37.7442	415.74	27.6599
-37.7436	420.065	27.6697
-37.7427	426.274	27.6794
-37.7414	428.164	27.6892
-37.7405	420.563	27.699
-37.7398	416.231	27.70874
-37.7383	420.033	27.7185
-37.7368	418.789	27.7283
-37.7368	425.061	27.738
-37.7358	423.899	27.7478
-37.7361	423.983	27.7576
-37.7353	420.361	27.7673
-37.7325	413.183	27.7771
-37.7326	417.247	27.7869
-37.7322	424.391	27.7966
-37.7311	424.613	27.8064
-37.7296	424.581	27.8162
-37.7315	417.098	27.8259
-37.7292	417.303	27.8357
-37.7282	419.2	27.8455
-37.7271	420.568	27.8552
-37.7275	422.275	27.86499
-37.7257	425.147	27.8748
-37.7252	421.03	27.8845
-37.7238	417.6875	27.8943
-37.7242	416.143	27.9041
-37.7229	419.102	27.9138
-37.7224	424.16	27.9236
-37.7207	423.815	27.93335
-37.7193	421.221	27.9431
-37.7198	418.996	27.9529
-37.7191	418.181	27.9626
-37.7179	420.123	27.9724
-37.7164	419.417	27.9822
-37.7157	423.166	27.9919
-37.7153	424.505	28.0017
-37.7139	419.219	28.0115
-37.7121	420.316	28.02124
-37.7117	417.005	28.031
-37.7116	421.357	28.0408
-37.7097	424.198	28.0505
-37.7082	419.3222	28.0603
-37.7095	422.613	28.0701
-37.7083	420.704	28.0798
-37.708	418.66	28.0896
-37.7076	418.291	28.0994
-37.7066	418.658	28.1091
-37.7052	424.135	28.1189
-37.7048	423.206	28.1287
-37.7039	419.41	28.1384
-37.70322	417.428	28.1482
-37.7017	416.378	28.158
-37.7005	421.529	28.1677
-37.701	422.114	28.17749
-37.6995	423.677	28.1873
-37.6992	422.332	28.197
-37.6982	419.4212	28.2068
-37.6968	417.218	28.2166
-37.6956	418.144	28.2263
-37.6966	419.604	28.2361
-37.6948	427.668	28.24585
-37.6939	422.32	28.2556
-37.6933	416.777	28.2654
-37.6923	416.991	28.2751
-37.6915	418.33	28.2849
-37.6908	420.11	28.2947
-37.6899	425.31	28.3044
-37.6887	422.33	28.3142
-37.6885	422.763	28.324
-37.6887	418.369	28.33374
-37.6871	416.0802	28.3435
-37.6865	420.894	28.3533
-37.6856	421.401	28.363
-37.68428	426.62	28.3728
-37.6828	420.719	28.3826
-37.6831	415.552	28.3923
-37.6808	416.827	28.4021
-37.6817	419.426	28.4119
-37.6793	422.707	28.4216
-37.6804	424.129	28.4314
-37.6783	422.704	28.4412
-37.6774	421.029	28.4509
-37.6778	414.6821	28.4607
-37.6772	416.73	28.4705
-37.6761	419.1037	28.4802
-37.6757	424.3797	28.48999
-37.6726	424.599	28.4998
-37.6733	417.752	28.5095
-37.6722	417.16	28.5193
-37.6703	418.29	28.5291
-37.6704	418.078	28.5388
-37.66951	421.922	28.5486
-37.6677	422.574	28.55835
-37.6687	422.099	28.5681
-37.667	418.081	28.5779
-37.667	416.341	28.5876
-37.6657	418.466	28.5974
-37.6649	421.996	28.6072
-37.6641	422.037	28.6169
-37.6625	421.2204	28.6267
-37.66222	419.114	28.6365
-37.6615	419.172	28.64624
-37.66	419.156	28.656
-37.6604	417.831	28.6658
-37.6591	421.634	28.6755
-37.6577	423.616	28.6853
-37.6578	420.739	28.6951
-37.6567	419.752	28.7048
-37.656	415.74	28.7146
-37.6539	418.646	28.7244
-37.6535	421.492	28.7341
-37.65316	421.535	28.7439
-37.6519	422.879	28.7537
-37.6515	419.148	28.7634
-37.65062	418.234	28.7732
-37.6495	418.725	28.783
-37.64946	416.439	28.7927
-37.6488	422.516	28.80249
-37.6471	424.346	28.8123
-37.6462	422.2677	28.822
-37.6449	416.8465	28.8318
-37.6461	413.787	28.8416
-37.6446	419.488	28.8513
-37.64349	421.269	28.8611
-37.6433	423.0788	28.87085
-37.6425	422.253	28.8806
-37.6407	419.136	28.8904
-37.6395	416.2782	28.9001
-37.6393	415.3992	28.9099
-37.6398	417.779	28.9197
-37.6383	424.214	28.9294
-37.637	425.444	28.9392
-37.63628	419.265	28.949
-37.63599	415.294	28.95874
-37.6344	416.314	28.9685
-37.63525	418.744	28.9783
-37.633	423.027	28.988
-37.6322	422.442	28.9978
-37.6312	421.517	29.0076
-37.6295	416.913	29.0173
-37.6291	413.542	29.0271
-37.6291	418.056	29.0369
-37.6284	420.642	29.0466
-37.6278	425.294	29.0564
-37.6266	421.039	29.0662
-37.6249	416.184	29.0759
-37.6243	417.2955	29.0857
-37.6247	417.129	29.0955
-37.6227	419.586	29.1052
-37.6227	421.675	29.11499
-37.6223	422.5737	29.1248
-37.6212	422.092	29.1345
-37.62	414.365	29.1443
-37.6183	416.187	29.1541
-37.6182	417.935	29.1638
-37.6174	421.221	29.1736
-37.6174	423.353	29.18335
-37.6154	419.3685	29.1931
-37.6147	416.863	29.2029
-37.6146	417.371	29.2126
-37.6139	418.117	29.2224
-37.6134	419.169	29.2322
-37.6116	420.703	29.2419
-37.6115	423.106	29.2517
-37.6098	420.847	29.2615
-37.6102	417.636	29.27124
-37.6091	417.486	29.281
-37.6078	419.425	29.2908
-37.6067	422.763	29.3005
-37.6065	422.1871	29.3103
-37.6059	421.081	29.3201
-37.6044	419.599	29.3298
-37.60387	418.97	29.3396
-37.6028	415.731	29.3494
-37.602	418.864	29.3591
-37.6011	423.156	29.3689
-37.5996	423.428	29.3787
-37.6008	420.915	29.3884
-37.5985	414.726	29.3982
-37.5974	415.696	29.408
-37.59594	420.596	29.4177
-37.5957	419.172	29.42749
-37.5949	423.021	29.4373
-37.5938	418.821	29.447
-37.5946	419.387	29.4568
-37.5936	416.1124	29.4666
-37.5914	412.56	29.4763
-37.5914	419.4119	29.4861
-37.5912	423.252	29.49585
-37.59	423.222	29.5056
-37.5892	416.524	29.5154
-37.5878	412.111	29.5251
-37.5886	418.179	29.5349
-37.5871	419.391	29.5447
-37.58606	423.9664	29.5544
-37.5853	423.087	29.5642
-37.5845	419.036	29.574
-37.5841	417.267	29.58374
-37.581	414.064	29.5935
-37.5816	417.75	29.6033
-37.5798	422.767	29.613
-37.579	424.149	29.6228
-37.5784	421.003	29.6326
-37.57766	414.75	29.6423
-37.5776	414.6937	29.6521
-37.57687	418.926	29.6619
-37.576	419.465	29.6716
-37.5755	420.61	29.6814
-37.5737	422.32	29.6912
-37.574	418.948	29.7009
-37.5728	414.5817	29.7107
-37.572	415.858	29.7205
-37.5706	419.437	29.7302
-37.5707	424.586	29.73999
-37.5707	422.536	29.7498
-37.56765	417.285	29.7595
-37.5689	415.099	29.7693
-37.567	417.174	29.7791
-37.5668	419.201	29.7888
-37.5652	420.362	29.7986
-37.5634	420.971	29.80835
-37.5641	420.245	29.8181
-37.5633	416.4754	29.8279
-37.5621	417.911	29.8376
-37.5611	415.353	29.8474
-37.5606	419.325	29.8572
-37.5601	422.904	29.8669
-37.5572	420.854	29.8767
-37.5586	418.551	29.8865
-37.5567	418.604	29.89624
-37.5569	416.173	29.906
-37.5561	419.066	29.9158
-37.55529	418.08	29.9255
-37.5536	422.665	29.9353
-37.5532	422.082	29.9451
-37.5527	416.675	29.9548
-37.55267	414.371	29.9646
-37.5509	414.628	29.9744
-37.55043	419.647	29.9841
-37.5493	421.352	29.9939
-37.5474	422.436	30.0037
-37.5473	418.01	30.0134
-37.5457	417.858	30.0232
-37.5458	415.053	30.033
-37.5445	416.242	30.0427
-37.5444	421.04	30.05249
-37.5439	424.051	30.0623
-37.5426	422.259	30.072
-37.542	414.693	30.0818
-37.5419	413.745	30.0916
-37.5393	417.266	30.1013
-37.54	419.809	30.1111
-37.5387	423.112	30.12085
-37.5364	420.127	30.1306
-37.5366	418.421	30.1404
-37.5367	416.819	30.1501
-37.5351	413.158	30.1599
-37.5352	418.8353	30.1697
-37.53397	422.133	30.1794
-37.5331	423.571	30.1892
-37.5325	417.892	30.199
-37.5307	413.147	30.20874
-37.5306	416.261	30.2185
-37.52832	417.625	30.2283
-37.5283	420.825	30.238
-37.5275	420.907	30.2478
-37.5272	419.407	30.2576
-37.5267	418.329	30.2673
-37.5249	413.157	30.2771
-37.524	416.0285	30.2869
-37.5241	421.29	30.2966
-37.5228	421.991	30.3064
-37.5225	421.863	30.3162
-37.5215	415.395	30.3259
-37.5215	413.68	30.3357
-37.5194	417.631	30.3455
-37.5198	418.607	30.3552
-37.5192	419.212	30.36499
-37.5165	420.292	30.3748
-37.5154	417.694	30.3845
-37.5154	414.23	30.3943
-37.5143	415.882	30.4041
-37.5141	415.442	30.4138
-37.5132	420.974	30.4236
-37.5122	421.544	30.43335
-37.5107	417.136	30.4431
-37.5104	417.449	30.4529
-37.5105	414.038	30.4626
-37.5097	417.244	30.4724
-37.508	418.364	30.4822
-37.5072	417.7037	30.4919
-37.5064	421.413	30.5017
-37.5061	419.0795	30.5115
-37.5055	415.478	30.52124
-37.5044	414.052	30.531
-37.5042	416.743	30.5408
-37.5015	422.033	30.5505
-37.5018	418.243	30.5603
-37.5014	420.724	30.5701
-37.50005	415.8656	30.5798
-37.4984	415.4454	30.5896
-37.4988	415.865	30.5994
-37.4988	415.211	30.6091
-37.4959	420.527	30.6189
-37.49725	422.362	30.6287
-37.4953	418.082	30.6384
-37.4937	413.856	30.6482
-37.4935	413.341	30.658
-37.4916	418.997	30.6677
-37.4919	419.501	30.67749
-37.49094	420.2662	30.6873
-37.4911	420.134	30.697
-37.4892	415.8959	30.7068
-37.489	415.245	30.7166
-37.4887	412.397	30.7263
-37.4874	418.544	30.7361
-37.48629	422.39	30.74585
-37.4862	422.183	30.7556
-37.4841	414.845	30.7654
-37.4835	411.49	30.7751
-37.48304	414.446	30.7849
-37.482	418.37	30.7947
-37.48167	421.317	30.8044
-37.4806	418.683	30.8142
-37.47868	418.656	30.824
-37.4796	414.712	30.83374
-37.4793	410.108	30.8435
-37.4768	416.724	30.8533
-37.4759	419.124	30.863
-37.4754	420.371	30.8728
-37.4746	418.236	30.8826
-37.4752	409.6236	30.8923
-37.474	412.021	30.9021
-37.4731	414.245	30.9119
-37.4724	418.5542	30.9216
-37.4707	420.469	30.9314
-37.4709	418.001	30.9412
-37.4686	419.096	30.9509
-37.4673	411.883	30.9607
-37.4676	414.985	30.9705
-37.4667	418.4241	30.9802
-37.4663	418.469	30.98999
-37.4663	421.96	30.9998
-37.4645	413.503	31.0095
-37.4635	411.448	31.0193
-37.4631	413.396	31.0291
-37.4624	415.726	31.0388
-37.4612	417.899	31.0486
-37.4611	417.872	31.05835
-37.4592	417.978	31.0681
-37.4587	416.53	31.0779
-37.4576	412.136	31.0876
-37.45686	411.699	31.0974
-37.4563	417.699	31.1072
-37.4555	419.216	31.1169
-37.4537	417.254	31.1267
-37.4541	416.269	31.1365
-37.4533	413.6778	31.14624
-37.4523	414.841	31.156
-37.4499	414.028	31.1658
-37.4511	415.122	31.1755
-37.4494	418.158	31.1853
-37.4488	419.087	31.1951
-37.4479	415.676	31.2048
-37.4474	409.673	31.2146
-37.4468	410.751	31.2244
-37.44606	417.198	31.2341
-37.4456	416.1124	31.2439
-37.4447	418.93	31.2537
-37.4441	414.4725	31.2634
-37.4424	413.298	31.2732
-37.44054	412.626	31.283
-37.4408	410.227	31.2927
-37.44	417.955	31.30249
-37.439	418.249	31.3123
-37.4389	416.159	31.322
-37.4381	412.854	31.3318
-37.4361	408.291	31.3416
-37.43726	413.546	31.3513
-37.4354	415.776	31.3611
-37.4341	419.062	31.37085
-37.4332	415.626	31.3806
-37.4328	413.093	31.3904
-37.4323	411.669	31.4001
-37.4309	408.56	31.4099
-37.4306	413.849	31.4197
-37.4305	418.359	31.4294
-37.4289	418.77	31.4392
-37.42786	413.683	31.449
-37.4271	407.4162	31.45874
-37.4264	409.193	31.4685
-37.4249	414.901	31.4783
-37.4255	416.651	31.488
-37.4241	416.266	31.4978
-37.4233	413.444	31.5076
-37.4222	411.141	31.5173
-37.422	406.152	31.5271
-37.42115	411.213	31.5369
-37.4202	411.753	31.5466
-37.4196	416.325	31.5564
-37.41975	414.774	31.5662
-37.4169	405.888	31.5759
-37.4159	407.844	31.5857
-37.4158	407.171	31.5955
-37.4139	411.769	31.6052
-37.4132	410.885	31.61499
-37.4135	408.073	31.6248
-37.4121	408.157	31.6345
-37.4076	-129.29	31.6443
-37.4076	-44.8075	31.6541
-37.4066	-32.4707	31.6638
-37.4073	-23.1302	31.6736
-37.4072	-35.7741	31.68335
-37.4046	-44.4658	31.6931
-37.4053	-41.31657	31.7029
-37.405	-38.5928	31.7126
-37.4035	-38.3867	31.7224
-37.4031	-39.9254	31.7322
-37.4023	-37.64024	31.7419
-37.4021	-36.7479	31.7517
-37.4012	-36.43486	31.7615
-37.4002	-40.5621	31.77124
-37.399	-42.9033	31.781
-37.3983	-40.3039	31.7908
-37.3981	-36.1544	31.8005
-37.3966	-37.1224	31.8103
-37.3966	-36.4933	31.8201
-37.3961	-40.5315	31.8298
-37.3958	-39.9704	31.8396
-37.3939	-41.1359	31.8494
-37.393	-40.9987	31.8591
-37.39259	-36.8364	31.8689
-37.3912	-34.1803	31.8787
-37.3912	-37.5028	31.8884
-37.3902	-43.0748	31.8982
-37.3884	-43.5535	31.908
-37.3892	-38.7629	31.9177
-37.38969	-35.728	31.92749
-37.3874	-33.4422	31.9373
-37.3861	-39.2136	31.947
-37.3853	-40.5823	31.9568
-37.38422	-40.6953	31.9666
-37.3836	-43.7783	31.9763
-37.3828	-38.7556	31.9861
-37.382	-34.903	31.99585
-37.38084	-36.2653	32.0056
-37.3802	-38.9582	32.0154
-37.3795	-45.8167	32.0251
-37.3785	-42.0698	32.0349
-37.37664	-38.5914	32.0447
-37.3774	-35.5291	32.0544
-37.3765	-35.837	32.0642
-37.3749	-40.5297	32.074
-37.3758	-40.5309	32.08374
-37.3741	-44.1197	32.0935
-37.3714	-40.1795	32.1033
-37.3726	-35.695	32.113
-37.3718	-34.7518	32.1228
-37.37059	-38.3397	32.1326
-37.3692	-42.3982	32.1423
-37.3692	-43.29501	32.1521
-37.368	-38.1014	32.1619
-37.3678	-36.8982	32.1716
-37.3663	-36.6045	32.1814
-37.3658	-37.3284	32.1912
-37.3662	-38.3809	32.2009
-37.3654	-41.8785	32.2107