File: data/processed_data_files/tensile/0.254_hd_uprint_typei_090_r(4).dat
MTS793|BTW|ENU|1|2|.|/|:|1|0|0|A

Data Header:			0.254_hd_uprint_typei_090_r0			Time:	20.03	s	4/15/2019 3:54:51 PM
Data Acquisition:	Timed
Station Name:	ft40.cfg
Test File Name:	monotonic_0.2540_typei_hd_090_uprint.tst
Displacement	Force	Running Time
mm	N	s
9.98018	-231.33	0.0339355
9.981473	-230.448	0.0534668
9.98054	-228.409	0.072998
9.98088	-225.724	0.0925293
9.98149	-230.316	0.112061
9.98416	-234.712	0.1315918
9.98547	-225.8026	0.151123
9.987793	-229.114	0.1706543
9.98812	-231.71	0.190186
9.99024	-225.681	0.2097168
9.99264	-223.047	0.229248
9.99385	-234.023	0.2487793
9.99456	-227.194	0.268311
9.996747	-223.867	0.2878418
9.99805	-227.692	0.307373
10	-226.041	0.3269043
10.002	-219.156	0.346436
10.0037	-231.396	0.3659668
10.00438	-226.695	0.385498
10.0068	-219.246	0.4050293
10.0076	-221.561	0.424561
10.0108	-226.042	0.4440918
10.0112	-219.2292	0.463623
10.0118	-224.603	0.4831543
10.0156	-223.613	0.502686
10.0156	-219.474	0.5222168
10.0181	-218.349	0.541748
10.0201	-224.83	0.5612793
10.0208	-218.044	0.580811
10.0225	-219.2487	0.6003418
10.0245	-223.286	0.619873
10.0265	-221.05	0.6394043
10.0273	-213.537	0.658936
10.029	-219.856	0.6784668
10.03054	-220.857	0.697998
10.0335	-216.695	0.7175293
10.03473	-217.613	0.737061
10.0361	-221.001	0.7565918
10.0369	-212.479	0.776123
10.0394	-215.812	0.7956543
10.0411	-222.767	0.815186
10.0417	-212.636	0.8347168
10.0438	-211.53	0.854248
10.0444	-216.822	0.8737793
10.0467	-211.441	0.893311
10.0491	-207.7856	0.9128418
10.051	-217.3266	0.932373
10.0518	-213.557	0.9519043
10.0536	-208.745	0.971436
10.055	-212.5058	0.9909668
10.0567	-210.627	1.010498
10.05813	-203.698	1.03003
10.0604	-214.57	1.04956
10.061	-211.5618	1.06909
10.0632	-205.887	1.088623
10.0653	-204.719	1.10815
10.0664	-211.452	1.12769
10.068	-204.278	1.14722
10.0705	-207.59	1.166748
10.0728	-208.573	1.18628
10.0731	-203.582	1.20581
10.0745	-198.5002	1.22534
10.0763	-208.614	1.244873
10.07883	-202.701	1.2644
10.0801	-201.866	1.28394
10.081	-204.291	1.30347
10.0835	-205.088	1.322998
10.085	-197.681	1.34253
10.0866	-201.248	1.36206
10.0872	-205.305	1.38159
10.0893	-198.512	1.401123
10.0911	-197.77	1.42065
10.0927	-200.773	1.44019
10.0937	-193.214	1.45972
10.095	-193.063	1.479248
10.0982	-204.105	1.49878
10.0994	-196.9	1.51831
10.1007	-191.852	1.53784
10.1018	-195.875	1.557373
10.1042	-195.42	1.5769
10.1052	-188.796	1.59644
10.1066	-198.837	1.61597
10.109	-193.981	1.635498
10.1109	-186.515	1.65503
10.1121	-192.551	1.67456
10.1131	-192.881	1.69409
10.11508	-184.113	1.713623
10.1172	-192.1888	1.73315
10.1186	-191.23	1.75269
10.1205	-186.3309	1.77222
10.1213	-181.8121	1.791748
10.1241	-189.961	1.81128
10.1252	-182.167	1.83081
10.1264	-183.595	1.85034
10.1283	-186.467	1.869873
10.1293	-183.512	1.8894
10.1326	-174.841	1.90894
10.1343	-183.58	1.92847
10.1345	-184.014	1.947998
10.1361	-178.279	1.96753
10.1388	-177.798	1.98706
10.1397	-181.451	2.00659
10.1417	-175.374	2.026123
10.1427	-175.986	2.04565
10.1441	-181.669	2.06519
10.146	-176.378	2.08472
10.1474	-173.196	2.104248
10.1503	-179.233	2.12378
10.1514	-174.105	2.14331
10.1525	-167.183	2.16284
10.1553	-179.6017	2.182373
10.1563	-173.786	2.2019
10.1578	-166.762	2.22144
10.1593	-170.213	2.24097
10.1604	-173.695	2.260498
10.1629	-162.414	2.28003
10.1647	-171.64	2.29956
10.1665	-172.126	2.31909
10.1666	-161.97	2.338623
10.16789	-164.493	2.35815
10.171	-168.825	2.37769
10.1728	-160.958	2.39722
10.1744	-165.964	2.416748
10.1752	-165.548	2.43628
10.1774	-162.252	2.45581
10.1789	-157.661	2.47534
10.1807	-163.182	2.494873
10.1819	-160.805	2.5144
10.1828	-158.103	2.53394
10.1849	-160.697	2.55347
10.1875	-161.065	2.572998
10.1884	-152.132	2.59253
10.1895	-154.79	2.61206
10.1919	-159.257	2.63159
10.1937	-153.796	2.651123
10.1957	-151.313	2.67065
10.1967	-157.159	2.69019
10.1978	-149.912	2.70972
10.2	-151.115	2.729248
10.2013	-154.992	2.74878
10.2027	-149.317	2.76831
10.2052	-144.067	2.78784
10.2068	-152.233	2.807373
10.2084	-147.468	2.8269
10.20884	-141.13	2.84644
10.21198	-151.526	2.86597
10.2131	-149.881	2.885498
10.2139	-141.196	2.90503
10.2165	-144.319	2.92456
10.2176	-146.086	2.94409
10.2201	-136.815	2.963623
10.2199	-143.438	2.98315
10.2221	-143.2547	3.00269
10.2236	-135.736	3.02222
10.2261	-134.56	3.041748
10.22589	-142.031	3.06128
10.2286	-135.085	3.08081
10.2305	-135.156	3.10034
10.2325	-136.618	3.119873
10.2347	-136.337	3.1394
10.23566	-128.328	3.15894
10.2374	-134.328	3.17847
10.2388	-133.001	3.197998
10.2405	-130.652	3.21753
10.2428	-129.784	3.23706
10.2442	-133.838	3.25659
10.2457	-123.417	3.276123
10.2471	-124.805	3.29565
10.2495	-133.077	3.31519
10.2503	-125.965	3.33472
10.2523	-121.3457	3.354248
10.2535	-126.869	3.37378
10.25473	-121.628	3.39331
10.25646	-118.4286	3.41284
10.2585	-126.64	3.432373
10.2598	-123.4625	3.4519
10.2626	-115.685	3.47144
10.263	-121.19	3.49097
10.2648	-121.116	3.510498
10.267	-112.567	3.53003
10.269	-120.146	3.54956
10.2697	-119.259	3.56909
10.2716	-110.979	3.588623
10.2727	-112.638	3.60815
10.2759	-115.619	3.62769
10.2766	-106.959	3.64722
10.2777	-112.997	3.666748
10.2792	-113.455	3.68628
10.2818	-108.852	3.70581
10.2822	-104.009	3.72534
10.2842	-112.018	3.744873
10.2857	-106.309	3.7644
10.2874	-105.343	3.78394
10.2895	-106.265	3.80347
10.2898	-106.081	3.822998
10.2939	-98.437	3.84253
10.2941	-103.575	3.86206
10.2962	-104.733	3.88159
10.2979	-97.8777	3.901123
10.299	-98.9783	3.92065
10.3002	-104.582	3.94019
10.30258	-96.0697	3.95972
10.30404	-93.8077	3.979248
10.3058	-101.4686	3.99878
10.3063	-97.6072	4.01831
10.3087	-89.4322	4.03784
10.3104	-95.7	4.057373
10.3138	-94.3126	4.0769
10.3142	-85.76236	4.09644
10.3143	-95.5883	4.11597
10.3173	-92.9956	4.135498
10.3174	-84.0519	4.15503
10.3198	-88.1239	4.17456
10.3226	-91.5374	4.19409
10.3239	-80.8693	4.213623
10.326	-87.1828	4.23315
10.32698	-88.6237	4.25269
10.3287	-82.3122	4.27222
10.3301	-79.4352	4.291748
10.3316	-84.2442	4.31128
10.3339	-76.9433	4.33081
10.3341	-80.1032	4.35034
10.3374	-82.5607	4.369873
10.3381	-81.0332	4.3894
10.3408	-70.3661	4.40894
10.3422	-77.9384	4.42847
10.34366	-76.3124	4.447998
10.34461	-75.029	4.46753
10.3467	-72.2714	4.48706
10.3482	-76.05571	4.50659
10.3497	-67.0287	4.526123
10.3507	-71.8166	4.54565
10.3533	-74.9957	4.56519
10.35502	-69.3671	4.58472
10.3553	-64.5451	4.604248
10.3584	-73.3292	4.62378
10.36	-65.83	4.64331
10.36101	-60.3186	4.66284
10.3629	-68.7594	4.682373
10.3646	-66.0135	4.7019
10.3653	-58.0941	4.72144
10.3673	-64.4373	4.74097
10.3688	-62.8317	4.760498
10.3706	-52.8743	4.78003
10.3718	-61.2457	4.79956
10.3734	-63.2774	4.81909
10.3763	-53.1519	4.838623
10.3777	-52.00153	4.85815
10.3804	-59.24807	4.87769
10.38	-51.4819	4.89722
10.3818	-54.8173	4.916748
10.3829	-55.9627	4.93628
10.3856	-50.673	4.95581
10.38732	-45.1561	4.97534
10.3899	-52.4699	4.994873
10.39019	-48.0709	5.0144
10.3919	-47.4705	5.03394
10.3934	-48.3833	5.05347
10.3948	-49.9	5.072998
10.3967	-38.7568	5.09253
10.3987	-44.1085	5.11206
10.39999	-45.6511	5.13159
10.4009	-41.5219	5.151123
10.4039	-39.6851	5.17065
10.4055	-44.0387	5.19019
10.4069	-35.1178	5.20972
10.4081	-37.0187	5.229248
10.41015	-43.6518	5.24878
10.41021	-38.3864	5.26831
10.4128	-30.2	5.28784
10.4148	-38.091	5.307373
10.41636	-35.967	5.3269
10.4175	-25.9606	5.34644
10.42017	-35.9511	5.36597
10.421	-35.332	5.385498
10.4226	-26.2027	5.40503
10.4243	-30.0044	5.42456
10.4267	-31.3686	5.44409
10.4275	-22.557	5.463623
10.4293	-28.1068	5.48315
10.4311	-31.8507	5.50269
10.4333	-21.748	5.52222
10.43589	-20.2063	5.541748
10.4358	-26.3003	5.56128
10.4364	-20.4314	5.58081
10.4397	-20.5666	5.60034
10.4419	-23.9497	5.619873
10.4426	-20.7913	5.6394
10.444	-12.0232	5.65894
10.4455	-19.6887	5.67847
10.447	-18.1739	5.697998
10.4488	-13.0378	5.71753
10.4493	-14.2668	5.73706
10.4513	-18.1828	5.75659
10.4536	-6.949389	5.776123
10.4551	-9.8729	5.79565
10.4572	-15.4696	5.81519
10.4587	-9.89701	5.83472
10.461	-5.91065	5.854248
10.4608	-11.6087	5.87378
10.464	-5.73165	5.89331
10.4657	-0.56274	5.91284
10.4672	-10.02	5.932373
10.4677	-7.87301	5.9519
10.4699	3.12984	5.97144
10.47204	-4.3105	5.99097
10.4712	-3.21878	6.010498
10.4746	5.94117	6.03003
10.4764	-1.49712	6.04956
10.4781	-3.33721	6.06909
10.4796	7.8366	6.088623
10.4827	3.543	6.10815
10.4827	-0.665086	6.12769
10.4847	10.3375	6.14722
10.48608	6.01514	6.166748
10.4879	2.07198	6.18628
10.4899	8.03643	6.20581
10.4913	14.78	6.22534
10.4924	6.95026	6.244873
10.4952	12.8012	6.2644
10.4955	12.1626	6.28394
10.4977	11.6002	6.30347
10.4986	10.6899	6.322998
10.50069	21.6888	6.34253
10.5027	13.7511	6.36206
10.504	15.75271	6.38159
10.5059	18.6352	6.401123
10.5063	22.5013	6.42065
10.5083	15.8333	6.44019
10.5114	24.0953	6.45972
10.5117	26.1908	6.479248
10.514	17.745	6.49878
10.5145	20.45842	6.51831
10.5174	29.1074	6.53784
10.5189	20.4154	6.557373
10.52107	25.2584	6.5769
10.5212	32.4834	6.59644
10.5232	24.5211	6.61597
10.52529	21.0388	6.635498
10.5271	35.3091	6.65503
10.5277	32.4289	6.67456
10.53055	28.2222	6.69409
10.5317	36.86972	6.713623
10.5327	31.63258	6.73315
10.5351	29.5708	6.75269
10.53612	37.851	6.77222
10.5386	40.5846	6.791748
10.5395	31.7184	6.81128
10.5415	41.3299	6.83081
10.54313	40.2115	6.85034
10.544	36.20689	6.869873
10.5469	39.38166	6.8894
10.5485	48.7296	6.90894
10.5508	42.4682	6.92847
10.5519	45.0584	6.947998
10.5532	45.3864	6.96753
10.5543	45.6114	6.98706
10.55658	44.6693	7.00659
10.5573	53.94973	7.026123
10.5596	51.1248	7.04565
10.5611	44.7413	7.06519
10.5631	49.5908	7.08472
10.5643	55.568	7.104248
10.5661	47.8536	7.12378
10.56849	56.0537	7.14331
10.5689	60.2278	7.16284
10.5704	52.33477	7.182373
10.5712	52.3713	7.2019
10.5745	63.0933	7.22144
10.57529	55.9352	7.24097
10.5767	58.9111	7.260498
10.5787	67.3674	7.28003
10.5806	60.1371	7.29956
10.5819	56.9104	7.31909
10.5829	67.614	7.338623
10.5855	66.7993	7.35815
10.58786	62.5009	7.37769
10.5885	69.9023	7.39722
10.5898	64.9839	7.416748
10.592	62.11121	7.43628
10.5947	72.1509	7.45581
10.5956	74.8521	7.47534
10.5972	66.8593	7.494873
10.5983	70.5927	7.5144
10.6003	73.6681	7.53394
10.6016	72.6029	7.55347
10.6036	72.0122	7.572998
10.606	81.5229	7.59253
10.6069	77.5885	7.61206
10.6078	75.6971	7.63159
10.6109	81.3984	7.651123
10.6109	82.3539	7.67065
10.613	74.6088	7.69019
10.615	86.782	7.70972
10.6164	88.3637	7.729248
10.6181	78.5318	7.74878
10.6189	82.0544	7.76831
10.6201	91.0901	7.78784
10.6244	81.1896	7.807373
10.62402	87.8859	7.8269
10.6259	93.2122	7.84644
10.628	85.9041	7.86597
10.6302	86.99511	7.885498
10.6307	98.3511	7.90503
10.633	92.6745	7.92456
10.6346	88.0606	7.94409
10.6361	99.3827	7.963623
10.6386	95.0531	7.98315
10.6385	90.59874	8.00269
10.6416	98.9636	8.02222
10.6427	101.999	8.041748
10.6448	95.5111	8.06128
10.6451	102.216	8.08081
10.6476	102.393	8.10034
10.6488	96.9447	8.119873
10.6508	102.518	8.1394
10.6522	111.114	8.15894
10.6541	101.793	8.17847
10.6561	103.74	8.197998
10.6571	108.973	8.21753
10.6589	109.976	8.23706
10.6599	105.165	8.25659
10.6629	116.069	8.276123
10.663	111.072	8.29565
10.6652	108.948	8.31519
10.6666	112.892	8.33472
10.668	117.26	8.354248
10.6701	109.6913	8.37378
10.6732	118.0547	8.39331
10.67367	122.107	8.41284
10.6753	115.372	8.432373
10.6768	115.686	8.4519
10.6786	125.129	8.47144
10.6797	118.0926	8.49097
10.6817	120.758	8.510498
10.6832	127.834	8.53003
10.6859	121.297	8.54956
10.68646	118.044	8.56909
10.6888	130.477	8.588623
10.69	128.17	8.60815
10.6914	122.904	8.62769
10.6925	130.891	8.64722
10.6947	129.204	8.666748
10.6964	124.236	8.68628
10.6979	131.401	8.70581
10.6985	134.7243	8.72534
10.7005	126.626	8.744873
10.7025	134.242	8.7644
10.70472	135.7131	8.78394
10.7059	132.676	8.80347
10.7076	133.376	8.822998
10.7095	144.344	8.84253
10.7117	137.6524	8.86206
10.7117	136.95	8.88159
10.7129	140.302	8.901123
10.7158	144.362	8.92065
10.7174	137.271	8.94019
10.7201	146.8983	8.95972
10.71994	145.3963	8.979248
10.7226	139.619	8.99878
10.7241	144.351	9.01831
10.7255	152.323	9.03784
10.7261	142.416	9.057373
10.7279	147.149	9.0769
10.731	154.56	9.09644
10.7322	148.504	9.11597
10.7338	146.942	9.135498
10.73553	156.814	9.15503
10.7373	151.716	9.17456
10.7385	151.625	9.19409
10.7391	159.576	9.213623
10.7418	154.089	9.23315
10.74354	147.81	9.25269
10.7458	160.457	9.27222
10.7461	162.396	9.291748
10.748	152.768	9.31128
10.7491	163.645	9.33081
10.7511	162.722	9.35034
10.7526	158.392	9.369873
10.754	162.922	9.3894
10.75682	169.023	9.40894
10.7576	161.368	9.42847
10.7601	167.464	9.447998
10.7607	170.3577	9.46753
10.7625	168.573	9.48706
10.7642	165.724	9.50659
10.7662	174.768	9.526123
10.76793	174.418	9.54565
10.76872	169.8622	9.56519
10.7715	172.036	9.58472
10.7723	177.2603	9.604248
10.77378	170.6171	9.62378
10.7747	179.745	9.64331
10.7774	182.391	9.66284
10.7792	173.676	9.682373
10.7811	174.407	9.7019
10.783	186.476	9.72144
10.7837	178.431	9.74097
10.7864	179.688	9.760498
10.7871	188.317	9.78003
10.7889	182.867	9.79956
10.7898	178.224	9.81909
10.792	190.61	9.838623
10.79396	187.528	9.85815
10.7956	182.974	9.87769
10.7982	191.37	9.89722
10.7992	191.277	9.916748
10.7996	183.201	9.93628
10.80223	192.676	9.95581
10.80326	197.586	9.97534
10.8065	188.139	9.994873
10.8069	193.965	10.0144
10.808	195.6929	10.0339
10.8107	192.416	10.0535
10.812	193.144	10.073
10.8126	203.425	10.0925
10.815	197.09	10.1121
10.8165	197.502	10.1316
10.818	201.827	10.1511
10.8194	203.6147	10.1707
10.821	195.002	10.1902
10.8236	206.8671	10.2097
10.824	206.97	10.2292
10.8265	202.623	10.2488
10.8278	203.3656	10.2683
10.8294	213.84	10.2878
10.8304	203.443	10.3074
10.8333	209.425	10.3269
10.8341	215.852	10.3464
10.83476	208.084	10.366
10.8371	204.728	10.3855
10.8399	219.7254	10.405
10.8414	213.128	10.4246
10.84282	210.56	10.4441
10.8434	219.985	10.4636
10.8457	216.543	10.4832
10.8479	211.012	10.5027
10.84925	220.968	10.5222
10.8509	221.111	10.5417
10.8519	215.446	10.5613
10.8538	222.383	10.5808
10.8562	225.791	10.6003
10.8571	216.888	10.6199
10.8592	224.42	10.6394
10.8616	230.0748	10.6589
10.86218	222.605	10.6785
10.8633	226.33	10.698
10.8649	227.5764	10.7175
10.86728	228.185	10.7371
10.8685	224.904	10.7566
10.8715	235.894	10.7761
10.8725	233.009	10.7957
10.87328	227.182	10.8152
10.8746	234.102	10.8347
10.8771	239.432	10.8542
10.8782	230.224	10.8738
10.8793	235.41	10.8933
10.8818	240.899	10.9128
10.8836	235.351	10.9324
10.8857	236.757	10.9519
10.88638	246.132	10.9714
10.8881	238.458	10.991
10.89	241.499	11.0105
10.8916	249.378	11.03
10.89374	243.1861	11.0496
10.8951	238.136	11.0691
10.8975	252.41	11.0886
10.8974	249.271	11.1082
10.8991	244.988	11.1277
10.9012	251.4334	11.1472
10.902	250.486	11.1667
10.90358	243.848	11.1863
10.9053	253.734	11.2058
10.9076	257.4144	11.2253
10.9091	249.974	11.2449
10.9103	254.295	11.2644
10.9132	259.073	11.2839
10.9137	254.239	11.3035
10.9148	253.037	11.323
10.9176	263.843	11.3425
10.9192	257.892	11.3621
10.921	257.6474	11.3816
10.9228	263.158	11.4011
10.9239	264.201	11.4207
10.9252	256.713	11.4402
10.9272	268.6232	11.4597
10.9298	269.5925	11.4792
10.9315	261.501	11.4988
10.9328	264.145	11.5183
10.9327	273.41	11.5378
10.9348	262.72	11.5574
10.9365	270.7728	11.5769
10.9381	274.919	11.5964
10.9396	269.202	11.616
10.9414	266.164	11.6355
10.94294	280.665	11.655
10.9456	271.465	11.6746
10.946	271.366	11.6941
10.9481	281.232	11.7136
10.9499	279.037	11.7332
10.9517	269.747	11.7527
10.9533	282.487	11.7722
10.9548	283.161	11.7917
10.9565	275.219	11.8113
10.9579	282.904	11.8308
10.9605	284.67	11.8503
10.9616	276.266	11.8699
10.9633	283.572	11.8894
10.9643	290.453	11.9089
10.9659	283.047	11.9285
10.9678	285.385	11.948
10.9698	290.7756	11.9675
10.9702	288.7084	11.9871
10.9729	284.316	12.0066
10.9752	296.474	12.0261
10.9768	292.8671	12.0457
10.9785	289.666	12.0652
10.9783	294.163	12.0847
10.98026	297.9989	12.1042
10.982	290.257	12.1238
10.98398	300.319	12.1433
10.9855	303.334	12.1628
10.9874	294.498	12.1824
10.989	294.711	12.2019
10.9901	307.287	12.2214
10.9922	299.015	12.241
10.9937	299.863	12.2605
10.9952	307.296	12.28
10.9972	303.252	12.2996
10.9992	296.558	12.3191
11.0006	312.863	12.3386
11.0024	307.232	12.3582
11.0032	301.5256	12.3777
11.0055	312.055	12.3972
11.0075	313.241	12.4167
11.0075	301.453	12.4363
11.0104	312.457	12.4558
11.0116	317.2446	12.4753
11.0134	309.26	12.4949
11.0149	316.72	12.5144
11.0173	317.563	12.5339
11.0192	310.142	12.5535
11.0196	315.396	12.573
11.0216	324.557	12.5925
11.023	317.965	12.6121
11.025	315.4137	12.6316
11.02665	321.405	12.6511
11.0279	321.714	12.6707
11.02925	315.346	12.6902
11.0322	325.657	12.7097
11.0324	325.452	12.7292
11.035	321.946	12.7488
11.0364	323.591	12.7683
11.0381	333.617	12.7878
11.0394	323.746	12.8074
11.0412	329.706	12.8269
11.0429	336.567	12.8464
11.044	328.6788	12.866
11.0468	324.123	12.8855
11.0479	338.601	12.905
11.0485	332.336	12.9246
11.0519	331.633	12.9441
11.0522	340.247	12.9636
11.0537	335.536	12.9832
11.0566	327.915	13.0027
11.0574	341.5791	13.0222
11.0592	340.283	13.0417
11.0601	333.674	13.0613
11.0616	342.119	13.0808
11.0634	345.505	13.1003
11.0656	336.158	13.1199
11.0668	343.441	13.1394
11.0681	348.3313	13.1589
11.0708	339.6037	13.1785
11.0715	344.9126	13.198
11.0728	348.907	13.2175
11.0746	343.026	13.2371
11.077	342.77	13.2566
11.0781	355.491	13.2761
11.0799	351.836	13.2957
11.0808	347.399	13.3152
11.0827	351.709	13.3347
11.085	358.803	13.3542
11.08674	350.102	13.3738
11.0882	359.055	13.3933
11.0892	359.972	13.4128
11.0916	353.895	13.4324
11.09282	354.9	13.4519
11.0948	366.331	13.4714
11.0972	355.824	13.491
11.0977	358.616	13.5105
11.0999	368.6362	13.53
11.1007	362.803	13.5496
11.1033	356.036	13.5691
11.1045	370.303	13.5886
11.1064	367.21	13.6082
11.1089	362.447	13.6277
11.1094	371.799	13.6472
11.1122	369.412	13.6667
11.1128	360.1713	13.6863
11.1147	372.229	13.7058
11.1156	376.924	13.7253
11.1176	365.049	13.7449
11.1186	372.587	13.7644
11.1198	376.316	13.7839
11.1224	369.684	13.8035
11.1239	372.765	13.823
11.1256	381.489	13.8425
11.1272	374.116	13.8621
11.1284	374.315	13.8816
11.1307	382.208	13.9011
11.1316	380.605	13.9207
11.1341	374.7688	13.9402
11.1348	385.044	13.9597
11.1364	384.895	13.9792
11.1386	377.841	13.9988
11.14031	382.088	14.0183
11.1415	390.372	14.0378
11.1442	380.978	14.0574
11.1451	386.621	14.0769
11.1467	393.014	14.0964
11.1484	384.341	14.116
11.1507	383.122	14.1355
11.1524	396.369	14.155
11.1522	390.216	14.1746
11.1554	387.889	14.1941
11.1575	396.592	14.2136
11.1585	395.439	14.2332
11.1596	386.0661	14.2527
11.1618	398.6593	14.2722
11.1623	398.792	14.2917
11.1641	391.19	14.3113
11.1676	399.8334	14.3308
11.1676	400.678	14.3503
11.16941	392.17	14.3699
11.1706	400.472	14.3894
11.174	409.3158	14.4089
11.1743	399.648	14.4285
11.1759	400.747	14.448
11.1771	406.641	14.4675
11.1796	402.85	14.4871
11.1814	402.312	14.5066
11.1824	413.222	14.5261
11.1837	407.806	14.5457
11.1852	403.611	14.5652
11.1875	410.075	14.5847
11.1886	413.7113	14.6042
11.1896	403.652	14.6238
11.1929	413.346	14.6433
11.1941	417.123	14.6628
11.19516	411.862	14.6824
11.1985	411.959	14.7019
11.199	422.354	14.7214
11.2006	412.315	14.741
11.2026	417.145	14.7605
11.2044	424.588	14.78
11.2049	418.857	14.7996
11.2075	413.156	14.8191
11.2099	427.091	14.8386
11.2102	423.978	14.8582
11.2119	417.001	14.8777
11.2138	425.182	14.8972
11.2147	427.984	14.9167
11.2161	416.712	14.9363
11.2186	429.388	14.9558
11.2204	430.724	14.9753
11.2226	423.985	14.9949
11.2229	428.701	15.0144
11.2241	433.155	15.0339
11.2267	423.941	15.0535
11.2287	428.009	15.073
11.2293	438.091	15.0925
11.2309	432.089	15.1121
11.2331	430.316	15.1316
11.2356	437.444	15.1511
11.2365	436.255	15.1707
11.2379	432.245	15.1902
11.2393	443.138	15.2097
11.2411	440.828	15.2292
11.2436	434.7384	15.2488
11.24431	437.776	15.2683
11.2457	447.427	15.2878
11.2477	436.411	15.3074
11.2499	442.596	15.3269
11.2512	448.899	15.3464
11.2525	442.704	15.366
11.254	440.167	15.3855
11.25578	452.573	15.405
11.2573	443.808	15.4246
11.2586	444.2843	15.4441
11.26	454.41	15.4636
11.263	450.431	15.4832
11.2632	442.605	15.5027
11.2652	455.222	15.5222
11.26687	454.318	15.5417
11.2696	448.124	15.5613
11.27041	454.287	15.5808
11.2724	458.923	15.6003
11.2729	448.419	15.6199
11.2765	456.691	15.6394
11.2753	462.964	15.6589
11.2775	454.793	15.6785
11.2804	456.994	15.698
11.2815	464.394	15.7175
11.2838	458.0199	15.7371
11.2855	456.731	15.7566
11.2863	467.32	15.7761
11.289	464.465	15.7957
11.2898	459.687	15.8152
11.2913	465.857	15.8347
11.2941	468.137	15.8542
11.2954	460.827	15.8738
11.2966	472.231	15.8933
11.2975	473.477	15.9128
11.2986	464.958	15.9324
11.3023	466.282	15.9519
11.3035	478.692	15.9714
11.3045	469.429	15.991
11.3056	469.862	16.0105
11.308	480.622	16.03
11.3096	474.432	16.0496
11.3111	468.5517	16.0691
11.3123	482.944	16.0886
11.3145	476.9707	16.1082
11.3161	474.0321	16.1277
11.3173	483.546	16.1472
11.3187	485.113	16.1667
11.3205	472.563	16.1863
11.3217	483.686	16.2058
11.32425	486.006	16.2253
11.3253	479.471	16.2449
11.327	483.663	16.2644
11.3298	488.587	16.2839
11.3307	479.269	16.3035
11.3325	484.83	16.323
11.3338	491.969	16.3425
11.3349	484.967	16.3621
11.3362	486.765	16.3816
11.3395	492.513	16.4011
11.3402	491.302	16.4207
11.3413	485.422	16.4402
11.3443	495.489	16.4597
11.3455	496.023	16.4792
11.3475	490.348	16.4988
11.348	491.752	16.5183
11.3503	500.074	16.5378
11.3519	491.988	16.5574
11.3534	500.021	16.5769
11.3546	504.63	16.5964
11.3568	497.027	16.616
11.3599	492.704	16.6355
11.3596	508.576	16.655
11.3614	499.799	16.6746
11.3625	499.119	16.6941
11.3642	507.161	16.7136
11.3672	505.016	16.7332
11.3683	495.67	16.7527
11.3702	511.281	16.7722
11.3717	508.784	16.7917
11.3734	502.315	16.8113
11.3754	511.103	16.8308
11.3757	515.094	16.8503
11.3769	502.417	16.8699
11.379	510.847	16.8894
11.3809	517.627	16.9089
11.3822	511.179	16.9285
11.3839	513.3	16.948
11.3859	519.2403	16.9675
11.388	512.819	16.9871
11.39	512.549	17.0066
11.3912	523.221	17.0261
11.3922	518.214	17.0457
11.3941	515.591	17.0652
11.3956	521.294	17.0847
11.398	524.516	17.1042
11.39906	515.255	17.1238
11.3993	524.006	17.1433
11.4021	526.711	17.1628
11.4036	522.17	17.1824
11.4061	521.95	17.2019
11.4073	532.09	17.2214
11.409	521.895	17.241
11.4105	526.381	17.2605
11.4122	534.974	17.28
11.4141	528.838	17.2996
11.41542	521.781	17.3191
11.4172	537.446	17.3386
11.4185	532.128	17.3582
11.4203	528.0144	17.3777
11.42181	536.681	17.3972
11.4226	536.096	17.4167
11.4252	527.09	17.4363
11.4268	539.039	17.4558
11.4278	539.937	17.4753
11.4308	532.081	17.4949
11.4308	539.001	17.5144
11.4328	543.635	17.5339
11.43468	533.444	17.5535
11.436	538.286	17.573
11.438	546.555	17.5925
11.4415	542.336	17.6121
11.4418	539.984	17.6316
11.4435	547.335	17.6511
11.4442	542.109	17.6707
11.4467	540.514	17.6902
11.4487	551.281	17.7097
11.4499	551.18	17.7292
11.4507	543.064	17.7488
11.4532	546.233	17.7683
11.4548	554.319	17.7878
11.4562	545.7337	17.8074
11.458	551.303	17.8269
11.4589	557.241	17.8464
11.461	550.513	17.866
11.4626	548.973	17.8855
11.4637	561.683	17.905
11.4648	551.289	17.9246
11.4674	552.997	17.9441
11.46892	562.2572	17.9636
11.4706	559.761	17.9832
11.4713	549.258	18.0027
11.4732	563.948	18.0222
11.4753	561.814	18.0417
11.4775	555.47	18.0613
11.47921	565.218	18.0808
11.4808	566.588	18.1003
11.4832	555.664	18.1199
11.4829	566.266	18.1394
11.4851	571.758	18.1589
11.4865	563.182	18.1785
11.4889	563.236	18.198
11.4909	572.717	18.2175
11.4916	565.862	18.2371
11.4935	565.198	18.2566
11.4936	573.214	18.2761
11.4968	569.93	18.2957
11.4977	567.253	18.3152
11.5011	572.244	18.3347
11.50142	576.4505	18.3542
11.5043	568.784	18.3738
11.5055	578.058	18.3933
11.5068	580.319	18.4128
11.5073	572.328	18.4324
11.50938	572.302	18.4519
11.5118	584.578	18.4714
11.5123	574.906	18.491
11.5141	577.592	18.5105
11.5164	583.896	18.53
11.5178	579.782	18.5496
11.5191	573.853	18.5691
11.5211	589.57	18.5886
11.5231	582.293	18.6082
11.52372	579.673	18.6277
11.5254	588.5567	18.6472
11.5279	589.201	18.6667
11.52902	578.341	18.6863
11.5294	588.634	18.7058
11.5336	592.247	18.7253
11.5336	585.364	18.7449
11.5356	589.275	18.7644
11.5362	595.509	18.7839
11.5387	584.512	18.8035
11.5408	590.886	18.823
11.54208	598.208	18.8425
11.5446	592.208	18.8621
11.5452	589.292	18.8816
11.547	597.558	18.9011
11.5491	592.997	18.9207
11.55078	592.946	18.9402
11.5513	601.048	18.9597
11.5544	599.034	18.9792
11.5549	596.5459	18.9988
11.5568	599.832	19.0183
11.5576	604.255	19.0378
11.5601	595.664	19.0574
11.56184	600.48	19.0769
11.5627	608.193	19.0964
11.5652	603.274	19.116
11.566	598.509	19.1355
11.5674	611.565	19.155
11.5701	604.773	19.1746
11.5721	604.909	19.1941
11.5735	613.184	19.2136
11.5749	609.254	19.2332
11.5771	600.92	19.2527
11.5781	616.116	19.2722
11.5795	612.732	19.2917
11.5808	607.272	19.3113
11.5829	614.723	19.3308
11.58367	617.28	19.3503
11.5855	607.269	19.3699
11.5882	615.973	19.3894
11.5897	619.917	19.4089
11.5916	613.8	19.4285
11.5922	615.225	19.448
11.59354	624.486	19.4675
11.5966	613.25	19.4871
11.5978	616.671	19.5066
11.5994	625.774	19.5261
11.6007	622.428	19.5457
11.6028	617.691	19.5652
11.6042	624.497	19.5847
11.6061	625.2	19.6042
11.607	620.367	19.6238
11.60976	628.61	19.6433
11.61	629.913	19.6628
11.6117	624.052	19.6824
11.6136	625.562	19.7019
11.6153	634.9234	19.7214
11.6176	625.054	19.741
11.6191	628.49	19.7605
11.6204	636.351	19.78
11.6212	632.321	19.7996
11.6231	625.115	19.8191
11.624	638.116	19.8386
11.627	632.308	19.8582
11.6285	632.0882	19.8777
11.6299	640.912	19.8972
11.6314	638.386	19.9167
11.6328	627.84	19.9363
11.6351	642.0481	19.9558
11.6366	644.57	19.9753
11.6383	634.908	19.9949
11.64	639.883	20.0144
11.6407	645.498	20.02417

Data Header:			0.254_hd_uprint_typei_090_r0			Time:	40.0295	s	4/15/2019 3:55:11 PM
Data Acquisition:	Timed
Station Name:	ft40.cfg
Test File Name:	monotonic_0.2540_typei_hd_090_uprint.tst
Displacement	Force	Running Time
mm	N	s
11.6415	645.445	20.0339
11.643	636.377	20.0535
11.6438	640.714	20.073
11.6466	647.586	20.0925
11.6477	642.795	20.1121
11.6501	640.708	20.1316
11.6508	650.153	20.1511
11.6538	645.2879	20.1707
11.6538	641.96	20.1902
11.6567	652.09	20.2097
11.6571	652.046	20.2292
11.6594	645.1	20.2488
11.6608	647.193	20.2683
11.66182	653.051	20.2878
11.6632	646.729	20.3074
11.666	652.743	20.3269
11.66755	656.841	20.3464
11.6693	651.952	20.366
11.6705	647.024	20.3855
11.67304	660.962	20.405
11.6741	654.831	20.4246
11.675	651.8902	20.4441
11.6777	661.396	20.4636
11.6791	661.508	20.4832
11.6798	652.179	20.5027
11.682	663.888	20.5222
11.6844	663.526	20.5417
11.6843	657.534	20.5613
11.6866	665.121	20.5808
11.6886	666.689	20.6003
11.6896	653.615	20.6199
11.6922	664.5849	20.6394
11.6935	670.825	20.6589
11.695	663.217	20.6785
11.697	664.163	20.698
11.6981	673.825	20.7175
11.7001	663.648	20.7371
11.7024	665.782	20.7566
11.7029	674.81	20.7761
11.7052	671.566	20.7957
11.7065	666.808	20.8152
11.7078	673.561	20.8347
11.71	673.607	20.8542
11.7118	667.389	20.8738
11.7122	676.255	20.8933
11.7153	678.729	20.9128
11.7167	673.485	20.9324
11.71843	672.514	20.9519
11.7196	680.899	20.9714
11.7214	672.81	20.991
11.7223	676.981	21.0105
11.7241	686.266	21.03
11.7256	679.835	21.0496
11.7277	673.361	21.0691
11.7291	687.894	21.0886
11.7301	681.799	21.1082
11.7328	677.894	21.1277
11.7343	688.27	21.1472
11.7355	688.922	21.1667
11.7375	676.0799	21.1863
11.7397	690.284	21.2058
11.7405	689.914	21.2253
11.74173	682.917	21.2449
11.7432	687.826	21.2644
11.7458	695.436	21.2839
11.7471	681.944	21.3035
11.7496	689.715	21.323
11.7498	696.311	21.3425
11.7534	691.761	21.3621
11.7525	690.453	21.3816
11.7547	697.081	21.4011
11.7571	690.41	21.4207
11.7582	689.009	21.4402
11.7611	698.328	21.4597
11.76134	697.631	21.4792
11.7631	690.893	21.4988
11.7645	698.03	21.5183
11.7668	700.009	21.5378
11.7687	693.989	21.5574
11.7694	700.328	21.5769
11.7713	704.0575	21.5964
11.7742	700.018	21.616
11.7745	695.795	21.6355
11.7766	707.58	21.655
11.7782	700.794	21.6746
11.781	700.237	21.6941
11.7822	710.161	21.7136
11.7833	705.815	21.7332
11.7842	697.116	21.7527
11.7869	710.542	21.7722
11.7881	709.707	21.7917
11.7894	704.503	21.8113
11.79015	710.466	21.8308
11.7935	714.418	21.8503
11.7945	701.9101	21.8699
11.7959	712.337	21.8894
11.79822	717.22	21.9089
11.8	710.212	21.9285
11.8009	712.035	21.948
11.8029	720.882	21.9675
11.8051	710.529	21.9871
11.806	711.034	22.0066
11.8074	720.83	22.0261
11.80908	719.421	22.0457
11.8106	711.498	22.0652
11.811	720.016	22.0847
11.8132	717.701	22.1042
11.8164	714.495	22.1238
11.8169	722.563	22.1433
11.81771	724.866	22.1628
11.8207	716.701	22.1824
11.8219	717.847	22.2019
11.8236	726.698	22.2214
11.8251	720.903	22.241
11.8278	721.9231	22.2605
11.829	727.28	22.28
11.8301	724.81	22.2996
11.831	718.482	22.3191
11.8343	733.876	22.3386
11.8344	727.424	22.3582
11.8373	724.052	22.3777
11.8391	731.462	22.3972
11.8387	734.322	22.4167
11.8422	720.403	22.4363
11.8431	732.0459	22.4558
11.8449	734.905	22.4753
11.8482	729.57	22.4949
11.8476	732.426	22.5144
11.8488	737.485	22.5339
11.8518	727.415	22.5535
11.8523	733.022	22.573
11.8536	741.589	22.5925
11.8573	736.029	22.6121
11.8584	732.737	22.6316
11.8595	740.096	22.6511
11.8608	736.6925	22.6707
11.8637	734.529	22.6902
11.8647	742.356	22.7097
11.8651	742.204	22.7292
11.8681	736.552	22.7488
11.8688	740.586	22.7683
11.87021	744.448	22.7878
11.87351	736.51	22.8074
11.8742	742.3717	22.8269
11.8749	748.811	22.8464
11.8774	741.825	22.866
11.8791	738.599	22.8855
11.8809	750.118	22.905
11.882	746.687	22.9246
11.8834	745.91	22.9441
11.8853	752.301	22.9636
11.887	748.99	22.9832
11.8879	740.02	23.0027
11.8904	754.941	23.0222
11.8926	752.267	23.0417
11.894	745.571	23.0613
11.8958	753.39	23.0808
11.89712	758.358	23.1003
11.8985	745.383	23.1199
11.9	755.693	23.1394
11.9021	757.717	23.1589
11.9031	753.455	23.1785
11.9049	754.1391	23.198
11.9071	762.613	23.2175
11.9092	753.071	23.2371
11.9088	755.189	23.2566
11.9112	763.2373	23.2761
11.9132	762.329	23.2957
11.9138	754.985	23.3152
11.9171	762.023	23.3347
11.9176	759.8	23.3542
11.9196	759.102	23.3738
11.92162	763.893	23.3933
11.9232	767.294	23.4128
11.9243	758.853	23.4324
11.9258	759.783	23.4519
11.9268	766.698	23.4714
11.9294	760.248	23.491
11.9308	761.553	23.5105
11.9324	771.255	23.53
11.935	767.526	23.5496
11.9358	760.066	23.5691
11.9384	771.849	23.5886
11.9388	769.935	23.6082
11.9411	764.908	23.6277
11.9425	773.43	23.6472
11.9444	773.8822	23.6667
11.9452	761.968	23.6863
11.948	774.229	23.7058
11.9484	777.414	23.7253
11.9506	768.775	23.7449
11.9525	772.948	23.7644
11.9532	779.423	23.7839
11.9551	768.5694	23.8035
11.95708	774.575	23.823
11.9583	781.661	23.8425
11.9603	776.826	23.8621
11.9617	773.205	23.8816
11.9633	784.423	23.9011
11.9654	774.117	23.9207
11.9672	774.17	23.9402
11.9686	782.536	23.9597
11.9704	783.674	23.9792
11.9715	776.296	23.9988
11.973	779.7569	24.0183
11.9748	783.676	24.0378
11.9768	779.428	24.0574
11.9788	783.225	24.0769
11.9806	787.809	24.0964
11.9825	781.705	24.116
11.9834	779.262	24.1355
11.9845	789.3653	24.155
11.9866	784.126	24.1746
11.988	780.89	24.1941
11.99062	790.519	24.2136
11.99127	788.401	24.2332
11.9935	779.289	24.2527
11.995	790.517	24.2722
11.9962	792.355	24.2917
11.9984	786.013	24.3113
11.9992	792.359	24.3308
12.001	794.724	24.3503
12.00317	782.462	24.3699
12.0041	791.813	24.3894
12.007	797.414	24.4089
12.0074	792.026	24.4285
12.0089	790.106	24.448
12.0108	800.909	24.4675
12.0123	790.665	24.4871
12.0153	794.407	24.5066
12.016	799.426	24.5261
12.0174	796.151	24.5457
12.0192	793.016	24.5652
12.0207	803.043	24.5847
12.0217	796.976	24.6042
12.0244	794.316	24.6238
12.0248	800.088	24.6433
12.0264	804.74	24.6628
12.0277	797.254	24.6824
12.0301	798.518	24.7019
12.0304	803.1474	24.7214
12.0339	799.061	24.741
12.0352	800.057	24.7605
12.0365	809.731	24.78
12.0385	801.778	24.7996
12.0398	796.59	24.8191
12.0413	807.986	24.8386
12.045	805.871	24.8582
12.0448	800.415	24.8777
12.0475	808.882	24.8972
12.0488	809.496	24.9167
12.0498	798.846	24.9363
12.0518	808.387	24.9558
12.0529	811.944	24.9753
12.0542	805.122	24.9949
12.0564	809.2384	25.0144
12.0582	817.682	25.0339
12.0589	802.775	25.0535
12.0608	807.552	25.073
12.06387	816.735	25.0925
12.0641	811.305	25.1121
12.0658	808.107	25.1316
12.0683	817.7027	25.1511
12.069	809.539	25.1707
12.0708	809.995	25.1902
12.0722	817.43	25.2097
12.0744	816.998	25.2292
12.0753	809.166	25.2488
12.0774	817.1687	25.2683
12.0786	816.915	25.2878
12.0809	812.313	25.3074
12.0819	814.196	25.3269
12.0844	822.178	25.3464
12.08572	814.934	25.366
12.0865	812.219	25.3855
12.0883	819.282	25.405
12.0906	816.704	25.4246
12.0922	816.0506	25.4441
12.0948	824.168	25.4636
12.0955	823.4787	25.4832
12.0976	811.164	25.5027
12.0981	824.027	25.5222
12.1011	823.811	25.5417
12.1023	816.739	25.5613
12.1038	821.246	25.5808
12.1057	827.048	25.6003
12.1086	814.706	25.6199
12.1085	823.272	25.6394
12.1101	827.487	25.6589
12.1116	820.664	25.6785
12.1132	822.862	25.698
12.1144	832.387	25.7175
12.1159	821.357	25.7371
12.1176	822.2522	25.7566
12.1196	830.896	25.7761
12.1212	827.772	25.7957
12.1232	821.03	25.8152
12.1244	830.922	25.8347
12.1258	826.734	25.8542
12.1286	823.7132	25.8738
12.1297	830.0401	25.8933
12.1309	834.435	25.9128
12.1328	823.328	25.9324
12.1347	827.44	25.9519
12.13693	832.804	25.9714
12.137	826.942	25.991
12.1393	827.853	26.0105
12.1417	836.814	26.03
12.1432	831.9516	26.0496
12.1445	825.232	26.0691
12.1463	832.966	26.0886
12.1469	833.796	26.1082
12.1496	827.937	26.1277
12.1514	836.804	26.1472
12.1516	838.257	26.1667
12.1539	825.382	26.1863
12.15559	835.8963	26.2058
12.157	837.794	26.2253
12.1587	832.285	26.2449
12.1607	832.391	26.2644
12.1623	841.422	26.2839
12.1635	829.106	26.3035
12.1646	834.146	26.323
12.1667	840.226	26.3425
12.16822	835.086	26.3621
12.16993	832.616	26.3816
12.1712	843.272	26.4011
12.1741	834.378	26.4207
12.1746	833.241	26.4402
12.1761	839.4599	26.4597
12.17911	842.325	26.4792
12.1799	834.686	26.4988
12.1818	840.161	26.5183
12.1826	838.379	26.5378
12.1846	835.479	26.5574
12.1866	838.565	26.5769
12.189	846.066	26.5964
12.1896	837.335	26.616
12.1916	836.825	26.6355
12.1926	843.224	26.655
12.1942	839.812	26.6746
12.1956	837.549	26.6941
12.1979	843.426	26.7136
12.1995	842.752	26.7332
12.2009	836.313	26.7527
12.2029	844.884	26.7722
12.2047	844.273	26.7917
12.20585	838.569	26.8113
12.20687	844.14	26.8308
12.2085	850.728	26.8503
12.2113	835.291	26.8699
12.2123	842.157	26.8894
12.2138	847.187	26.9089
12.2163	843.152	26.9285
12.21767	841.222	26.948
12.2193	850.363	26.9675
12.2207	839.671	26.9871
12.2219	841.132	27.0066
12.2233	848.9129	27.0261
12.2258	846.476	27.0457
12.2276	839.277	27.0652
12.2283	849.68	27.0847
12.2301	846.5722	27.1042
12.2315	840.493	27.1238
12.2338	845.912	27.1433
12.2355	851.51	27.1628
12.2375	843.926	27.1824
12.2383	845.772	27.2019
12.2396	847.728	27.2214
12.2422	843.3103	27.241
12.2438	844.501	27.2605
12.246	854.622	27.28
12.2478	846.487	27.2996
12.2491	840.763	27.3191
12.2493	848.921	27.3386
12.2516	849.6944	27.3582
12.2528	843.4649	27.3777
12.2546	850.896	27.3972
12.2573	851.7804	27.4167
12.259	840.56	27.4363
12.2602	846.973	27.4558
12.2608	852.536	27.4753
12.2628	844.233	27.4949
12.265	847.989	27.5144
12.2657	855.857	27.5339
12.2686	842.635	27.5535
12.2703	845.17	27.573
12.2713	853.379	27.5925
12.2728	849.618	27.6121
12.2745	846.766	27.6316
12.2755	855.108	27.6511
12.2768	844.789	27.6707
12.2784	844.129	27.6902
12.2816	852.41	27.7097
12.2834	851.638	27.7292
12.2865	844.6319	27.7488
12.2857	849.798	27.7683
12.2868	851.311	27.7878
12.2892	844.972	27.8074
12.2909	849.143	27.8269
12.2933	855.767	27.8464
12.2936	845.948	27.866
12.2953	845.647	27.8855
12.297	852.672	27.905
12.3001	848.6756	27.9246
12.30133	845.388	27.9441
12.3026	855.2019	27.9636
12.3037	852.324	27.9832
12.3048	843.909	28.0027
12.3066	850.907	28.0222
12.30829	854.471	28.0417
12.3096	846.309	28.0613
12.3117	851.846	28.0808
12.31316	855.652	28.1003
12.3159	843.315	28.1199
12.3162	847.864	28.1394
12.31809	854.731	28.1589
12.3204	846.96	28.1785
12.3217	845.826	28.198
12.3235	855.709	28.2175
12.3256	845.411	28.2371
12.327	846.418	28.2566
12.32826	852.903	28.2761
12.3292	852.551	28.2957
12.3315	846.036	28.3152
12.3322	855.653	28.3347
12.3338	849.517	28.3542
12.3364	845.291	28.3738
12.3379	850.813	28.3933
12.3401	856.481	28.4128
12.3416	846.175	28.4324
12.3429	849.422	28.4519
12.346	850.219	28.4714
12.3464	848.328	28.491
12.348	845.8089	28.5105
12.3492	855.125	28.53
12.3509	847.574	28.5496
12.3526	844.879	28.5691
12.3541	850.392	28.5886
12.356	852.464	28.6082
12.3569	842.009	28.6277
12.3594	852.191	28.6472
12.3604	852.218	28.6667
12.3624	842.18	28.6863
12.3637	847.966	28.7058
12.3656	853.661	28.7253
12.3669	844.525	28.7449
12.3685	849.41	28.7644
12.3704	857.109	28.7839
12.3721	842.331	28.8035
12.3746	845.485	28.823
12.3745	854.4079	28.8425
12.3773	849.454	28.8621
12.3782	844.5545	28.8816
12.3805	853.155	28.9011
12.38195	845.055	28.9207
12.3835	844.767	28.9402
12.3847	849.473	28.9597
12.3869	850.608	28.9792
12.3884	842.823	28.9988
12.3904	850.909	29.0183
12.3909	850.616	29.0378
12.3927	844.8028	29.0574
12.3953	845.527	29.0769
12.3974	854.537	29.0964
12.3976	846.07	29.116
12.4001	842.83	29.1355
12.4001	848.956	29.155
12.4039	847.0368	29.1746
12.4042	844.447	29.1941
12.406	851.7865	29.2136
12.4079	846.785	29.2332
12.4095	840.298	29.2527
12.4119	847.711	29.2722
12.4128	848.7771	29.2917
12.4141	840.989	29.3113
12.4148	846.922	29.3308
12.4172	851.178	29.3503
12.4211	840.976	29.3699
12.4222	842.729	29.3894
12.4221	850.814	29.4089
12.4235	844.115	29.4285
12.4268	844.61	29.448
12.4271	852.575	29.4675
12.42925	841.04	29.4871
12.4299	839.512	29.5066
12.4318	849.544	29.5261
12.4339	846.542	29.5457
12.436	840.138	29.5652
12.4373	847.824	29.5847
12.4391	844.528	29.6042
12.4403	838.599	29.6238
12.4422	844.932	29.6433
12.4432	848.581	29.6628
12.4446	839.851	29.6824
12.4472	843.998	29.7019
12.4488	845.882	29.7214
12.45003	842.715	29.741
12.4522	840.068	29.7605
12.45365	850.458	29.78
12.4551	843.829	29.7996
12.4568	838.459	29.8191
12.4595	844.1709	29.8386
12.46	845.765	29.8582
12.4616	836.666	29.8777
12.46371	847.999	29.8972
12.4649	846.25	29.9167
12.4668	835.438	29.9363
12.4679	841.546	29.9558
12.47	847.911	29.9753
12.4713	838.108	29.9949
12.4742	840.2821	30.0144
12.4745	848.442	30.0339
12.4771	837.649	30.0535
12.4775	837.724	30.073
12.4803	844.362	30.0925
12.4822	840.247	30.1121
12.484	838.5473	30.1316
12.4854	847.79	30.1511
12.4858	837.302	30.1707
12.4867	834.6723	30.1902
12.4897	843.943	30.2097
12.4917	846.543	30.2292
12.4924	835.206	30.2488
12.4942	843.654	30.2683
12.4959	838.739	30.2878
12.4972	834.753	30.3074
12.5003	838.22	30.3269
12.5018	846.536	30.3464
12.50191	835.754	30.366
12.5043	835.738	30.3855
12.505	841.4967	30.405
12.5069	839.261	30.4246
12.5091	832.854	30.4441
12.5099	844.381	30.4636
12.5119	839.735	30.4832
12.5136	833.944	30.5027
12.516	839.706	30.5222
12.5169	841.795	30.5417
12.51931	832.254	30.5613
12.52	838.919	30.5808
12.52176	842.967	30.6003
12.5232	831.739	30.6199
12.5253	832.87	30.6394
12.5273	842.381	30.6589
12.5286	834.787	30.6785
12.5304	834.94	30.698
12.53195	843.008	30.7175
12.5327	832.409	30.7371
12.5352	833.449	30.7566
12.5368	840.788	30.7761
12.5378	838.408	30.7957
12.5401	831.543	30.8152
12.542	840.535	30.8347
12.5429	836.231	30.8542
12.5452	832.199	30.8738
12.5463	836.303	30.8933
12.5474	841.868	30.9128
12.55	832.023	30.9324
12.5515	836.712	30.9519
12.552	836.899	30.9714
12.5535	833.101	30.991
12.5563	834.088	31.0105
12.5579	843.3479	31.03
12.5596	833.762	31.0496
12.5612	828.9552	31.0691
12.5619	835.581	31.0886
12.56463	835.474	31.1082
12.56493	829.943	31.1277
12.568	836.775	31.1472
12.5692	835.034	31.1667
12.5705	828.872	31.1863
12.573	832.88	31.2058
12.5742	838.326	31.2253
12.576	828.02	31.2449
12.57675	832.988	31.2644
12.57873	839.849	31.2839
12.5808	827.421	31.3035
12.5822	826.231	31.323
12.5839	838.789	31.3425
12.5852	832.66	31.3621
12.5855	828.5614	31.3816
12.5883	839	31.4011
12.58991	829.874	31.4207
12.59253	827.92	31.4402
12.5927	835.261	31.4597
12.59458	836.989	31.4792
12.5958	826.208	31.4988
12.598	837.453	31.5183
12.5995	834.174	31.5378
12.6023	829.196	31.5574
12.6029	829.013	31.5769
12.6044	838.245	31.5964
12.6064	829.805	31.616
12.60782	829.755	31.6355
12.6096	834.341	31.655
12.6111	829.666	31.6746
12.6128	826.598	31.6941
12.6148	838.496	31.7136
12.6166	832.235	31.7332
12.61696	827.747	31.7527
12.6187	830.681	31.7722
12.6222	835.293	31.7917
12.6227	825.693	31.8113
12.6245	832.604	31.8308
12.6261	834.19	31.8503
12.62808	824.861	31.8699
12.6301	828.731	31.8894
12.6314	837.621	31.9089
12.6328	827.409	31.9285
12.6337	826.77	31.948
12.6354	836.357	31.9675
12.6383	827.273	31.9871
12.639	822.7	32.0066
12.6398	834.332	32.0261
12.642	829.574	32.0457
12.6448	823.12	32.0652
12.6455	836.084	32.0847
12.6469	828.6145	32.1042
12.6492	822.4613	32.1238
12.6508	830.983	32.1433
12.6522	835.429	32.1628
12.6541	825.39	32.1824
12.6561	828.206	32.2019
12.6569	829.438	32.2214
12.6583	828.251	32.241
12.6603	824.56	32.2605
12.6619	833.2713	32.28
12.6638	826.875	32.2996
12.666	824.334	32.3191
12.6677	830.209	32.3386
12.66864	830.694	32.3582
12.6688	823.156	32.3777
12.6715	833.194	32.3972
12.6717	831.726	32.4167
12.67507	824.042	32.4363
12.6753	824.931	32.4558
12.6778	834.065	32.4753
12.6796	823.306	32.4949
12.6807	827.351	32.5144
12.68322	833.812	32.5339
12.6848	822.4906	32.5535
12.6854	820.774	32.573
12.68761	834.464	32.5925
12.6897	824.7652	32.6121
12.69091	820.3996	32.6316
12.6931	832.115	32.6511
12.6952	825.3161	32.6707
12.69634	819.876	32.6902
12.6971	829.792	32.7097
12.6996	829.844	32.7292
12.7005	819.714	32.7488
12.7018	830.017	32.7683
12.704	827.757	32.7878
12.7059	820.638	32.8074
12.7068	823.8222	32.8269
12.7102	833.3587	32.8464
12.7112	823.005	32.866
12.7123	822.36	32.8855
12.7141	828.029	32.905
12.7147	826.482	32.9246
12.717	820.711	32.9441
12.7179	833.436	32.9636
12.7213	825.3783	32.9832
12.7218	819.02	33.0027
12.7242	826.653	33.0222
12.7246	830.358	33.0417
12.7275	817.728	33.0613
12.7282	825.299	33.0808
12.7301	830.75	33.1003
12.7318	821.689	33.1199
12.733	821.933	33.1394
12.7348	830.041	33.1589
12.73694	820.718	33.1785
12.7392	822.93	33.198
12.7399	829.864	33.2175
12.7411	821.462	33.2371
12.743	817.72	33.2566
12.74478	829.911	33.2761
12.7474	826.48	33.2957
12.7476	818.833	33.3152
12.7499	826.734	33.3347
12.75085	823.944	33.3542
12.7537	817.819	33.3738
12.7549	825.794	33.3933
12.75608	828.471	33.4128
12.7571	817.976	33.4324
12.7595	826.088	33.4519
12.7617	827.583	33.4714
12.7628	820.979	33.491
12.765	819.238	33.5105
12.7659	830.052	33.53
12.7676	823.389	33.5496
12.7697	819.517	33.5691
12.7705	823.898	33.5886
12.77141	825.141	33.6082
12.7751	816.212	33.6277
12.7763	828.288	33.6472
12.7779	828.5993	33.6667
12.7785	818.564	33.6863
12.7808	822.585	33.7058
12.7812	828.267	33.7253
12.784	818.005	33.7449
12.7852	821.447	33.7644
12.7865	827.724	33.7839
12.78887	819.8205	33.8035
12.7907	816.73	33.823
12.7922	829.133	33.8425
12.79415	820.575	33.8621
12.7948	819.51	33.8816
12.79728	829.0954	33.9011
12.7988	823.177	33.9207
12.8004	814.022	33.9402
12.8016	825.882	33.9597
12.8025	826.364	33.9792
12.8041	816.202	33.9988
12.8063	824.9278	34.0183
12.8083	822.721	34.0378
12.81	817.297	34.0574
12.8105	822.915	34.0769
12.8129	827.958	34.0964
12.8137	818.054	34.116
12.8164	820.81	34.1355
12.817	825.491	34.155
12.8196	820.129	34.1746
12.8211	816.8335	34.1941
12.8229	827.3681	34.2136
12.8243	822.629	34.2332
12.8257	816.11	34.2527
12.8277	821.2226	34.2722
12.8296	823.513	34.2917
12.8318	814.961	34.3113
12.8335	823.1051	34.3308
12.8338	826.902	34.3503
12.8359	816.478	34.3699
12.8374	817.207	34.3894
12.841	827.606	34.4089
12.8399	817.6532	34.4285
12.8431	819.5025	34.448
12.8443	827.529	34.4675
12.8457	820.805	34.4871
12.848	814.976	34.5066
12.8491	825.742	34.5261
12.85	821.148	34.5457
12.8527	814.535	34.5652
12.8543	825.149	34.5847
12.8555	823.862	34.6042
12.857	812.695	34.6238
12.8589	822.644	34.6433
12.8612	825.013	34.6628
12.8622	817.088	34.6824
12.8635	820.6095	34.7019
12.8648	823.423	34.7214
12.8659	815.798	34.741
12.8693	818.272	34.7605
12.8702	827.406	34.78
12.8722	817.448	34.7996
12.8738	815.1366	34.8191
12.8743	821.682	34.8386
12.8762	822.083	34.8582
12.8795	813.073	34.8777
12.87977	822.901	34.8972
12.8817	821.326	34.9167
12.883	814.482	34.9363
12.8851	818.384	34.9558
12.8865	825.671	34.9753
12.8888	814.1626	34.9949
12.8901	820.507	35.0144
12.89198	827.324	35.0339
12.8934	816.2218	35.0535
12.8941	813.811	35.073
12.89571	826.144	35.0925
12.8979	818.692	35.1121
12.9002	815.596	35.1316
12.9017	824.225	35.1511
12.9028	819.461	35.1707
12.9041	811.573	35.1902
12.9055	824.529	35.2097
12.9078	822.346	35.2292
12.9094	813.448	35.2488
12.9104	820.735	35.2683
12.91291	822.443	35.2878
12.9141	812.0882	35.3074
12.9156	816.666	35.3269
12.917	824.469	35.3464
12.9189	814.883	35.366
12.9204	818.639	35.3855
12.92249	821.363	35.405
12.9246	816.102	35.4246
12.9257	813.264	35.4441
12.9275	825.302	35.4636
12.9289	820.144	35.4832
12.9297	814.908	35.5027
12.9322	818.147	35.5222
12.9338	822.659	35.5417
12.935	811.8775	35.5613
12.9365	821.569	35.5808
12.9388	823.003	35.6003
12.9404	814.966	35.6199
12.9426	815.528	35.6394
12.9434	825.422	35.6589
12.94416	812.937	35.6785
12.9463	816.909	35.698
12.9493	823.471	35.7175
12.9506	817.037	35.7371
12.9518	809.708	35.7566
12.9535	824.33	35.7761
12.9538	819.7627	35.7957
12.9569	813.7901	35.8152
12.9576	821.727	35.8347
12.9602	817.978	35.8542
12.9616	810.04	35.8738
12.96321	820.519	35.8933
12.9651	823.084	35.9128
12.9664	811.7	35.9324
12.9675	817.94	35.9519
12.969	822.034	35.9714
12.9709	814.26	35.991
12.9723	813.448	36.0105
12.97379	823.325	36.03
12.976	815.375	36.0496
12.9769	814.205	36.0691
12.9794	819.87	36.0886
12.9811	816.902	36.1082
12.98252	810.826	36.1277
12.9845	821.93	36.1472
12.9856	822.541	36.1667
12.9879	813.341	36.1863
12.9892	814.526	36.2058
12.9904	822.013	36.2253
12.9928	810.757	36.2449
12.9931	815.284	36.2644
12.9955	821.095	36.2839
12.9982	814.117	36.3035
12.9979	810.03	36.323
13.0009	822.547	36.3425
13.0029	814.3161	36.3621
13.0037	812.152	36.3816
13.0045	822.243	36.4011
13.007	816.223	36.4207
13.009	807.86	36.4402
13.0103	818.775	36.4597
13.0118	817.472	36.4792
13.0142	810.559	36.4988
13.01475	817.65	36.5183
13.0173	817.7774	36.5378
13.0177	807.79	36.5574
13.0196	815.453	36.5769
13.0214	820.585	36.5964
13.0223	810.458	36.616
13.02422	812.5191	36.6355
13.0258	816.522	36.655
13.0279	812.65	36.6746
13.0302	810.336	36.6941
13.0304	819.948	36.7136
13.0332	814.904	36.7332
13.035	811.534	36.7527
13.0359	816.831	36.7722
13.0384	819.12	36.7917
13.0401	808.739	36.8113
13.0397	816.325	36.8308
13.0423	821.302	36.8503
13.0447	811.126	36.8699
13.0462	810.377	36.8894
13.04688	820.473	36.9089
13.0494	809.874	36.9285
13.0504	814.248	36.948
13.0525	821.191	36.9675
13.0544	813.073	36.9871
13.05585	807.257	37.0066
13.05776	821.647	37.0261
13.0595	815.296	37.0457
13.0605	808.417	37.0652
13.0631	818.106	37.0847
13.0638	817.207	37.1042
13.0653	807.382	37.1238
13.0669	816.486	37.1433
13.0695	817.0683	37.1628
13.0702	809.794	37.1824
13.0712	815.638	37.2019
13.0735	816.124	37.2214
13.076	807.425	37.241
13.0769	809.786	37.2605
13.0783	821.084	37.28
13.0791	813.7926	37.2996
13.0818	809.935	37.3191
13.0834	817.851	37.3386
13.0856	814.285	37.3582
13.0876	809.713	37.3777
13.0886	819.007	37.3972
13.0908	814.82	37.4167
13.0915	808.095	37.4363
13.0943	810.879	37.4558
13.0946	818.49	37.4753
13.0956	806.903	37.4949
13.0982	812.412	37.5144
13.0995	817.717	37.5339
13.1023	810.082	37.5535
13.1038	805.086	37.573
13.10537	818.411	37.5925
13.1064	810.559	37.6121
13.1083	809.71	37.6316
13.1092	818.137	37.6511
13.1106	813.73	37.6707
13.1127	802.169	37.6902
13.1145	817.365	37.7097
13.1163	815.827	37.7292
13.1174	805.559	37.7488
13.11832	813.6665	37.7683
13.1204	814.873	37.7878
13.1225	805.189	37.8074
13.1233	811.265	37.8269
13.125	816.21	37.8464
13.1275	805.486	37.866
13.1286	808.493	37.8855
13.13	815.123	37.905
13.1316	807.28	37.9246
13.13347	805.75	37.9441
13.1364	816.888	37.9636
13.1374	812.77	37.9832
13.1393	805.885	38.0027
13.14005	810.322	38.0222
13.1422	812.181	38.0417
13.1428	804.59	38.0613
13.1457	813.366	38.0808
13.1473	814.468	38.1003
13.1485	805.121	38.1199
13.1501	805.828	38.1394
13.15223	817.627	38.1589
13.1533	805.213	38.1785
13.1541	808.968	38.198
13.1563	814.882	38.2175
13.1587	810.317	38.2371
13.15932	800.812	38.2566
13.1615	816.173	38.2761
13.1637	809.047	38.2957
13.16426	804.8017	38.3152
13.1661	813.484	38.3347
13.16743	810.195	38.3542
13.1698	800.148	38.3738
13.1716	809.961	38.3933
13.1736	814.847	38.4128
13.1752	804.618	38.4324
13.1756	807.226	38.4519
13.1774	809.956	38.4714
13.1803	801.353	38.491
13.1814	804.242	38.5105
13.1831	812.811	38.53
13.1841	802.218	38.5496
13.1857	800.911	38.5691
13.1869	807.219	38.5886
13.1888	804.288	38.6082
13.1908	795.29	38.6277
13.1921	803.156	38.6472
13.2024	-188.517	38.6667
13.2015	-72.94133	38.6863
13.20069	-41.8066	38.7058
13.2009	-43.942	38.7253
13.2016	-52.7059	38.7449
13.2035	-42.7552	38.7644
13.2047	-40.6975	38.7839
13.2063	-51.2285	38.8035
13.2086	-53.6409	38.823
13.2095	-37.7728	38.8425
13.2118	-47.74099	38.8621
13.2111	-47.5611	38.8816
13.2136	-41.2683	38.9011
13.2166	-44.52	38.9207
13.2176	-54.3995	38.9402
13.2187	-40.8292	38.9597
13.2206	-43.9839	38.9792
13.2228	-52.7997	38.9988
13.22322	-45.4852	39.0183
13.2261	-40.5926	39.0378
13.227	-55.6053	39.0574
13.2291	-47.1336	39.0769
13.2306	-40.78598	39.0964
13.2315	-48.8443	39.116
13.2336	-49.03783	39.1355
13.237	-42.7735	39.155
13.2372	-49.395	39.1746
13.2385	-49.1517	39.1941
13.2402	-40.4741	39.2136
13.2424	-46.0072	39.2332
13.24328	-50.1778	39.2527
13.2451	-46.1843	39.2722
13.2474	-42.8975	39.2917
13.2483	-53.2128	39.3113
13.2499	-43.0059	39.3308
13.2512	-42.4763	39.3503
13.2528	-47.4044	39.3699
13.2546	-50.8351	39.3894
13.25605	-41.1553	39.4089
13.258	-49.7974	39.4285
13.2601	-47.0051	39.448
13.261	-39.4141	39.4675
13.2624	-47.282	39.4871
13.26359	-54.1221	39.5066
13.2661	-40.8823	39.5261
13.2676	-45.6776	39.5457
13.2702	-49.4715	39.5652
13.2709	-43.8099	39.5847
13.2714	-44.7841	39.6042
13.2745	-54.42234	39.6238
13.2754	-42.757	39.6433
13.2776	-42.8372	39.6628
13.2795	-51.2418	39.6824
13.2803	-47.3246	39.7019
13.2825	-41.159	39.7214
13.2832	-52.04221	39.741
13.2855	-49.9088	39.7605
13.2873	-41.5213	39.78
13.2885	-49.7837	39.7996
13.29056	-49.488	39.8191
13.2914	-43.381	39.8386
13.2941	-48.4945	39.8582
13.2955	-48.9726	39.8777
13.2974	-41.4107	39.8972
13.2989	-43.0983	39.9167
13.3	-51.8851	39.9363
13.3017	-47.5824	39.9558
13.3032	-40.72683	39.9753
13.3054	-50.76302	39.9949
13.3071	-45.6425	40.0144
13.3086	-43.56229	40.02417

Data Header:			0.254_hd_uprint_typei_090_r0			Time:	40.64209	s	4/15/2019 3:55:11 PM
Data Acquisition:	Timed
Station Name:	ft40.cfg
Test File Name:	monotonic_0.2540_typei_hd_090_uprint.tst
Displacement	Force	Running Time
mm	N	s
13.30737	-42.94809	40.0339
13.3093	-42.8059	40.0437
13.3105	-47.2992	40.0535
13.3109	-51.0259	40.0632
13.3121	-52.1122	40.073
13.3133	-43.8504	40.0828
13.3129	-40.9934	40.0925
13.3146	-42.1822	40.1023
13.3147	-48.775	40.1121
13.3161	-53.6072	40.1218
13.3166	-50.2318	40.1316
13.31764	-48.39262	40.1414
13.3177	-40.3864	40.1511
13.3196	-42.8466	40.1609
13.3193	-44.6638	40.1707
13.3204	-49.7689	40.18042
13.3207	-55.3205	40.1902
13.3226	-49.31385	40.2
13.3235	-41.969	40.2097
13.3234	-40.42762	40.2195
13.3242	-42.9761	40.2292
13.3256	-52.9048	40.239
13.3268	-50.3092	40.2488
13.3278	-51.1804	40.2585
13.328	-44.3395	40.2683
13.3282	-41.5419	40.2781
13.3298	-44.0178	40.2878
13.33025	-44.0266	40.2976
13.3318	-54.4785	40.3074
13.3312	-50.83279	40.3171
13.3336	-45.0603	40.3269
13.333	-41.607	40.33667
13.33453	-41.1163	40.3464
13.3351	-47.4341	40.3562
13.3357	-49.2627	40.366
13.3372	-51.529	40.3757
13.338	-49.4885	40.3855
13.338	-45.0174	40.3953
13.3393	-42.5716	40.405
13.3403	-41.9846	40.4148
13.3411	-49.72	40.4246
13.3406	-51.0033	40.4343
13.342	-50.4203	40.4441
13.343	-44.6018	40.4539
13.3429	-41.7698	40.4636
13.3441	-43.8957	40.4734
13.3462	-46.8173	40.4832
13.3468	-50.63686	40.49292
13.3472	-49.38731	40.5027
13.3481	-49.5331	40.5125
13.3486	-45.5137	40.5222
13.3503	-40.2556	40.532
13.3508	-44.7469	40.5417
13.35125	-48.258	40.5515
13.3523	-52.4211	40.5613
13.35259	-50.3561	40.571
13.3535	-43.9021	40.5808
13.35505	-45.15921	40.5906
13.3566	-41.8525	40.6003
13.3566	-46.3894	40.6101
13.3565	-49.36935	40.6199
13.3571	-49.0519	40.6296