File: data/processed_data_files/tensile/0.254_hd_dimension_typeiv_4545_r(4).dat
MTS793|BTW|ENU|1|2|.|/|:|1|0|0|A

Data Header:			0.254_hd_dimension_typeiv_4545_r0			Time:	20.0176	s	4/13/2019 8:19:56 PM
Data Acquisition:	Timed
Station Name:	ft40.cfg
Test File Name:	monotonic_0.2540_typeiv_hd_4545_dimension.tst
Displacement	Force	Running Time
mm	N	s
-40.0353	-313.19	0.0227051
-40.034	-310.22	0.0422363
-40.0346	-308.667	0.0617676
-40.03553	-312.113	0.0812988
-40.0339	-311.653	0.10083
-40.0322	-306.783	0.120361
-40.0309	-309.671	0.139893
-40.0284	-308.31	0.159424
-40.0262	-305.698	0.178955
-40.02544	-304.403	0.198486
-40.024	-309.775	0.218018
-40.0211	-303.629	0.237549
-40.0194	-300.706	0.25708
-40.0187	-304.157	0.276611
-40.0168	-306.115	0.296143
-40.0144	-298.403	0.315674
-40.0136	-301.813	0.335205
-40.01189	-301.421	0.354736
-40.0111	-295.879	0.374268
-40.0085	-299.145	0.393799
-40.0073	-305.492	0.41333
-40.0052	-293.849	0.432861
-40.0047	-298.671	0.452393
-40.0025	-300.421	0.471924
-40.0012	-292.916	0.491455
-39.9987	-292.241	0.510986
-39.9973	-298.701	0.530518
-39.996	-292.777	0.550049
-39.9947	-292.178	0.56958
-39.9923	-293.841	0.589111
-39.99155	-291.998	0.608643
-39.9892	-287.904	0.628174
-39.9871	-293.552	0.647705
-39.9856	-290.352	0.667236
-39.9852	-285.571	0.686768
-39.9823	-289.5488	0.706299
-39.9816	-290.764	0.72583
-39.9789	-286.021	0.745361
-39.9779	-285.22	0.764893
-39.9763	-287.874	0.784424
-39.9743	-282.292	0.803955
-39.9719	-283.209	0.823486
-39.9714	-284.461	0.843018
-39.9694	-282.929	0.862549
-39.9673	-277.136	0.88208
-39.9666	-283.714	0.901611
-39.9658	-279.454	0.921143
-39.9626	-274.91	0.940674
-39.9621	-277.567	0.960205
-39.9617	-282.776	0.979736
-39.9591	-272.854	0.999268
-39.9577	-278.819	1.0188
-39.9549	-276.47	1.03833
-39.954	-272.092	1.05786
-39.9523	-272.843	1.07739
-39.9511	-279.034	1.09692
-39.9485	-269.186	1.11646
-39.9475	-269.444	1.13599
-39.9451	-274.804	1.15552
-39.9435	-270.001	1.17505
-39.9427	-266.283	1.19458
-39.94075	-272.854	1.21411
-39.9396	-267.179	1.23364
-39.9372	-264.104	1.25317
-39.9349	-268.752	1.27271
-39.934	-267.055	1.29224
-39.9314	-262.073	1.31177
-39.9312	-267.156	1.3313
-39.9299	-265.507	1.35083
-39.9277	-260.836	1.37036
-39.9258	-262.148	1.38989
-39.9246	-263.142	1.40942
-39.9224	-261.692	1.42896
-39.921	-257.205	1.44849
-39.9204	-262.1543	1.46802
-39.91814	-258.368	1.48755
-39.9163	-254.554	1.50708
-39.9141	-259.422	1.52661
-39.913	-259.998	1.54614
-39.9118	-251.388	1.56567
-39.9097	-256.287	1.58521
-39.909	-255.326	1.60474
-39.9064	-250.672	1.62427
-39.9049	-249.812	1.6438
-39.9025	-255.824	1.66333
-39.9011	-247.341	1.68286
-39.9004	-248.919	1.70239
-39.8982	-251.646	1.72192
-39.8966	-246.0798	1.74146
-39.8959	-244.215	1.76099
-39.8928	-252.043	1.78052
-39.8908	-244.219	1.80005
-39.8892	-242.223	1.81958
-39.8881	-244.457	1.83911
-39.8866	-245.029	1.85864
-39.8854	-238.621	1.87817
-39.884	-244.732	1.89771
-39.8832	-240.92	1.91724
-39.8802	-237.972	1.93677
-39.8799	-240.138	1.9563
-39.8768	-240.869	1.97583
-39.8752	-235.107	1.99536
-39.8738	-236.884	2.01489
-39.8726	-239.7605	2.03442
-39.8709	-236.868	2.05396
-39.8693	-234.439	2.07349
-39.8679	-235.493	2.09302
-39.8662	-235.032	2.11255
-39.8647	-231.0192	2.13208
-39.8625	-233.823	2.15161
-39.85973	-231.749	2.17114
-39.8586	-228.577	2.19067
-39.8574	-229.472	2.21021
-39.85638	-234.241	2.22974
-39.8549	-224.629	2.24927
-39.8522	-227.572	2.2688
-39.8507	-227.585	2.28833
-39.8484	-224.772	2.30786
-39.8469	-221.267	2.32739
-39.845	-228.224	2.34692
-39.8437	-219.367	2.36646
-39.8434	-221.442	2.38599
-39.8401	-223.839	2.40552
-39.8394	-219.918	2.42505
-39.8387	-215.119	2.44458
-39.8358	-221.703	2.46411
-39.8346	-217.714	2.48364
-39.8325	-215.627	2.50317
-39.8311	-216.236	2.52271
-39.8303	-217.5697	2.54224
-39.8275	-212.382	2.56177
-39.82634	-217.637	2.5813
-39.8245	-214.3	2.60083
-39.8234	-209.523	2.62036
-39.821	-212.585	2.63989
-39.8205	-213.855	2.65942
-39.8178	-210.031	2.67896
-39.817	-207.474	2.69849
-39.8154	-209.625	2.71802
-39.8142	-208.868	2.73755
-39.8129	-204.558	2.75708
-39.8108	-206.274	2.77661
-39.8098	-207.3412	2.79614
-39.807	-201.9536	2.81567
-39.8058	-204.433	2.83521
-39.8032	-203.824	2.85474
-39.80175	-199.414	2.87427
-39.8006	-199.736	2.8938
-39.7986	-204.673	2.91333
-39.7977	-196.086	2.93286
-39.7951	-199.073	2.95239
-39.7949	-199.958	2.97192
-39.7929	-194.982	2.99146
-39.78997	-193.252	3.01099
-39.7893	-200.602	3.03052
-39.7871	-192.735	3.05005
-39.7859	-190.707	3.06958
-39.7841	-194.826	3.08911
-39.7832	-193.392	3.10864
-39.7814	-186.206	3.12817
-39.7794	-194.257	3.14771
-39.7778	-189.106	3.16724
-39.7762	-186.747	3.18677
-39.7749	-189.227	3.2063
-39.772	-189.074	3.22583
-39.7713	-182.827	3.24536
-39.7704	-186.921	3.26489
-39.7686	-186.188	3.28442
-39.7664	-183.066	3.30396
-39.7646	-180.558	3.32349
-39.7625	-183.912	3.34302
-39.7607	-182.397	3.36255
-39.7601	-177.002	3.38208
-39.7587	-179.9041	3.40161
-39.7561	-179.127	3.42114
-39.7552	-176.816	3.44067
-39.7527	-177.24	3.46021
-39.7512	-178.323	3.47974
-39.7499	-172.076	3.49927
-39.7478	-173.515	3.5188
-39.7464	-175.823	3.53833
-39.745	-171.021	3.55786
-39.7436	-167.794	3.57739
-39.7421	-176.509	3.59692
-39.7403	-168.0919	3.61646
-39.7382	-167.549	3.63599
-39.7373	-169.56	3.65552
-39.7348	-166.323	3.67505
-39.735	-162.204	3.69458
-39.7314	-171.907	3.71411
-39.731	-164.268	3.73364
-39.7303	-162.457	3.75317
-39.7268	-163.949	3.77271
-39.7254	-163.815	3.79224
-39.72438	-158.945	3.81177
-39.7218	-161.564	3.8313
-39.7212	-161.4471	3.85083
-39.7195	-157.037	3.87036
-39.7179	-157.493	3.88989
-39.7161	-159.126	3.90942
-39.7144	-153.435	3.92896
-39.712	-154.993	3.94849
-39.7109	-157.815	3.96802
-39.7089	-154.058	3.98755
-39.7083	-149.945	4.00708
-39.7059	-152.703	4.02661
-39.704	-152.911	4.04614
-39.7031	-148.6144	4.06567
-39.70137	-149.734	4.08521
-39.7007	-149.813	4.10474
-39.6987	-146.3531	4.12427
-39.6972	-147.529	4.1438
-39.6946	-150.4649	4.16333
-39.692	-142.862	4.18286
-39.6906	-142.353	4.20239
-39.69128	-147.629	4.22192
-39.68819	-141.21	4.24146
-39.6856	-138.591	4.26099
-39.6837	-145.8759	4.28052
-39.6845	-139.372	4.30005
-39.6812	-137.542	4.31958
-39.6799	-139.379	4.33911
-39.6781	-136.473	4.35864
-39.6775	-130.885	4.37817
-39.6763	-139.623	4.39771
-39.67358	-134.587	4.41724
-39.67202	-132.839	4.43677
-39.67104	-131.319	4.4563
-39.6684	-133.133	4.47583
-39.6661	-130.2831	4.49536
-39.66497	-132.177	4.51489
-39.6639	-128.942	4.53442
-39.6623	-127.742	4.55396
-39.6609	-126.583	4.57349
-39.6592	-129.313	4.59302
-39.65852	-125.511	4.61255
-39.6555	-124.393	4.63208
-39.6544	-126.018	4.65161
-39.65218	-126.0463	4.67114
-39.652	-119.104	4.69067
-39.6499	-121.532	4.71021
-39.6472	-123.62	4.72974
-39.646	-118.182	4.74927
-39.644	-118.705	4.7688
-39.6421	-120.115	4.78833
-39.6398	-115.357	4.80786
-39.6395	-114.231	4.82739
-39.6377	-120.632	4.84692
-39.6351	-113.677	4.86646
-39.6354	-109.978	4.88599
-39.6333	-114.4235	4.90552
-39.6316	-112.497	4.92505
-39.6299	-106.478	4.94458
-39.6284	-114.089	4.96411
-39.627	-109.249	4.98364
-39.6236	-106.442	5.00317
-39.622	-107.811	5.02271
-39.6207	-107.641	5.04224
-39.6198	-101.588	5.06177
-39.61842	-106.3327	5.0813
-39.6174	-105.506	5.10083
-39.6153	-102.248	5.12036
-39.6142	-100.359	5.13989
-39.611	-103.165	5.15942
-39.6106	-98.63131	5.17896
-39.60704	-101.056	5.19849
-39.6075	-99.4246	5.21802
-39.6053	-98.2855	5.23755
-39.6038	-93.4415	5.25708
-39.6019	-98.1241	5.27661
-39.6006	-95.7433	5.29614
-39.6001	-92.6043	5.31567
-39.5962	-92.517	5.33521
-39.5942	-95.271	5.35474
-39.5932	-89.6435	5.37427
-39.5924	-90.0561	5.3938
-39.5916	-93.4445	5.41333
-39.5896	-88.3637	5.43286
-39.5874	-85.9913	5.45239
-39.5843	-90.4909	5.47192
-39.583	-86.2886	5.49146
-39.5822	-80.4095	5.51099
-39.5809	-89.3859	5.53052
-39.57896	-83.8824	5.55005
-39.5768	-80.062	5.56958
-39.5757	-84.5835	5.58911
-39.575	-82.2493	5.60864
-39.5738	-75.6113	5.62817
-39.5715	-82.7025	5.64771
-39.5693	-79.11792	5.66724
-39.5683	-74.9635	5.68677
-39.5655	-75.3834	5.7063
-39.5643	-79.334	5.72583
-39.5626	-70.0387	5.74536
-39.5624	-74.4315	5.76489
-39.5597	-74.4798	5.78442
-39.558	-73.5437	5.80396
-39.5575	-69.784	5.82349
-39.555	-72.3182	5.84302
-39.5536	-67.8009	5.86255
-39.5507	-68.49147	5.88208
-39.5494	-68.7815	5.90161
-39.5479	-69.6582	5.92114
-39.5453	-62.0078	5.94067
-39.5455	-64.18	5.96021
-39.5438	-66.3565	5.97974
-39.5409	-63.1081	5.99927
-39.5402	-61	6.0188
-39.5393	-63.99876	6.03833
-39.5373	-58.9755	6.05786
-39.5366	-57.38554	6.07739
-39.5343	-62.6079	6.09692
-39.5316	-56.9603	6.11646
-39.5303	-54.5175	6.13599
-39.5288	-59.4266	6.15552
-39.5279	-56.9233	6.17505
-39.52457	-50.0376	6.19458
-39.5249	-57.196	6.21411
-39.5212	-54.3519	6.23364
-39.5215	-49.8179	6.25317
-39.5204	-52.2145	6.27271
-39.5172	-52.4101	6.29224
-39.5166	-44.553	6.31177
-39.5157	-51.5362	6.3313
-39.5129	-49.7145	6.35083
-39.5107	-45.7314	6.37036
-39.508	-44.7626	6.38989
-39.5072	-48.7639	6.40942
-39.5054	-42.0923	6.42896
-39.5038	-44.05917	6.44849
-39.5027	-43.2038	6.46802
-39.5004	-43.3466	6.48755
-39.4996	-39.59483	6.50708
-39.4979	-41.5175	6.52661
-39.4967	-39.5229	6.54614
-39.4945	-37.8944	6.56567
-39.4928	-36.5555	6.58521
-39.4903	-40.818	6.60474
-39.4904	-31.8453	6.62427
-39.4882	-33.7142	6.6438
-39.4869	-37.3613	6.66333
-39.4856	-32.7344	6.68286
-39.4843	-29.6843	6.70239
-39.4818	-34.8451	6.72192
-39.4797	-28.8337	6.74146
-39.4779	-27.4527	6.76099
-39.4769	-31.20746	6.78052
-39.4751	-27.3343	6.80005
-39.4742	-21.3533	6.81958
-39.4719	-28.6057	6.83911
-39.4695	-27.9859	6.85864
-39.4683	-20.6589	6.87817
-39.4668	-25.4801	6.89771
-39.4644	-24.9205	6.91724
-39.4631	-18.9813	6.93677
-39.4628	-20.0991	6.9563
-39.4604	-23.0028	6.97583
-39.4591	-15.9929	6.99536
-39.4567	-20.931	7.01489
-39.4562	-19.2072	7.03442
-39.4534	-16.9185	7.05396
-39.4514	-12.55214	7.07349
-39.4514	-17.1046	7.09302
-39.4495	-13.0581	7.11255
-39.446	-13.6334	7.13208
-39.4462	-12.8351	7.15161
-39.444	-14.6875	7.17114
-39.4421	-7.053133	7.19067
-39.44	-11.2564	7.21021
-39.4396	-10.9098	7.22974
-39.4377	-7.079968	7.24927
-39.4359	-5.31145	7.2688
-39.4334	-10.7045	7.28833
-39.4317	-4.04174	7.30786
-39.4319	-2.09552	7.32739
-39.43	-5.509563	7.34692
-39.4285	-2.97763	7.36646
-39.42527	0.539796	7.38599
-39.4243	-5.5995	7.40552
-39.4223	-1.21024	7.42505
-39.4214	5.36188	7.44458
-39.4183	-3.12221	7.46411
-39.4181	0.332669	7.48364
-39.4163	6.91738	7.50317
-39.4156	4.11823	7.52271
-39.4125	1.27152	7.54224
-39.4117	9.85853	7.56177
-39.4108	5.82995	7.5813
-39.4075	4.8496	7.60083
-39.4063	10.3126	7.62036
-39.4044	11.1723	7.63989
-39.4034	7.288177	7.65942
-39.402	15.1502	7.67896
-39.4005	12.9054	7.69849
-39.3981	11.98135	7.71802
-39.3964	12.1953	7.73755
-39.3959	17.7683	7.75708
-39.39333	16.1663	7.77661
-39.3908	17.71755	7.79614
-39.3905	17.8309	7.81567
-39.3892	18.911	7.83521
-39.3865	16.062	7.85474
-39.3849	23.80356	7.87427
-39.3835	21.9623	7.8938
-39.3812	19.8572	7.91333
-39.38147	23.2155	7.93286
-39.3782	27.6214	7.95239
-39.3773	22.1996	7.97192
-39.3755	25.4367	7.99146
-39.3738	29.2022	8.01099
-39.3719	25.8221	8.03052
-39.372	25.6342	8.05005
-39.3698	34.0661	8.06958
-39.367	25.64188	8.08911
-39.3649	28.5553	8.10864
-39.3649	35.966	8.12817
-39.3628	30.4486	8.14771
-39.3614	29.1016	8.16724
-39.3596	37.00095	8.18677
-39.3572	35.0216	8.2063
-39.3557	33.1824	8.22583
-39.3549	40.5851	8.24536
-39.3526	37.3557	8.26489
-39.3515	34.7328	8.28442
-39.3503	41.07061	8.30396
-39.3477	44.3469	8.32349
-39.3469	37.02359	8.34302
-39.3447	42.5605	8.36255
-39.3431	44.6434	8.38208
-39.3423	44.2928	8.40161
-39.3404	42.8064	8.42114
-39.3377	50.1033	8.44067
-39.3366	45.7618	8.46021
-39.3344	46.9339	8.47974
-39.3335	48.2822	8.49927
-39.3317	50.0377	8.5188
-39.3303	45.1485	8.53833
-39.329	53.0773	8.55786
-39.32629	53.3902	8.57739
-39.3251	50.7226	8.59692
-39.323	51.958	8.61646
-39.3216	57.72879	8.63599
-39.3187	52.2242	8.65552
-39.31794	56.0005	8.67505
-39.3172	59.8375	8.69458
-39.3161	55.95705	8.71411
-39.31403	56.3538	8.73364
-39.3118	63.9001	8.75317
-39.3101	59.4437	8.77271
-39.3093	59.022	8.79224
-39.3074	67.4615	8.81177
-39.3057	62.8551	8.8313
-39.3039	60.2973	8.85083
-39.30233	67.5916	8.87036
-39.3004	67.0239	8.88989
-39.2985	64.5808	8.90942
-39.2973	71.3994	8.92896
-39.2972	68.8915	8.94849
-39.2938	66.112	8.96802
-39.2935	71.3881	8.98755
-39.2921	76.3137	9.00708
-39.2891	71.0287	9.02661
-39.2864	74.1161	9.04614
-39.28524	75.3581	9.06567
-39.2849	75.204	9.08521
-39.283	74.2256	9.10474
-39.2808	80.1634	9.12427
-39.2795	77.3093	9.1438
-39.278	75.9133	9.16333
-39.2756	78.1632	9.18286
-39.2753	82.18737	9.20239
-39.27256	76.0431	9.22192
-39.2712	83.1712	9.24146
-39.2713	86.6786	9.26099
-39.2686	81.5782	9.28052
-39.266	81.3813	9.30005
-39.2656	88.5079	9.31958
-39.2637	83.0104	9.33911
-39.26046	86.3177	9.35864
-39.2596	92.7505	9.37817
-39.2582	85.90023	9.39771
-39.2571	85.8298	9.41724
-39.2558	94.8075	9.43677
-39.2537	93.2648	9.4563
-39.2511	86.94	9.47583
-39.2502	96.505	9.49536
-39.2508	93.9038	9.51489
-39.2478	91.9579	9.53442
-39.2452	97.9054	9.55396
-39.2428	98.7011	9.57349
-39.2426	94.6033	9.59302
-39.2402	100.022	9.61255
-39.238	100.52	9.63208
-39.2379	98.1347	9.65161
-39.2366	99.2062	9.67114
-39.2335	106.128	9.69067
-39.23283	102.19	9.71021
-39.231	104.207	9.72974
-39.2301	104.465	9.74927
-39.228	107.192	9.7688
-39.2262	102.433	9.78833
-39.2246	111.49	9.80786
-39.2235	110.137	9.82739
-39.2207	105.545	9.84692
-39.2187	109.768	9.86646
-39.2182	115.71	9.88599
-39.2157	107.324	9.90552
-39.2144	112.629	9.92505
-39.214	117.651	9.94458
-39.2108	113.478	9.96411
-39.2091	112.306	9.98364
-39.209	120.705	10.0032
-39.2076	115.274	10.0227
-39.2047	116.842	10.0422
-39.2029	122.4813	10.0618
-39.202	118.343	10.0813
-39.1996	113.153	10.10083
-39.1983	123.457	10.1204
-39.1967	123.122	10.1399
-39.1943	119.262	10.1594
-39.1937	124.143	10.179
-39.1926	125.255	10.1985
-39.1905	122.114	10.218
-39.1895	126.36	10.2375
-39.18803	130.337	10.25708
-39.1855	124.565	10.2766
-39.1841	129.733	10.2961
-39.1823	132.243	10.3157
-39.1813	130.027	10.3352
-39.1786	126.916	10.3547
-39.1761	135.693	10.3743
-39.17487	134.757	10.3938
-39.1743	132.644	10.41333
-39.1722	134.935	10.4329
-39.1716	137.85	10.4524
-39.1693	133.979	10.4719
-39.1671	140.343	10.4915
-39.1664	143.115	10.511
-39.1648	137.631	10.5305
-39.1636	137.94	10.55
-39.1609	145.3132	10.56958
-39.1603	139.219	10.5891
-39.1578	142.8129	10.6086
-39.1564	146.87	10.6282
-39.15453	144.951	10.6477
-39.153	141.973	10.6672
-39.1518	151.438	10.6868
-39.1507	146.368	10.7063
-39.1474	144.203	10.72583
-39.1463	152.935	10.7454
-39.1464	150.356	10.7649
-39.1433	144.458	10.7844
-39.1409	151.887	10.804
-39.1405	154.084	10.8235
-39.1381	150.479	10.843
-39.1359	155.188	10.8625
-39.1351	154.755	10.88208
-39.1333	151.517	10.9016
-39.1321	153.038	10.9211
-39.1307	160.9514	10.9407
-39.1285	154.892	10.9602
-39.1266	157.498	10.9797
-39.124	159.8279	10.9993
-39.1239	162.865	11.0188
-39.1216	158.455	11.03833
-39.1194	164.791	11.0579
-39.1194	165.1152	11.0774
-39.1173	162.515	11.0969
-39.116	164.463	11.1165
-39.1159	169.326	11.136
-39.112	161.95	11.1555
-39.1099	167.888	11.175
-39.1091	173.071	11.19458
-39.1073	168.888	11.2141
-39.105	165.502	11.2336
-39.1031	175.479	11.2532
-39.1027	170.692	11.2727
-39.1003	170.449	11.2922
-39.1002	176.821	11.3118
-39.0973	173.99	11.3313
-39.0966	169.738	11.35083
-39.0938	180.773	11.3704
-39.0922	178.238	11.3899
-39.0907	172.525	11.4094
-39.0901	180.305	11.429
-39.0875	183.626	11.4485
-39.0858	176.181	11.468
-39.0835	181.483	11.4875
-39.0828	184.224	11.50708
-39.0824	178.7662	11.5266
-39.0798	183.963	11.5461
-39.0782	186.97	11.5657
-39.0752	181.71	11.5852
-39.075	183.0266	11.6047
-39.0732	191.571	11.6243
-39.0713	187.251	11.6438
-39.0695	187.06	11.66333
-39.0675	188.695	11.6829
-39.0672	193.294	11.7024
-39.06451	187.981	11.7219
-39.0643	193.911	11.7415
-39.06234	193.863	11.761
-39.0604	191.489	11.7805
-39.0584	191.929	11.8
-39.0573	198.84	11.81958
-39.056	190.207	11.8391
-39.0537	195.944	11.8586
-39.0523	201.22	11.8782
-39.0519	197.184	11.8977
-39.0493	193.714	11.9172
-39.0482	204.502	11.9368
-39.0453	199.285	11.9563
-39.044	200.347	11.97583
-39.0425	204.967	11.9954
-39.04	205.507	12.0149
-39.0393	197.804	12.0344
-39.03907	207.618	12.054
-39.0363	207.674	12.0735
-39.0342	202.441	12.093
-39.0336	208.108	12.1125
-39.0308	211.072	12.13208
-39.0304	205.893	12.1516
-39.02813	209.22	12.1711
-39.0254	215.065	12.1907
-39.0254	210.52	12.2102
-39.0233	211.718	12.2297
-39.0203	216.119	12.2493
-39.02	213.623	12.2688
-39.0177	212.012	12.28833
-39.0167	217.928	12.3079
-39.0147	218.451	12.3274
-39.01371	214.383	12.3469
-39.0118	215.536	12.3665
-39.0104	221.516	12.386
-39.0087	216.506	12.4055
-39.0074	223.253	12.425
-39.0049	224.197	12.44458
-39.0032	220.551	12.4641
-39.0015	219.055	12.4836
-39.0006	230.86	12.5032
-38.9981	222.499	12.5227
-38.9965	222.93	12.5422
-38.9952	229.8495	12.5618
-38.9942	229.999	12.5813
-38.9913	223.782	12.60083
-38.9897	232.642	12.6204
-38.989	228.169	12.6399
-38.9869	227.993	12.6594
-38.9852	233.1261	12.679
-38.9831	235.206	12.6985
-38.9831	226.395	12.718
-38.9795	235.863	12.7375
-38.9792	237.503	12.75708
-38.9772	233.066	12.7766
-38.9757	235.455	12.7961
-38.9741	239.938	12.8157
-38.9721	234.964	12.8352
-38.97073	238.258	12.8547
-38.9684	243.583	12.8743
-38.9673	240.609	12.8938
-38.9664	239.575	12.91333
-38.9645	243.896	12.9329
-38.9623	244.799	12.9524
-38.9609	240.036	12.9719
-38.9606	246.673	12.9915
-38.9576	247.2307	13.011
-38.9566	245.665	13.0305
-38.9552	243.369	13.05
-38.95295	250.884	13.06958
-38.951	245.33	13.0891
-38.9511	249.922	13.1086
-38.9479	254.6286	13.1282
-38.9458	251.452	13.1477
-38.9454	244.467	13.1672
-38.94384	257.55	13.1868
-38.9421	254.066	13.2063
-38.9409	251.264	13.22583
-38.9395	257.154	13.2454
-38.9367	256.923	13.2649
-38.9359	250.282	13.2844
-38.9336	259.228	13.304
-38.93166	259.589	13.3235
-38.9294	254.528	13.343
-38.9279	260.898	13.3625
-38.92659	265.037	13.38208
-38.9253	256.871	13.4016
-38.9245	261.132	13.4211
-38.9228	265.605	13.4407
-38.92149	261.704	13.4602
-38.9194	264.184	13.4797
-38.9175	266.4191	13.4993
-38.9157	263.2449	13.5188
-38.9134	264.786	13.53833
-38.9127	270.412	13.5579
-38.9112	269.997	13.5774
-38.9095	266.593	13.5969
-38.9074	270.427	13.6165
-38.9046	273.514	13.636
-38.90414	267.8584	13.6555
-38.9021	272.2912	13.675
-38.9017	274.3967	13.69458
-38.8994	272.991	13.7141
-38.8983	271.841	13.7336
-38.8959	280.5921	13.7532
-38.8948	274.234	13.7727
-38.8933	275.6236	13.7922
-38.8913	282.08	13.8118
-38.8892	281.341	13.8313
-38.8873	274.041	13.85083
-38.8865	284.451	13.8704
-38.88467	282.387	13.8899
-38.8822	280.088	13.9094
-38.8818	284.518	13.929
-38.8798	286.547	13.9485
-38.8778	278.709	13.968
-38.878	287.963	13.9875
-38.8746	288.272	14.00708
-38.8735	284.045	14.0266
-38.87162	286.711	14.0461
-38.8708	292.726	14.0657
-38.8676	283.914	14.0852
-38.8663	289.506	14.1047
-38.8654	292.478	14.1243
-38.8635	291.468	14.1438
-38.8619	291.471	14.16333
-38.859	294.0213	14.1829
-38.8583	293.175	14.2024
-38.8573	291.294	14.2219
-38.8542	296.665	14.2415
-38.8533	297.145	14.261
-38.85236	296.088	14.2805
-38.8507	296.125	14.3
-38.8483	301.171	14.31958
-38.8476	296.396	14.3391
-38.846	299.016	14.3586
-38.8442	303.28	14.3782
-38.8419	301.254	14.3977
-38.8392	296.2135	14.4172
-38.8387	307.281	14.4368
-38.837	302.47	14.4563
-38.836	301.109	14.47583
-38.8337	306.961	14.4954
-38.8323	309.018	14.5149
-38.8322	300.715	14.5344
-38.8296	309.317	14.554
-38.8275	308.576	14.5735
-38.8257	307.681	14.593
-38.8242	310.918	14.6125
-38.8229	314.815	14.63208
-38.8214	304.525	14.6516
-38.8196	312.746	14.6711
-38.8189	314.945	14.6907
-38.8161	312.6059	14.7102
-38.8141	312.603	14.7297
-38.8124	318.113	14.7493
-38.8136	312.799	14.7688
-38.8097	315.744	14.78833
-38.8086	318.782	14.8079
-38.8061	317.9144	14.8274
-38.8051	316.3208	14.8469
-38.8039	320.6098	14.8665
-38.80191	322.813	14.886
-38.7999	315.82	14.9055
-38.7984	318.996	14.925
-38.7969	324.322	14.94458
-38.7952	321.27	14.9641
-38.7933	319.636	14.9836
-38.791	327.067	15.0032
-38.7901	323.864	15.0227
-38.7891	325.516	15.0422
-38.7877	329.69	15.0618
-38.7858	328.9895	15.0813
-38.7832	321.896	15.10083
-38.7827	332.654	15.1204
-38.7801	330.578	15.1399
-38.7782	327.452	15.1594
-38.7771	330.709	15.179
-38.7756	335.869	15.1985
-38.7739	327.672	15.218
-38.7723	334.801	15.2375
-38.7699	334.613	15.25708
-38.7691	332.425	15.2766
-38.7679	336.503	15.2961
-38.7655	340.621	15.3157
-38.7645	332.692	15.3352
-38.7615	335.254	15.3547
-38.761	340.214	15.3743
-38.7589	339.792	15.3938
-38.7573	337.824	15.41333
-38.7558	342.161	15.4329
-38.75515	339.525	15.4524
-38.7531	339.17	15.4719
-38.7514	344.496	15.4915
-38.7493	346.126	15.511
-38.7478	339.9321	15.5305
-38.7467	343.121	15.55
-38.7447	347.742	15.56958
-38.7433	344.5433	15.5891
-38.7415	344.531	15.6086
-38.7387	349.462	15.6282
-38.7381	349.476	15.6477
-38.7366	346.111	15.6672
-38.7358	351.005	15.6868
-38.7329	349.419	15.7063
-38.732	348.165	15.72583
-38.7305	353.669	15.7454
-38.7296	356.113	15.7649
-38.7281	347.497	15.7844
-38.7249	355.887	15.804
-38.7239	356.0914	15.8235
-38.7216	353.8689	15.843
-38.7199	355.783	15.8625
-38.7186	359.996	15.88208
-38.71666	352.457	15.9016
-38.7158	359.752	15.9211
-38.714	362.129	15.9407
-38.7112	358.004	15.9602
-38.7108	358.186	15.9797
-38.7084	365.383	15.9993
-38.7076	358.316	16.0188
-38.7055	359.24	16.03833
-38.7047	363.593	16.0579
-38.7004	365.035	16.0774
-38.7001	363	16.0969
-38.6997	366.806	16.1165
-38.6982	364.145	16.136
-38.6962	363.1886	16.1555
-38.695	365.764	16.175
-38.6936	370.225	16.19458
-38.6927	365.589	16.2141
-38.6894	366.55	16.2336
-38.6886	370.984	16.2532
-38.6868	368.573	16.2727
-38.684	368.155	16.2922
-38.6828	373.2851	16.3118
-38.6822	372.709	16.3313
-38.6802	368.742	16.35083
-38.6783	375.445	16.3704
-38.676	374.353	16.3899
-38.6749	370.257	16.4094
-38.6722	376.481	16.429
-38.6729	381.391	16.4485
-38.6693	369.496	16.468
-38.6688	376.906	16.4875
-38.6663	380.084	16.50708
-38.666	376.44	16.5266
-38.66251	379.029	16.5461
-38.6621	384.292	16.5657
-38.6595	375.138	16.5852
-38.6584	381.619	16.6047
-38.6569	382.813	16.6243
-38.6543	381.843	16.6438
-38.6534	378.271	16.66333
-38.65184	386.3	16.6829
-38.6502	383.1647	16.7024
-38.6491	383.555	16.7219
-38.6467	384.573	16.7415
-38.64629	387.422	16.761
-38.64447	384.257	16.7805
-38.6424	387.8927	16.8
-38.6404	390.027	16.81958
-38.6382	386.79	16.8391
-38.6368	387.633	16.8586
-38.6363	392.666	16.8782
-38.6338	391.333	16.8977
-38.6324	389.398	16.9172
-38.6305	393.245	16.9368
-38.6289	392.267	16.9563
-38.6278	388.9241	16.97583
-38.62537	395.49	16.9954
-38.6245	395.9133	17.0149
-38.6231	389.156	17.0344
-38.6208	396.979	17.054
-38.6206	398.084	17.0735
-38.6184	393.958	17.093
-38.6169	396.529	17.1125
-38.61467	402.718	17.13208
-38.6123	394.56	17.1516
-38.61203	398.6785	17.1711
-38.6089	400.939	17.1907
-38.6083	398.683	17.2102
-38.6064	399.042	17.2297
-38.6048	407.029	17.2493
-38.603	399.049	17.2688
-38.6021	401.0538	17.28833
-38.5997	404.308	17.3079
-38.5983	407.281	17.3274
-38.5968	400.831	17.3469
-38.5951	406.771	17.3665
-38.5928	404.18	17.386
-38.5915	405.422	17.4055
-38.5913	406.56	17.425
-38.5883	410.069	17.44458
-38.5867	407.466	17.4641
-38.5872	407.93	17.4836
-38.584	409.644	17.5032
-38.5833	411.43	17.5227
-38.5806	405.672	17.5422
-38.579	413.821	17.5618
-38.5772	413.312	17.5813
-38.5754	408.826	17.60083
-38.574	413.641	17.6204
-38.5721	415.474	17.6399
-38.5715	410.1575	17.6594
-38.5687	414.197	17.679
-38.5668	419.907	17.6985
-38.5652	409.2417	17.718
-38.56316	415.258	17.7375
-38.5631	420.785	17.75708
-38.5624	415.3132	17.7766
-38.55941	414.947	17.7961
-38.5576	423.365	17.8157
-38.5568	416.967	17.8352
-38.5549	419.205	17.8547
-38.5533	423.329	17.8743
-38.5514	419.892	17.8938
-38.55	419.068	17.91333
-38.5484	426.394	17.9329
-38.5458	421.0097	17.9524
-38.5456	420.016	17.9719
-38.5435	422.945	17.9915
-38.5415	427.4502	18.011
-38.5412	423.434	18.0305
-38.5385	425.123	18.05
-38.5364	426.422	18.06958
-38.5355	424.486	18.0891
-38.5333	425.894	18.1086
-38.5312	431.015	18.1282
-38.5299	426.466	18.1477
-38.5295	426.255	18.1672
-38.5262	430.192	18.1868
-38.5249	430.1665	18.2063
-38.5241	426.586	18.22583
-38.522	431.335	18.2454
-38.5205	432.8591	18.2649
-38.5195	428.683	18.2844
-38.5173	431.377	18.304
-38.5169	434.56	18.3235
-38.51413	428.537	18.343
-38.512	432.66	18.3625
-38.51062	438.596	18.38208
-38.5099	428.814	18.4016
-38.5073	433.1066	18.4211
-38.5058	436.7822	18.4407
-38.5047	436.311	18.4602
-38.502	432.706	18.4797
-38.5005	440.0238	18.4993
-38.4996	434.224	18.5188
-38.4982	435.562	18.53833
-38.4962	439.944	18.5579
-38.4938	439.378	18.5774
-38.4924	433.542	18.5969
-38.4922	441.171	18.6165
-38.4898	439.786	18.636
-38.4888	438.32	18.6555
-38.4863	438.046	18.675
-38.4842	444.196	18.69458
-38.48193	439.207	18.7141
-38.4817	442.265	18.7336
-38.48	442.973	18.7532
-38.4767	441.014	18.7727
-38.4761	439.8	18.7922
-38.4744	446.843	18.8118
-38.47319	443.838	18.8313
-38.4716	440.442	18.85083
-38.4701	443.571	18.8704
-38.46838	447.618	18.8899
-38.4663	442.225	18.9094
-38.4664	445.656	18.929
-38.4636	446.886	18.9485
-38.4609	441.565	18.968
-38.4597	446.257	18.9875
-38.4584	450.54	19.00708
-38.457	443.256	19.0266
-38.4545	445.307	19.0461
-38.4544	452.985	19.0657
-38.4514	445.284	19.0852
-38.4509	446.73	19.1047
-38.4486	452.749	19.1243
-38.4468	450.882	19.1438
-38.4453	447.9361	19.16333
-38.4445	453.636	19.1829
-38.4424	448.993	19.2024
-38.4404	448.877	19.2219
-38.4387	453.444	19.2415
-38.4377	455.382	19.261
-38.4357	449.241	19.2805
-38.43428	453.747	19.3
-38.4324	452.829	19.31958
-38.43063	452.357	19.3391
-38.4293	450.867	19.3586
-38.427	458.296	19.3782
-38.4261	453.06	19.3977
-38.4244	452.792	19.4172
-38.4224	454.773	19.4368
-38.4211	454.969	19.4563
-38.4188	450.716	19.47583
-38.4182	459.037	19.4954
-38.4156	459.901	19.5149
-38.4132	452.47	19.5344
-38.4128	455.681	19.554
-38.4118	461.193	19.5735
-38.4106	453.277	19.593
-38.40744	457.845	19.6125
-38.4075	461.447	19.63208
-38.4048	455.167	19.6516
-38.4022	455.665	19.6711
-38.4017	464.323	19.6907
-38.4002	457.279	19.7102
-38.3983	456.232	19.7297
-38.3975	464.508	19.7493
-38.3946	457.847	19.7688
-38.3934	457.806	19.78833
-38.3923	462.312	19.8079
-38.3907	461.789	19.8274
-38.3889	456.424	19.8469
-38.3864	463.536	19.8665
-38.3843	461.318	19.886
-38.3842	458.364	19.9055
-38.3818	459.892	19.925
-38.3805	466.227	19.94458
-38.3787	461.379	19.9641
-38.3776	462.573	19.9836
-38.3759	464.389	20.0032
-38.3739	464.466	20.0129

Data Header:			0.254_hd_dimension_typeiv_4545_r0			Time:	40.0181	s	4/13/2019 8:20:16 PM
Data Acquisition:	Timed
Station Name:	ft40.cfg
Test File Name:	monotonic_0.2540_typeiv_hd_4545_dimension.tst
Displacement	Force	Running Time
mm	N	s
-38.3734	464.366	20.0227
-38.3717	460.985	20.0422
-38.3712	467.418	20.0618
-38.3675	462.2189	20.0813
-38.3671	459.5834	20.10083
-38.3654	463.7489	20.1204
-38.3636	465.747	20.1399
-38.3617	458.138	20.1594
-38.3606	464.626	20.179
-38.3598	469.587	20.1985
-38.3577	462.459	20.218
-38.3573	461.925	20.2375
-38.354	467.472	20.25708
-38.352	460.8645	20.2766
-38.35215	464.207	20.2961
-38.3485	469.505	20.3157
-38.348	463.731	20.3352
-38.3466	462.356	20.3547
-38.3442	469.834	20.3743
-38.3437	467.615	20.3938
-38.341	462.3869	20.41333
-38.3399	468.948	20.4329
-38.3369	466.573	20.4524
-38.3362	463.257	20.4719
-38.3349	467.842	20.4915
-38.3322	468.16	20.511
-38.3321	462.952	20.5305
-38.3294	468.004	20.55
-38.3286	469.891	20.56958
-38.3263	465.472	20.5891
-38.3247	465.206	20.6086
-38.3247	471.498	20.6282
-38.3217	466.429	20.6477
-38.3205	466.799	20.6672
-38.3185	467.7038	20.6868
-38.3169	468.245	20.7063
-38.3156	463.553	20.72583
-38.313	470.878	20.7454
-38.31181	468.662	20.7649
-38.3107	464.295	20.7844
-38.3088	466.292	20.804
-38.3067	473.651	20.8235
-38.3056	464.594	20.843
-38.3025	467.814	20.8625
-38.3025	472.4614	20.88208
-38.3011	467.528	20.9016
-38.2993	466.373	20.9211
-38.2968	473.653	20.9407
-38.2954	465.272	20.9602
-38.2943	463.9425	20.9797
-38.2931	472.922	20.9993
-38.2907	468.097	21.0188
-38.2891	462.057	21.03833
-38.2865	470.071	21.0579
-38.2855	470.6561	21.0774
-38.2846	464.046	21.0969
-38.2829	470.556	21.1165
-38.28	467.745	21.136
-38.2797	465.0029	21.1555
-38.27766	466.464	21.175
-38.2752	474.417	21.19458
-38.2739	464.856	21.2141
-38.2728	467.829	21.2336
-38.2707	470.688	21.2532
-38.2696	469.25	21.2727
-38.2687	465.772	21.2922
-38.266	470.961	21.3118
-38.2643	468.792	21.3313
-38.2629	467.04	21.35083
-38.26033	468.121	21.3704
-38.2594	470.334	21.3899
-38.2587	464.175	21.4094
-38.2561	472.254	21.429
-38.2552	472.83	21.4485
-38.2527	466.152	21.468
-38.2509	465.628	21.4875
-38.25021	473.401	21.50708
-38.2491	466.846	21.5266
-38.24744	466.884	21.5461
-38.2446	472.661	21.5657
-38.2434	466.246	21.5852
-38.2427	465.185	21.6047
-38.2408	472.8432	21.6243
-38.2388	467.134	21.6438
-38.2363	464.773	21.66333
-38.2352	472.738	21.6829
-38.2337	470.427	21.7024
-38.2313	464.77	21.7219
-38.2312	468.941	21.7415
-38.2287	471.043	21.761
-38.2271	464.965	21.7805
-38.2252	469.601	21.8
-38.2245	472.508	21.81958
-38.2227	465.412	21.8391
-38.2224	467.53	21.8586
-38.2185	473.443	21.8782
-38.2176	468.162	21.8977
-38.2158	467.5173	21.9172
-38.2132	469.53	21.9368
-38.2126	471.633	21.9563
-38.2119	465.811	21.97583
-38.2099	472.03	21.9954
-38.2083	470.112	22.0149
-38.2061	467.305	22.0344
-38.205	468.525	22.054
-38.2029	474.911	22.0735
-38.2009	466.211	22.093
-38.1988	470.0574	22.1125
-38.1987	473.308	22.13208
-38.1967	467.796	22.1516
-38.1945	465.187	22.1711
-38.193	473.58	22.1907
-38.1908	467.299	22.2102
-38.1907	467.85	22.2297
-38.1889	473.3884	22.2493
-38.1872	469.548	22.2688
-38.1854	463.253	22.28833
-38.1828	472.89	22.3079
-38.1811	471.151	22.3274
-38.1811	464.84	22.3469
-38.1801	471.029	22.3665
-38.1767	471.912	22.386
-38.175	464.552	22.4055
-38.1739	470.509	22.425
-38.172	471.686	22.44458
-38.1709	466.2395	22.4641
-38.1685	469.479	22.4836
-38.16605	471.686	22.5032
-38.1656	468.2384	22.5227
-38.1644	465.517	22.5422
-38.16227	474.467	22.5618
-38.1605	468.81	22.5813
-38.1595	468.88	22.60083
-38.1568	469.607	22.6204
-38.1545	471.727	22.6399
-38.1536	465.405	22.6594
-38.1522	472.533	22.679
-38.1507	471.281	22.6985
-38.148	467.548	22.718
-38.1479	468.671	22.7375
-38.147	474.809	22.75708
-38.1449	466.328	22.7766
-38.1426	468.229	22.7961
-38.1413	474.178	22.8157
-38.1392	469.3	22.8352
-38.13707	465.084	22.8547
-38.1361	474.575	22.8743
-38.1345	468.889	22.8938
-38.132	467.743	22.91333
-38.1313	473.508	22.9329
-38.1294	472.309	22.9524
-38.1271	463.5141	22.9719
-38.1268	470.851	22.9915
-38.1244	474.104	23.011
-38.1225	468.505	23.0305
-38.1222	470.634	23.05
-38.1208	473.49	23.06958
-38.1183	464.838	23.0891
-38.117	469.773	23.1086
-38.1143	474.354	23.1282
-38.11274	467.866	23.1477
-38.1113	468.994	23.1672
-38.11	472.618	23.1868
-38.1078	471.887	23.2063
-38.107	466.655	23.22583
-38.1053	473.497	23.2454
-38.1041	472.04	23.2649
-38.1017	468.596	23.2844
-38.1011	468.495	23.304
-38.0988	473.163	23.3235
-38.097	466.608	23.343
-38.0951	470.9166	23.3625
-38.0938	474.586	23.38208
-38.0929	470.628	23.4016
-38.09	464.533	23.4211
-38.0879	475.984	23.4407
-38.087	468.81	23.4602
-38.0858	467.36	23.4797
-38.08342	473.529	23.4993
-38.0813	471.913	23.5188
-38.0818	464.9025	23.53833
-38.0787	474.51	23.5579
-38.0771	470.536	23.5774
-38.075	466.977	23.5969
-38.0739	470.997	23.6165
-38.0729	474.915	23.636
-38.0715	465.7403	23.6555
-38.0696	470.37	23.675
-38.0683	471.519	23.69458
-38.0659	467.147	23.7141
-38.0647	469.794	23.7336
-38.06308	472.815	23.7532
-38.0614	467.062	23.7727
-38.0593	468.369	23.7922
-38.0573	473.682	23.8118
-38.0557	469.709	23.8313
-38.0556	468.509	23.85083
-38.0531	471.748	23.8704
-38.0512	473.013	23.8899
-38.0498	466.293	23.9094
-38.0482	470.803	23.929
-38.0466	471.486	23.9485
-38.0449	468.529	23.968
-38.0446	467.784	23.9875
-38.0415	475.082	24.00708
-38.0403	467.475	24.0266
-38.0385	469.8367	24.0461
-38.0367	475.79	24.0657
-38.0362	472.436	24.0852
-38.0331	465.1394	24.1047
-38.03231	475.735	24.1243
-38.031	471.794	24.1438
-38.0286	468.232	24.16333
-38.02655	474.97	24.1829
-38.0258	473.95	24.2024
-38.0235	463.596	24.2219
-38.0217	474.665	24.2415
-38.0201	472.318	24.261
-38.0194	467.272	24.2805
-38.0167	470.756	24.3
-38.0155	475.168	24.31958
-38.0134	466.293	24.3391
-38.0122	468.962	24.3586
-38.0117	473.608	24.3782
-38.0093	468.498	24.3977
-38.00848	469.328	24.4172
-38.0068	473.186	24.4368
-38.0048	467.825	24.4563
-38.0038	466.08	24.47583
-38.0006	472.277	24.4954
-37.9986	471.213	24.5149
-37.9976	468.758	24.5344
-37.9963	468.724	24.554
-37.9941	471.96	24.5735
-37.9928	467.849	24.593
-37.9907	471.171	24.6125
-37.99017	472.037	24.63208
-37.9875	469.509	24.6516
-37.9866	467.8761	24.6711
-37.9851	476.231	24.6907
-37.9838	469.135	24.7102
-37.9814	467.9324	24.7297
-37.9795	473.776	24.7493
-37.9786	471.582	24.7688
-37.9767	465.065	24.78833
-37.976	474.775	24.8079
-37.97435	470.081	24.8274
-37.9723	467.543	24.8469
-37.9699	474.086	24.8665
-37.969	474.3	24.886
-37.968	464.426	24.9055
-37.9647	472.265	24.925
-37.9626	472.62	24.94458
-37.9616	470.652	24.9641
-37.9604	468.577	24.9836
-37.95903	473.933	25.0032
-37.95591	467.997	25.0227
-37.9554	470.415	25.0422
-37.9538	473.617	25.0618
-37.9527	469.883	25.0813
-37.9508	466.883	25.10083
-37.9491	474.146	25.1204
-37.9471	470.734	25.1399
-37.946	469.231	25.1594
-37.9432	471.878	25.179
-37.9421	473.952	25.1985
-37.9407	469.119	25.218
-37.9378	470.118	25.2375
-37.9381	474.188	25.25708
-37.9362	467.744	25.2766
-37.93401	470.67	25.2961
-37.9325	472.445	25.3157
-37.9313	470.3812	25.3352
-37.9294	465.561	25.3547
-37.9279	475.1525	25.3743
-37.92662	470.341	25.3938
-37.924	468.1442	25.41333
-37.9229	471.9245	25.4329
-37.9211	472.154	25.4524
-37.9195	463.974	25.4719
-37.9167	473.253	25.4915
-37.9168	471.19	25.511
-37.9148	467.263	25.5305
-37.9136	470.264	25.55
-37.911	475.721	25.56958
-37.91008	464.585	25.5891
-37.9084	470.915	25.6086
-37.9071	473	25.6282
-37.9043	470.046	25.6477
-37.9045	468.604	25.6672
-37.9016	473.667	25.6868
-37.8998	467.373	25.7063
-37.8994	468.987	25.72583
-37.89653	473.775	25.7454
-37.8954	472.744	25.7649
-37.8937	467.66	25.7844
-37.8922	471.453	25.804
-37.8904	471.665	25.8235
-37.889	468.185	25.843
-37.8876	470.608	25.8625
-37.8853	471.632	25.88208
-37.8834	469.685	25.9016
-37.8828	468.871	25.9211
-37.8808	473.948	25.9407
-37.87915	467.312	25.9602
-37.8772	467.48	25.9797
-37.8758	473.253	25.9993
-37.8731	472.375	26.0188
-37.87204	465.713	26.03833
-37.8722	474.1514	26.0579
-37.8695	472.144	26.0774
-37.8681	467.168	26.0969
-37.8658	472.2894	26.1165
-37.864	472.887	26.136
-37.8612	464.088	26.1555
-37.8615	471.813	26.175
-37.8609	473.116	26.19458
-37.85828	468.83	26.2141
-37.8568	469.761	26.2336
-37.8545	474.7988	26.2532
-37.8536	467.566	26.2727
-37.851	469.405	26.2922
-37.8486	472.418	26.3118
-37.8481	470.112	26.3313
-37.8472	468.911	26.35083
-37.8447	473.896	26.3704
-37.8433	470.002	26.3899
-37.8422	468.7662	26.4094
-37.8386	472.293	26.429
-37.8387	474.027	26.4485
-37.8375	468.99	26.468
-37.8351	468.557	26.4875
-37.8342	471.349	26.50708
-37.8306	469.405	26.5266
-37.82983	467.144	26.5461
-37.8276	472.428	26.5657
-37.8269	470.0466	26.5852
-37.8261	465.92	26.6047
-37.8247	474.811	26.6243
-37.8213	471.141	26.6438
-37.8204	467.7933	26.66333
-37.8197	471.804	26.6829
-37.8167	472.423	26.7024
-37.8157	464.64	26.7219
-37.813	472.0676	26.7415
-37.8119	472.3894	26.761
-37.8098	466.834	26.7805
-37.8094	471.501	26.8
-37.8079	474.261	26.81958
-37.8061	464.129	26.8391
-37.8029	469.739	26.8586
-37.8021	473.724	26.8782
-37.7998	471.509	26.8977
-37.7987	468.0589	26.9172
-37.7977	476.833	26.9368
-37.79665	468.594	26.9563
-37.7939	468.673	26.97583
-37.7927	470.759	26.9954
-37.7909	471.667	27.0149
-37.789	467.95	27.0344
-37.7889	471.895	27.054
-37.7863	471.768	27.0735
-37.7843	468.549	27.093
-37.784	469.7551	27.1125
-37.7799	474.571	27.13208
-37.78019	471.039	27.1516
-37.7773	469.818	27.1711
-37.7754	471.0625	27.1907
-37.7748	467.958	27.2102
-37.7731	467.863	27.2297
-37.7707	473.581	27.2493
-37.7702	471.118	27.2688
-37.769	464.638	27.28833
-37.7663	470.477	27.3079
-37.7645	472.708	27.3274
-37.7631	465.733	27.3469
-37.7619	470.7	27.3665
-37.7606	473.694	27.386
-37.7585	465.633	27.4055
-37.7569	471.012	27.425
-37.7546	472.331	27.44458
-37.7543	468.012	27.4641
-37.7517	469.164	27.4836
-37.7506	477.189	27.5032
-37.7486	466.344	27.5227
-37.7471	467.295	27.5422
-37.7452	473.401	27.5618
-37.7438	471.807	27.5813
-37.7427	467.576	27.60083
-37.7415	474.4122	27.6204
-37.7397	467.374	27.6399
-37.7374	468.695	27.6594
-37.7361	472.044	27.679
-37.7339	473.57	27.6985
-37.7325	467.447	27.718
-37.7307	470.936	27.7375
-37.7288	472.673	27.75708
-37.7279	470.857	27.7766
-37.7256	468.02	27.7961
-37.725	473.436	27.8157
-37.7234	469.3656	27.8352
-37.7209	468.29	27.8547
-37.7201	470.99	27.8743
-37.7172	471.199	27.8938
-37.7156	466.834	27.91333
-37.7148	473.309	27.9329
-37.7135	473.511	27.9524
-37.711	465.535	27.9719
-37.7096	470.224	27.9915
-37.7084	474.42	28.011
-37.7072	466.743	28.0305
-37.7056	469.545	28.05
-37.7034	473.98	28.06958
-37.7017	468.4072	28.0891
-37.7004	469.78	28.1086
-37.6992	473.422	28.1282
-37.6958	468.285	28.1477
-37.6945	467.362	28.1672
-37.6935	475.067	28.1868
-37.6914	468.794	28.2063
-37.6902	467.581	28.22583
-37.6887	471.261	28.2454
-37.6866	472.2616	28.2649
-37.6852	467.588	28.2844
-37.6846	472.664	28.304
-37.6814	468.986	28.3235
-37.6795	466.884	28.343
-37.679	468.4075	28.3625
-37.6777	474.24	28.38208
-37.6754	468.009	28.4016
-37.6737	468.564	28.4211
-37.673	469.999	28.4407
-37.6706	472.478	28.4602
-37.6687	466.687	28.4797
-37.6673	473.154	28.4993
-37.6655	472.399	28.5188
-37.6647	467.855	28.53833
-37.6629	470.5643	28.5579
-37.6608	471.936	28.5774
-37.6602	464.406	28.5969
-37.6574	471.367	28.6165
-37.655	473.097	28.636
-37.6549	467.864	28.6555
-37.6518	468.986	28.675
-37.6517	473.925	28.69458
-37.6498	467.06	28.7141
-37.6474	469.558	28.7336
-37.6462	475.694	28.7532
-37.6446	466.795	28.7727
-37.64315	466.577	28.7922
-37.6415	473.823	28.8118
-37.64	473.322	28.8313
-37.6381	466.927	28.85083
-37.63649	473.629	28.8704
-37.6351	469.611	28.8899
-37.6338	467.259	28.9094
-37.6325	470.077	28.929
-37.6308	472.312	28.9485
-37.6286	467.309	28.968
-37.62693	473.224	28.9875
-37.6242	472.8194	29.00708
-37.6236	468.57	29.0266
-37.6219	468.218	29.0461
-37.619	474.892	29.0657
-37.618	469.552	29.0852
-37.6165	468.678	29.1047
-37.6155	469.249	29.1243
-37.613	472.182	29.1438
-37.612	466.489	29.16333
-37.6112	473.178	29.1829
-37.61039	471.324	29.2024
-37.6076	467.665	29.2219
-37.6056	469.7832	29.2415
-37.6042	474.342	29.261
-37.6023	465.493	29.2805
-37.6017	469.122	29.3
-37.59869	474.214	29.31958
-37.5977	467.876	29.3391
-37.5962	467.879	29.3586
-37.5941	473.502	29.3782
-37.5921	468.097	29.3977
-37.5899	466.514	29.4172
-37.58926	474.798	29.4368
-37.58823	468.111	29.4563
-37.5862	463.507	29.47583
-37.5841	471.195	29.4954
-37.5838	473.453	29.5149
-37.5812	466.962	29.5344
-37.5799	471.021	29.554
-37.578	469.996	29.5735
-37.5771	466.209	29.593
-37.5745	471.004	29.6125
-37.5722	473.481	29.63208
-37.5702	468.066	29.6516
-37.5696	468.736	29.6711
-37.56879	472.153	29.6907
-37.5659	470.746	29.7102
-37.56427	466.809	29.7297
-37.563	472.28	29.7493
-37.5619	471.71	29.7688
-37.5597	469.556	29.78833
-37.558	469.858	29.8079
-37.5567	472.184	29.8274
-37.5561	466.096	29.8469
-37.5534	472.395	29.8665
-37.5522	474.3	29.886
-37.552	468.123	29.9055
-37.5496	467.126	29.925
-37.5457	474.019	29.94458
-37.5452	467.1459	29.9641
-37.543	469.454	29.9836
-37.5418	473.027	30.0032
-37.5407	468.738	30.0227
-37.54	465.469	30.0422
-37.5366	473.842	30.0618
-37.535	468.579	30.0813
-37.5349	465.824	30.10083
-37.5318	473.252	30.1204
-37.5293	471.287	30.1399
-37.5293	465.689	30.1594
-37.5284	470.204	30.179
-37.5263	470.666	30.1985
-37.5241	464.89	30.218
-37.5226	470.606	30.2375
-37.52	470.009	30.25708
-37.52021	467.981	30.2766
-37.5175	468.629	30.2961
-37.5151	474.956	30.3157
-37.5151	467.8205	30.3352
-37.5125	467.601	30.3547
-37.5107	470.347	30.3743
-37.5095	471.463	30.3938
-37.5083	466.32	30.41333
-37.5063	472.356	30.4329
-37.5052	470.555	30.4524
-37.5031	467.498	30.4719
-37.5016	469.147	30.4915
-37.4999	475.181	30.511
-37.4983	464.915	30.5305
-37.4963	470.099	30.55
-37.4949	475.879	30.56958
[...]
-36.5557	465.5209	41.8293
-36.5565	464.131	41.8391
-36.5545	460.2254	41.8489
-36.5551	465.063	41.8586
-36.55246	467.575	41.8684
-36.5525	468.238	41.8782
-36.5508	468.928	41.8879
-36.5508	460.241	41.8977
-36.5494	459.846	41.9075
-36.5489	464.411	41.9172
-36.5485	465.345	41.927
-36.5466	468.542	41.9368
-36.5465	465.737	41.9465
-36.5458	465.842	41.9563
-36.5445	463.193	41.9661
-36.5452	462.099	41.97583
-36.54303	463.704	41.9856
-36.54261	467.204	41.9954
-36.5411	469.1	42.0051
-36.5408	464.3988	42.0149
-36.5406	462.469	42.0247
-36.539	462.792	42.0344
-36.5384	465.435	42.0442
-36.5363	465.508	42.054
-36.5362	466.244	42.0637
-36.53616	468.1301	42.0735
-36.53587	465.316	42.0833
-36.5346	463.681	42.093
-36.533	460.4	42.1028
-36.5332	464.706	42.1125
-36.5313	467.873	42.1223
-36.5317	466.454	42.13208
-36.5311	467.727	42.1418
-36.5288	463.097	42.1516
-36.5294	462.474	42.1614
-36.5279	463.632	42.1711
-36.52758	462.8461	42.1809
-36.5272	470.224	42.1907
-36.5261	470.294	42.2004
-36.5256	465.6167	42.2102
-36.5237	461.826	42.22
-36.5216	459.882	42.2297
-36.5219	466.571	42.2395
-36.5216	468.188	42.2493
-36.521	467.935	42.259
-36.5194	466.497	42.2688
-36.5187	462.561	42.2786
-36.5194	462.754	42.28833
-36.5175	462.2	42.2981
-36.51704	466.63	42.3079
-36.5155	470.339	42.3176
-36.5145	466.894	42.3274
-36.5142	463.082	42.3372
-36.5137	459.233	42.3469
-36.5122	462.917	42.3567
-36.5119	467.992	42.3665
-36.5111	469.56	42.3762
-36.51078	467.5488	42.386
-36.5082	464.029	42.3958
-36.5078	462.02	42.4055
-36.5083	459.59	42.4153
-36.5066	464.798	42.425
-36.5052	468.791	42.4348
-36.5054	469.621	42.44458
-36.504	465.916	42.4543
-36.5041	459.8187	42.4641
-36.5023	461.154	42.4739
-36.5023	465.309	42.4836
-36.501	469.139	42.4934
-36.4996	466.944	42.5032
-36.4996	464.161	42.5129
-36.4983	464.229	42.5227
-36.4975	458.978	42.5325
-36.4956	464.534	42.5422
-36.4953	464.985	42.552
-36.495	467.651	42.5618
-36.4946	469.9631	42.5715
-36.4926	461.852	42.5813
-36.4937	461.692	42.5911
-36.493	462.409	42.60083
-36.4915	465.0369	42.6106
-36.4905	467.009	42.6204
-36.4902	465.129	42.6301
-36.4893	466.804	42.6399
-36.4882	462.282	42.6497
-36.4868	460.753	42.6594
-36.4856	461.66	42.6692
-36.4858	464.346	42.679
-36.4855	468.69	42.6887
-36.484	465.1228	42.6985
-36.4829	463.004	42.7083
-36.4816	463.818	42.718
-36.4814	462.458	42.7278
-36.4806	462.4855	42.7375
-36.4797	465.967	42.7473
-36.4797	466.261	42.75708
-36.4784	466.447	42.7668
-36.4781	462.647	42.7766
-36.4773	459.149	42.7864
-36.475	461.478	42.7961
-36.476	467.523	42.8059
-36.4726	466.897	42.8157
-36.4736	466.372	42.8254
-36.4722	462.587	42.8352
-36.4724	462.728	42.845
-36.47205	462.1051	42.8547
-36.4709	461.727	42.8645
-36.4694	468.517	42.8743
-36.4686	467.449	42.884
-36.4668	465.464	42.8938
-36.46727	459.94	42.9036
-36.4663	459.489	42.91333
-36.465	463.557	42.9231
-36.4653	464.288	42.9329
-36.4633	468.444	42.9426
-36.4631	465.366	42.9524
-36.4627	461.848	42.9622
-36.46159	460.9184	42.9719
-36.4597	457.493	42.9817
-36.4598	465.984	42.9915
-36.4599	468.305	43.0012
-36.45771	466.782	43.011
-36.4571	464.3428	43.0208
-36.4572	457.553	43.0305
-36.4559	461.527	43.0403
-36.45512	464.412	43.05
-36.4549	466.321	43.0598
-36.4534	466.544	43.06958
-36.452	462.801	43.0793
-36.4515	461.584	43.0891
-36.451	458.939	43.0989
-36.45	462.272	43.1086
-36.44862	466.431	43.1184
-36.448	468.015	43.1282
-36.4467	466.494	43.1379
-36.44698	460.217	43.1477
-36.4465	459.575	43.1575
-36.4454	463.542	43.1672
-36.4436	463.371	43.177
-36.4442	464.903	43.1868
-36.4433	466.14	43.1965
-36.4416	464.136	43.2063
-36.4406	458.033	43.2161
-36.4405	460.009	43.22583
-36.4391	462.147	43.2356
-36.4382	467.021	43.2454
-36.4376	467.717	43.2551
-36.4373	460.932	43.2649
-36.4358	463.761	43.2747
-36.4343	461.101	43.2844
-36.43372	462.48	43.2942
-36.433	464.358	43.304
-36.4314	464.002	43.3137
-36.4322	466.608	43.3235
-36.43095	461.895	43.3333
-36.43	462.1199	43.343
-36.42992	460.672	43.3528
-36.4289	461.656	43.3625
-36.4281	467.42	43.3723
-36.4275	464.21	43.38208
-36.4259	465.781	43.3918
-36.4252	462.865	43.4016
-36.4244	460.871	43.4114
-36.4235	462.835	43.4211
-36.4237	461.109	43.4309
-36.422	467.309	43.4407
-36.4212	466.437	43.4504
-36.4202	459.93	43.4602
-36.4197	460.241	43.47
-36.4201	459.524	43.4797
-36.4182	465.198	43.4895
-36.4171	465.367	43.4993
-36.4161	465.865	43.509
-36.4157	464.7522	43.5188
-36.4157	461.454	43.5286
-36.4134	460.319	43.53833
-36.4121	460.199	43.5481
-36.4122	464.061	43.5579
-36.4114	467.356	43.5676
-36.4108	465.239	43.5774
-36.41	460.6532	43.5872
-36.4099	458.064	43.5969
-36.4078	462.965	43.6067
-36.40733	464.1156	43.6165
-36.40691	466.456	43.6262
-36.405	464.382	43.636
-36.406	464.268	43.6458
-36.4054	460.205	43.6555
-36.4027	456.591	43.6653
-36.4022	462.985	43.675
-36.4021	465.95	43.6848
-36.4013	470.6106	43.69458
-36.4002	464.37	43.7043
-36.3999	457.629	43.7141
-36.3985	460.008	43.7239
-36.3984	461.376	43.7336
-36.3977	465.133	43.7434
-36.3962	467.071	43.7532
-36.3958	463.196	43.7629
-36.39341	464.15	43.7727
-36.393	457.224	43.7825
-36.3926	460.01	43.7922
-36.3927	464.252	43.802
-36.3906	467.725	43.8118
-36.3893	468.098	43.8215
-36.3893	459.423	43.8313
-36.3897	459.9	43.8411
-36.3886	461.764	43.85083
-36.3871	462.278	43.8606
-36.3866	466.317	43.8704
-36.3861	465.953	43.8801
-36.3855	464.8074	43.8899
-36.3839	459.131	43.8997
-36.3823	459.909	43.9094
-36.3824	461.317	43.9192
-36.3814	465.014	43.929
-36.3803	466.62	43.9387
-36.3802	462.163	43.9485
-36.379	460.686	43.9583
-36.3785	460.539	43.968
-36.3776	459.887	43.9778
-36.3765	460.68	43.9875
-36.3765	464.2901	43.9973
-36.3742	465.702	44.00708
-36.3736	461.901	44.0168
-36.3731	461.061	44.0266
-36.3724	459.416	44.0364
-36.3721	461.9679	44.0461
-36.3714	465.21	44.0559
-36.3708	462.949	44.0657
-36.3696	464.947	44.0754
-36.3682	463.333	44.0852
-36.3677	459.552	44.095
-36.3678	460.745	44.1047
-36.3654	459.405	44.1145
-36.3661	467.228	44.1243
-36.3644	467.633	44.134
-36.3645	462.305	44.1438
-36.3633	459.261	44.1536
-36.3626	459.351	44.16333
-36.3615	464.882	44.1731
-36.3604	462.756	44.1829
-36.3595	467.04	44.1926
-36.3588	465.154	44.2024
-36.358	460.857	44.2122
-36.3558	457.767	44.2219
-36.3563	459.428	44.2317
-36.3553	461.703	44.2415
-36.355	468.514	44.2512
-36.3539	464.856	44.261
-36.35442	463.106	44.2708
-36.3522	457.822	44.2805
-36.3512	459.16	44.2903
-36.3508	460.92	44.3
-36.3499	465.067	44.3098
-36.3491	465.464	44.31958
-36.3483	462.77	44.3293
-36.3466	461.156	44.3391
-36.3465	456.49	44.3489
-36.3465	460.2453	44.3586
-36.3459	464.118	44.3684
-36.3435	466.9342	44.3782
-36.3425	462.309	44.3879
-36.3418	458.354	44.3977
-36.3425	459.371	44.4075
-36.3409	458.792	44.4172
-36.3382	463.837	44.427
-36.3388	464.983	44.4368
-36.3391	465.507	44.4465
-36.3383	464.951	44.4563
-36.3358	456.206	44.4661
-36.3353	460.04	44.47583
-36.3346	461.31	44.4856
-36.3345	464.011	44.4954
-36.3334	467.207	44.5051
-36.333	459.168	44.5149
-36.332	460.582	44.5247
-36.3319	460.119	44.5344
-36.3305	459.899	44.5442
-36.3296	462.953	44.554
-36.3288	464.318	44.5637
-36.3287	465.196	44.5735
-36.32719	459.321	44.5833
-36.3248	458.63	44.593
-36.3255	460.652	44.6028
-36.3248	462.228	44.6125
-36.3238	465.362	44.6223
-36.3235	463.285	44.63208
-36.3211	461.14	44.6418
-36.322	462.52	44.6516
-36.3214	458.804	44.6614
-36.319	461.024	44.6711
-36.3182	462.947	44.6809
-36.3186	466.308	44.6907
-36.3175	463.828	44.7004
-36.3163	460.499	44.7102
-36.3156	457.185	44.72
-36.3141	460.895	44.7297
-36.3138	462.806	44.7395
-36.3132	463.442	44.7493
-36.3124	464.275	44.759
-36.312	462.549	44.7688
-36.3101	460.274	44.7786
-36.3099	458.503	44.78833
-36.3094	456.7518	44.7981
-36.3077	464.505	44.8079
-36.3074	464.938	44.8176
-36.3053	463.229	44.8274
-36.3059	458.87	44.8372
-36.305	457.885	44.8469
-36.3039	461.531	44.8567
-36.3034	460.127	44.8665
-36.3025	467.34	44.8762
-36.3019	463.817	44.886
-36.3009	461.505	44.8958
-36.2992	458.521	44.9055
-36.2998	455.694	44.9153
-36.2988	460.912	44.925
-36.2989	466.544	44.9348
-36.2971	464.344	44.94458
-36.29583	462.623	44.9543
-36.2967	456.2897	44.9641
-36.2937	457.745	44.9739
-36.2935	459.984	44.9836
-36.293	462.921	44.9934
-36.2922	464.591	45.0032
-36.2908	464.237	45.0129
-36.2903	461.034	45.0227
-36.28936	453.94	45.0325
-36.2898	457.441	45.0422
-36.2884	462.81	45.052
-36.2879	465.433	45.0618
-36.286	461.837	45.0715
-36.2854	457.653	45.0813
-36.2841	456.6785	45.0911
-36.2834	456.961	45.10083
-36.2826	460.467	45.1106
-36.2823	462.887	45.1204
-36.2815	463.727	45.1301
-36.2816	463.116	45.1399
-36.2792	454.477	45.1497
-36.2783	457.017	45.1594
-36.278	459.8407	45.1692
-36.27726	464.74	45.179
-36.2769	465.092	45.1887
-36.2752	460.455	45.1985
-36.27486	460.052	45.2083
-36.273	458.458	45.218
-36.2739	458.9	45.2278
-36.2723	460.21	45.2375
-36.2712	461.001	45.2473
-36.2724	465.342	45.25708
-36.2701	458.49	45.2668
-36.2689	458.971	45.2766
-36.26704	458.6781	45.2864
-36.2684	460.316	45.2961
-36.2674	463.196	45.3059
-36.2671	461.596	45.3157
-36.2648	461.847	45.3254
-36.2653	460.867	45.3352
-36.26355	458.065	45.345
-36.262	458.365	45.3547
-36.2625	458.07	45.3645
-36.261	463.772	45.3743
-36.2598	462.599	45.384
-36.2598	460.69	45.3938
-36.2577	456.138	45.4036
-36.257	456.726	45.41333
-36.2573	460.179	45.4231
-36.25629	459.212	45.4329
-36.2551	463.284	45.4426
-36.2552	464.364	45.4524
-36.2519	458.542	45.4622
-36.2525	454.116	45.4719
-36.2518	455.703	45.4817
-36.251	461.712	45.4915
-36.2508	463.529	45.5012
-36.2493	463.302	45.511
-36.2487	458.12	45.5208
-36.2482	457.7002	45.5305
-36.2474	457.272	45.5403
-36.2473	456.878	45.55
-36.2447	463.699	45.5598
-36.2435	463.7063	45.56958
-36.2446	462.852	45.5793
-36.2428	457.606	45.5891
-36.2431	453.159	45.5989
-36.2419	459.535	45.6086
-36.2414	461.265	45.6184
-36.2395	464.867	45.6282
-36.2392	461.914	45.6379
-36.2387	455.412	45.6477
-36.23848	456.475	45.6575
-36.2368	454.848	45.6672
-36.2359	460.243	45.677
-36.2361	463.014	45.6868
-36.2342	462.554	45.6965
-36.23254	459.33	45.7063
-36.2332	451.577	45.7161
-36.2316	454.428	45.72583
-36.231	460.996	45.7356
-36.22987	461.688	45.7454
-36.2295	462.547	45.7551
-36.2289	457.053	45.7649
-36.2274	456.637	45.7747
-36.2282	454.324	45.7844
-36.22625	456.347	45.7942
-36.2254	460.746	45.804
-36.2244	462.157	45.8137
-36.2235	460.513	45.8235
-36.2226	455.778	45.8333
-36.2217	454.226	45.843
-36.22089	457.316	45.8528
-36.2209	460.525	45.8625
-36.2197	460.745	45.8723
-36.2179	459.162	45.88208
-36.2176	458.273	45.8918
-36.2168	455.771	45.9016
-36.2173	455.001	45.9114
-36.2158	454.04	45.9211
-36.2147	459.888	45.9309
-36.2136	463.162	45.9407
-36.2135	455.994	45.9504
-36.21199	456.8855	45.9602
-36.2114	453.935	45.97
-36.2112	456.068	45.9797
-36.2105	457.945	45.9895
-36.2096	456.022	45.9993
-36.2078	461.926	46.009
-36.2071	457.389	46.0188
-36.2063	454.979	46.0286
-36.2058	454.502	46.03833
-36.20393	453.231	46.0481
-36.2047	459.438	46.0579
-36.2026	457.103	46.0676
-36.2016	457.386	46.0774
-36.2008	453.551	46.0872
-36.2015	450.605	46.0969
-36.1999	453.231	46.1067
-36.1981	452.412	46.1165
-36.1975	455.883	46.1262
-36.1968	457.186	46.136
-36.1977	452.65	46.1458
-36.1958	449.181	46.1555
-36.19521	444.569	46.1653
-36.1941	448.2178	46.175
-36.1885	29.2983	46.1848
-36.1889	-22.70746	46.19458
-36.1889	-54.7719	46.2043
-36.1891	-58.2578	46.2141
-36.1876	-41.8146	46.2239
-36.1885	-39.9991	46.2336
-36.1878	-43.7802	46.2434
-36.188	-37.368	46.2532
-36.1857	-40.7667	46.2629
-36.1858	-41.6279	46.2727
-36.185	-49.9686	46.2825
-36.1843	-45.489	46.2922
-36.1825	-41.3881	46.302
-36.1827	-38.8402	46.3118
-36.1825	-40.9017	46.3215
-36.1808	-43.2334	46.3313
-36.1805	-43.7909	46.3411
-36.1801	-49.2415	46.35083
-36.1786	-43.4213	46.3606
-36.1765	-39.2507	46.3704
-36.1769	-38.8465	46.3801
-36.1758	-40.915	46.3899
-36.1747	-48.2489	46.3997
-36.1743	-46.3696	46.4094
-36.17252	-43.6561	46.4192
-36.17244	-40.3986	46.429
-36.171	-39.3287	46.4387
-36.1709	-43.2405	46.4485
-36.1709	-40.2695	46.4583
-36.1691	-46.5195	46.468
-36.1685	-44.5902	46.4778
-36.166	-42.5454	46.4875
-36.1671	-39.54578	46.4973
-36.1665	-37.6672	46.50708
-36.1641	-43.8148	46.5168
-36.1644	-46.093	46.5266
-36.1634	-43.2519	46.5364
-36.1628	-42.4266	46.5461
-36.1628	-41.2606	46.5559
-36.1627	-41.2467	46.5657
-36.16	-40.2667	46.5754
-36.1593	-41.55872	46.5852
-36.1595	-46.2988	46.595
-36.1585	-45.0273	46.6047
-36.1574	-41.3014	46.6145
-36.1561	-41.5797	46.6243
-36.1564	-42.0278	46.634
-36.1552	-42.8672	46.6438
-36.1541	-44.469	46.6536
-36.1535	-43.332	46.66333
-36.1529	-43.7592	46.6731
-36.1526	-43.1991	46.6829
-36.1513	-39.7131	46.6926
-36.14967	-39.8223	46.7024
-36.1488	-42.1194	46.7122
-36.1478	-46.4932	46.7219
-36.1472	-45.3511	46.7317
-36.14785	-40.0318	46.7415
-36.1464	-40.4116	46.7512
-36.1453	-39.38961	46.761
-36.1442	-43.9211	46.7708
-36.1446	-43.3438	46.7805
-36.1425	-44.7845	46.7903
-36.1407	-46.6831	46.8
-36.1407	-40.3203	46.8098
-36.14098	-37.2145	46.81958
-36.1393	-40.0127	46.8293
-36.1384	-45.11544	46.8391
-36.13879	-50.51746	46.8489
-36.1369	-43.5354	46.8586
-36.1367	-41.247	46.8684
-36.1351	-39.6476	46.8782
-36.1343	-41.8186	46.8879
-36.1343	-43.6042	46.8977
-36.1333	-46.3351	46.9075
-36.1316	-48.5493	46.9172
-36.1315	-42.6413	46.927
-36.131	-37.8604	46.9368
-36.1306	-38.766	46.9465
-36.1285	-42.931	46.9563
-36.1287	-48.7601	46.9661
-36.12767	-47.8707	46.97583
-36.1269	-41.479	46.9856
-36.126	-39.8692	46.9954
-36.1249	-39.6537	47.0051
-36.1242	-40.6615	47.0149
-36.1237	-44.9065	47.0247
-36.12326	-49.0949	47.0344
-36.12117	-44.0627	47.0442
-36.1216	-41.8707	47.054
-36.12	-37.7745	47.0637
-36.1185	-40.6549	47.0735
-36.1178	-47.6494	47.0833
-36.1171	-46.5195	47.093
-36.11734	-45.9067	47.1028
-36.1155	-42.283	47.1125
-36.11441	-41.0076	47.1223
-36.1152	-41.6457	47.13208
-36.1138	-40.3651	47.1418
-36.11216	-47.2657	47.1516
-36.1121	-45.2551	47.1614
-36.11216	-44.7359	47.1711
-36.1095	-40.3543	47.1809
-36.1097	-40.0183	47.1907
-36.10854	-43.864	47.2004
-36.1078	-44.1519	47.2102
-36.1066	-45.5539	47.22
-36.1055	-43.0858	47.2297
-36.1056	-42.4208	47.2395
-36.1054	-43.2936	47.2493
-36.1048	-39.8698	47.259
-36.1023	-41.6964	47.2688
-36.1021	-45.7192	47.2786
-36.1026	-46.8868	47.28833
-36.1008	-44.2973	47.2981
-36.1001	-39.2181	47.3079
-36.0989	-41.9855	47.3176
-36.0981	-40.971	47.3274
-36.097	-43.0683	47.3372
-36.0973	-44.4527	47.3469
-36.0948	-44.9681	47.3567
-36.0953	-42.7392	47.3665
-36.0937	-40.9075	47.3762
-36.0939	-37.2092	47.386
-36.0933	-42.1772	47.3958
-36.0905	-46.991	47.4055
-36.0906	-46.7985	47.4153
-36.0903	-42.6511	47.425
-36.09	-41.67157	47.4348
-36.08852	-38.0914	47.44458
-36.0879	-42.3699	47.4543
-36.0869	-43.6444	47.4641
-36.0861	-44.7502	47.4739
-36.0835	-46.9436	47.4836
-36.0838	-41.3157	47.4934
-36.0832	-38.5523	47.5032
-36.0839	-39.9424	47.5129
-36.0814	-45.1514	47.5227
-36.0808	-48.4979	47.5325
-36.0792	-44.8463	47.5422
-36.0797	-42.3535	47.552
-36.079	-39.0604	47.5618
-36.0783	-39.77623	47.5715
-36.077	-41.1206	47.5813
-36.0759	-42.5723	47.5911
-36.0764	-49.9091	47.60083
-36.0747	-42.1657	47.6106
-36.0734	-38.3398	47.6204
-36.0725	-39.2205	47.6301
-36.072	-40.4829	47.6399
-36.0728	-48.7139	47.6497
-36.0702	-46.1254	47.6594
-36.0706	-44.16861	47.6692
-36.0689	-40.45126	47.679
-36.0675	-39.4048	47.6887
-36.0669	-41.3743	47.6985
-36.0663	-42.2672	47.7083
-36.0664	-48.9163	47.718
-36.0644	-45.8947	47.7278
-36.06424	-41.629	47.7375
-36.0632	-38.0113	47.7473
-36.0628	-40.9282	47.75708
-36.0603	-44.2705	47.7668
-36.0602	-46.1165	47.7766
-36.06052	-44.6041	47.7864
-36.0588	-44.2543	47.7961
-36.0579	-41.6185	47.8059
-36.0572	-40.72076	47.8157
-36.0568	-40.287	47.8254
-36.0552	-45.6273	47.8352
-36.0551	-44.5961	47.845
-36.0538	-46.3044	47.8547
-36.0524	-40.93552	47.8645
-36.0524	-38.7608	47.8743
-36.0515	-43.3763	47.884
-36.0512	-42.485	47.8938
-36.0502	-44.72097	47.9036
-36.0491	-44.8094	47.91333
-36.0482	-44.7766	47.9231
-36.0472	-42.1762	47.9329
-36.0471	-38.287	47.9426
-36.046	-41.51083	47.9524
-36.0453	-43.98959	47.9622
-36.0444	-45.0793	47.9719
-36.0429	-45.4012	47.9817
-36.0434	-38.2932	47.9915
-36.0431	-42.6302	48.0012
-36.0404	-38.6878	48.011
-36.0409	-42.445	48.0208
-36.03994	-45.5428	48.0305
-36.0391	-44.7109	48.0403
-36.0379	-46.8671	48.05
-36.0369	-40.7487	48.0598
-36.0362	-36.7062	48.06958
-36.0358	-42.6768	48.0793
-36.0337	-44.867	48.0891
-36.0331	-47.5954	48.0989
-36.0318	-43.447	48.1086
-36.0324	-41.3846	48.1184
-36.0316	-39.7951	48.1282
-36.0311	-39.4675	48.1379
-36.0287	-43.48772	48.1477
-36.0281	-47.2344	48.1575
-36.0287	-47.2999	48.1672
-36.0269	-42.9119	48.177
-36.0262	-37.5051	48.1868
-36.025	-38.3052	48.1965
-36.024	-44.7412	48.2063
-36.0246	-46.6192	48.2161
-36.0241	-44.6505	48.22583
-36.0223	-44.4517	48.2356
-36.0222	-38.1391	48.2454
-36.02076	-40.492	48.2551
-36.0196	-40.9068	48.2649
-36.0189	-44.16309	48.2747
-36.01622	-51.063	48.2844
-36.0165	-43.4948	48.2942
-36.0175	-41.6608	48.304
-36.0157	-37.70219	48.3137
-36.0156	-40.5387	48.3235
-36.01482	-47.1296	48.3333
-36.0147	-45.4488	48.343
-36.0128	-47.0874	48.3528
-36.0112	-40.7192	48.3625
-36.0108	-41.9488	48.3723
-36.0091	-41.6311	48.38208
-36.0103	-40.2304	48.3918
-36.0094	-48.3531	48.4016
-36.0078	-46.7292	48.4114
-36.0066	-43.0854	48.4211
-36.0072	-40.659	48.4309
-36.0049	-38.9521	48.4407
-36.0043	-44.0521	48.4504
-36.0033	-44.19648	48.4602
-36.0037	-43.0576	48.47
-36.0021	-44.3995	48.4797
-36.0005	-42.71357	48.4895
-36.00127	-42.3168	48.4993
-35.9992	-38.7513	48.509
-35.9984	-42.1646	48.5188
-35.9989	-45.7943	48.5286
-35.9969	-45.4364	48.53833
-35.9965	-42.46447	48.5481
-35.9951	-40.2327	48.5579
-35.9941	-41.1812	48.5676
-35.994	-43.4344	48.5774
-35.9936	-43.0564	48.5872
-35.99255	-43.7174	48.5969
-35.9913	-45.1227	48.6067
-35.9912	-41.83522	48.6165
-35.9896	-37.7945	48.6262
-35.9882	-40.0799	48.636
-35.988	-42.3441	48.6458
-35.9873	-46.9639	48.6555
-35.9873	-45.4195	48.6653
-35.9861	-40.8901	48.675
-35.9851	-43.0805	48.6848
-35.9835	-38.7088	48.69458
-35.9835	-41.3506	48.7043
-35.9835	-44.6365	48.7141
-35.982	-47.0625	48.7239
-35.9801	-48.2195	48.7336
-35.9807	-40.35812	48.7434
-35.979	-37.592	48.7532
-35.9793	-41.3931	48.7629
-35.978	-43.7372	48.7727
-35.9768	-47.4308	48.7825
-35.9772	-43.2979	48.7922
-35.976	-44.03244	48.802
-35.9747	-39.3842	48.8118
-35.9734	-39.0784	48.8215
-35.9728	-41.9043	48.8313
-35.9718	-44.3614	48.8411
-35.9707	-47.4379	48.85083
-35.9707	-45.5941	48.8606
-35.9695	-38.1694	48.8704
-35.9686	-39.4227	48.8801
-35.9678	-41.2207	48.8899
-35.9675	-46.7662	48.8997
-35.9652	-44.9014	48.9094
-35.9657	-44.4603	48.9192
-35.9643	-42.5075	48.929
-35.9634	-38.9808	48.9387
-35.9637	-39.4765	48.9485
-35.9623	-41.9237	48.9583
-35.9608	-47.9811	48.968
-35.9605	-45.2313	48.9778
-35.9593	-43.0116	48.9875
-35.9594	-37.4983	48.9973
-35.9577	-39.91008	49.00708
-35.9573	-43.4053	49.0168
-35.956	-44.1746	49.0266
-35.95573	-46.3323	49.0364
-35.9544	-43.08139	49.0461
-35.9541	-41.7535	49.0559
-35.9537	-38.4537	49.0657
-35.9526	-37.5645	49.0754
-35.95208	-45.6334	49.0852
-35.951	-46.4211	49.095
-35.95	-44.60804	49.1047
-35.9488	-41.21854	49.1145
-35.9484	-39.015	49.1243
-35.9474	-44.7988	49.134
-35.9475	-43.0403	49.1438
-35.9452	-43.7261	49.1536
-35.945	-45.0754	49.16333
-35.9442	-42.3416	49.1731
-35.943	-41.3066	49.1829
-35.9426	-38.9127	49.1926
-35.9417	-43.4912	49.2024
-35.9416	-43.7411	49.2122
-35.9394	-45.4559	49.2219
-35.9391	-45.0747	49.2317
-35.9385	-41.7678	49.2415
-35.9382	-41.4563	49.2512
-35.9357	-40.7395	49.261
-35.93539	-40.2111	49.2708
-35.9353	-45.6241	49.2805
-35.93404	-46.421	49.2903
-35.9335	-43.8111	49.3
-35.933	-41.5453	49.3098
-35.9327	-39.19928	49.31958
-35.93037	-41.6254	49.3293
-35.9302	-45.4597	49.3391
-35.9301	-45.8671	49.3489
-35.9287	-44.75219	49.3586
-35.9288	-42.83429	49.3684
-35.92625	-39.0367	49.3782
-35.9259	-39.32	49.3879
-35.9254	-40.88353	49.3977
-35.9237	-46.48542	49.4075
-35.9247	-47.8639	49.4172
-35.9221	-42.35857	49.427
-35.92128	-38.5675	49.4368
-35.9214	-38.5467	49.4465
-35.9205	-42.5714	49.4563
-35.919	-46.982	49.4661
-35.9193	-45.061	49.47583
-35.9176	-46.1346	49.4856
-35.9173	-39.3273	49.4954
-35.9168	-38.6553	49.5051
-35.9156	-41.9939	49.5149
-35.9141	-44.4178	49.5247