File: data/processed_data_files/tensile/0.254_solid_uprint_typeiv_4545_r(2).dat
MTS793|BTW|ENU|1|2|.|/|:|1|0|0|A

Data Header:			0.254_solid_uprint_typeiv_4545_r0			Time:	20.0176	s	4/13/2019 6:47:48 PM
Data Acquisition:	Timed
Station Name:	ft40.cfg
Test File Name:	Type IV_Monotonic.tst
Displacement	Force	Running Time
mm	N	s
-40.0453	6.01632	0.0227051
-40.0453	7.4211	0.0422363
-40.0452	7.98696	0.0617676
-40.0452	7.70749	0.0812988
-40.04549	6.35711	0.10083
-40.043	11.6401	0.120361
-40.0415	10.2092	0.139893
-40.0403	9.77348	0.159424
-40.0388	11.0283	0.178955
-40.0376	17.45055	0.198486
-40.0351	9.97794	0.218018
-40.0334	14.4154	0.237549
-40.0319	19.1748	0.25708
-40.0298	18.3857	0.276611
-40.0295	14.93812	0.296143
-40.02623	23.2512	0.315674
-40.0249	18.6961	0.335205
-40.0241	18.7191	0.354736
-40.0216	27.5854	0.374268
-40.0207	26.1915	0.393799
-40.0188	20.5846	0.41333
-40.0166	29.6039	0.432861
-40.01519	28.5521	0.452393
-40.0132	23.4408	0.471924
-40.013	31.1567	0.491455
-40.0108	32.9917	0.510986
-40.0091	28.2872	0.530518
-40.007	33.1875	0.550049
-40.0046	35.7483	0.56958
-40.0037	31.4394	0.589111
-40.0027	35.3049	0.608643
-40.00127	39.9776	0.628174
-39.9996	36.6541	0.647705
-39.9992	35.1063	0.667236
-39.9955	43.268	0.686768
-39.9939	42.0354	0.706299
-39.9925	40.126	0.72583
-39.992	43.3677	0.745361
-39.9897	45.4357	0.764893
-39.9877	41.0035	0.784424
-39.9866	48.5804	0.803955
-39.985	49.481	0.823486
-39.9823	46.6547	0.843018
-39.9821	46.3567	0.862549
-39.9802	54.8311	0.88208
-39.9788	48.1318	0.901611
-39.9767	52.2895	0.921143
-39.9747	57.1753	0.940674
-39.9737	53.8898	0.960205
-39.9716	51.8011	0.979736
-39.9703	60.3228	0.999268
-39.9687	57.2048	1.0188
-39.9662	57.1519	1.03833
-39.9641	64.1758	1.05786
-39.9636	64.3021	1.07739
-39.9617	56.1903	1.09692
-39.9603	64.2629	1.11646
-39.9587	65.0008	1.13599
-39.957	63.48048	1.15552
-39.956	66.62426	1.17505
-39.9539	70.0504	1.19458
-39.9523	63.6956	1.21411
-39.9509	66.423	1.23364
-39.9492	73.81205	1.25317
-39.9475	70.6879	1.27271
-39.9463	69.4994	1.29224
-39.9447	76.65934	1.31177
-39.9419	73.5616	1.3313
-39.9407	72.2808	1.35083
-39.94	77.3151	1.37036
-39.9387	78.8885	1.38989
-39.936	77.1134	1.40942
-39.9345	78.8702	1.42896
-39.9326	84.0159	1.44849
-39.9308	77.95369	1.46802
-39.929	82.4764	1.48755
-39.9284	86.71019	1.50708
-39.9251	84.7714	1.52661
-39.9245	81.1604	1.54614
-39.9233	90.8808	1.56567
-39.9213	86.9353	1.58521
-39.9201	86.54245	1.60474
-39.917	92.914	1.62427
-39.9161	92.3529	1.6438
-39.9144	83.8185	1.66333
-39.9123	96.1362	1.68286
-39.9108	95.42926	1.70239
-39.9103	90.6161	1.72192
-39.9089	97.7179	1.74146
-39.90733	102.4302	1.76099
-39.9053	91.6909	1.78052
-39.9027	98.76857	1.80005
-39.9019	101.03	1.81958
-39.8998	98.9414	1.83911
-39.8985	101.639	1.85864
-39.8961	107.969	1.87817
-39.8951	100.03	1.89771
-39.8931	101.068	1.91724
-39.8926	109.3374	1.93677
-39.8896	107.242	1.9563
-39.8885	104.978	1.97583
-39.8878	107.045	1.99536
-39.885	110.386	2.01489
-39.8844	108.027	2.03442
-39.8829	112.726	2.05396
-39.8796	114.26	2.07349
-39.8785	112.721	2.09302
-39.878	113.784	2.11255
-39.8773	120.284	2.13208
-39.8744	115.77	2.15161
-39.8725	116.259	2.17114
-39.8716	121.195	2.19067
-39.8692	121.945	2.21021
-39.868	115.456	2.22974
-39.8661	126.263	2.24927
-39.86393	122.3541	2.2688
-39.8637	121.4108	2.28833
-39.8603	129.306	2.30786
-39.8586	129.834	2.32739
-39.8571	119.487	2.34692
-39.8556	129.667	2.36646
-39.8541	132.27	2.38599
-39.8527	128.998	2.40552
-39.85062	131.007	2.42505
-39.849	136.955	2.44458
-39.8469	129.593	2.46411
-39.847	134.971	2.48364
-39.8447	138.653	2.50317
-39.8431	135.7101	2.52271
-39.8418	134.5851	2.54224
-39.8395	142.677	2.56177
-39.8378	138.079	2.5813
-39.8366	137.212	2.60083
-39.8356	142.132	2.62036
-39.8335	144.809	2.63989
-39.832	140.662	2.65942
-39.8306	144.171	2.67896
-39.8281	146.292	2.69849
-39.8268	143.775	2.71802
-39.8245	147.477	2.73755
-39.8234	150.387	2.75708
-39.8218	148.446	2.77661
-39.8196	147.098	2.79614
-39.8183	154.141	2.81567
-39.8175	150.664	2.83521
-39.81562	150.371	2.85474
-39.813	155.632	2.87427
-39.811	156.99	2.8938
-39.809	149.973	2.91333
-39.8084	161.065	2.93286
-39.8072	158.516	2.95239
-39.8062	154.712	2.97192
-39.8034	159.449	2.99146
-39.8029	166.394	3.01099
-39.8007	156.125	3.03052
-39.8012	162.3228	3.05005
-39.7967	166.658	3.06958
-39.7964	163.65	3.08911
-39.7941	163.258	3.10864
-39.7926	171.627	3.12817
-39.7923	163.973	3.14771
-39.7903	168.119	3.16724
-39.78878	172.094	3.18677
-39.7863	170.788	3.2063
-39.78326	167.972	3.22583
-39.78286	175.7	3.24536
-39.7808	174.841	3.26489
-39.7797	173.575	3.28442
-39.7778	174.799	3.30396
-39.7758	178.6337	3.32349
-39.7754	176.1783	3.34302
-39.7728	177.347	3.36255
-39.7718	181.301	3.38208
-39.7687	179.764	3.40161
-39.7671	180.044	3.42114
-39.7664	186.783	3.44067
-39.76527	183.863	3.46021
-39.7617	179.617	3.47974
-39.76165	188.881	3.49927
-39.7598	188.631	3.5188
-39.7577	185.432	3.53833
-39.7576	188.578	3.55786
-39.7541	193.2718	3.57739
-39.7526	185.42	3.59692
-39.7519	195.2542	3.61646
-39.7489	195.418	3.63599
-39.74836	190.809	3.65552
-39.7478	193.544	3.67505
-39.74564	201.296	3.69458
-39.7449	192.728	3.71411
-39.7427	198.146	3.73364
-39.7407	200.587	3.75317
-39.7388	199.072	3.77271
-39.7374	199.975	3.79224
-39.7358	204.834	3.81177
-39.734	199.363	3.8313
-39.73175	202.328	3.85083
-39.7307	205.801	3.87036
-39.7297	207.873	3.88989
-39.728	202.773	3.90942
-39.7257	207.272	3.92896
-39.7234	208.052	3.94849
-39.7229	208.458	3.96802
-39.7196	209.102	3.98755
-39.7187	214.853	4.00708
-39.7173	211.182	4.02661
-39.715	210.581	4.04614
-39.7139	215.982	4.06567
-39.7125	214.751	4.08521
-39.7111	210.788	4.10474
-39.7092	218.666	4.12427
-39.70789	221.059	4.1438
-39.7058	214.092	4.16333
-39.7035	221.081	4.18286
-39.7036	222.057	4.20239
-39.7011	218.397	4.22192
-39.6997	223.003	4.24146
-39.6981	228.088	4.26099
-39.6961	219.9566	4.28052
-39.6955	226.097	4.30005
-39.6935	230.352	4.31958
-39.6927	226.809	4.33911
-39.6904	226.418	4.35864
-39.6887	234.108	4.37817
-39.6871	226.284	4.39771
-39.6858	229.181	4.41724
-39.6827	234.314	4.43677
-39.683	236.237	4.4563
-39.6812	232.58	4.47583
-39.6781	239.383	4.49536
-39.6769	235.335	4.51489
-39.6745	233.343	4.53442
-39.67363	236.692	4.55396
-39.6719	243.033	4.57349
-39.6701	239.1196	4.59302
-39.6688	240.506	4.61255
-39.6674	242.203	4.63208
-39.6649	241.404	4.65161
-39.6637	242.638	4.67114
-39.6624	248.814	4.69067
-39.6609	245.882	4.71021
-39.65921	241.595	4.72974
-39.6579	249.512	4.74927
-39.6555	250.256	4.7688
-39.65519	244.173	4.78833
-39.6528	250.975	4.80786
-39.6512	253.93	4.82739
-39.6507	248.453	4.84692
-39.6475	254.982	4.86646
-39.64698	255.844	4.88599
-39.6437	252.531	4.90552
-39.6432	255.128	4.92505
-39.6412	262.215	4.94458
-39.63982	254.3223	4.96411
-39.6385	257.774	4.98364
-39.6361	263.105	5.00317
-39.635	260.8645	5.02271
-39.6328	259.075	5.04224
-39.6318	266.932	5.06177
-39.6301	261.067	5.0813
-39.6283	261.862	5.10083
-39.6263	266.595	5.12036
-39.6248	268.489	5.13989
-39.6231	264.755	5.15942
-39.6217	270.283	5.17896
-39.62014	269.461	5.19849
-39.6187	270.584	5.21802
-39.6175	269.869	5.23755
-39.6151	276.361	5.25708
-39.614	273.259	5.27661
-39.61235	272.441	5.29614
-39.6104	275.233	5.31567
-39.60968	276.354	5.33521
-39.6072	272.6235	5.35474
-39.6068	281.576	5.37427
-39.60379	281.06	5.3938
-39.6023	277.239	5.41333
-39.6009	279.928	5.43286
-39.598	284.435	5.45239
-39.5966	278.648	5.47192
-39.596	282.962	5.49146
-39.5943	288.26	5.51099
-39.59203	280.931	5.53052
-39.59	284.222	5.55005
-39.589	290.617	5.56958
-39.5877	285.6268	5.58911
-39.5859	285.969	5.60864
-39.5841	295.3688	5.62817
-39.5818	287.359	5.64771
-39.5807	288.483	5.66724
-39.5793	294.945	5.68677
-39.5771	294.007	5.7063
-39.5756	291.353	5.72583
-39.5752	299.244	5.74536
-39.5726	294.808	5.76489
-39.5712	293.881	5.78442
-39.5696	297.164	5.80396
-39.5676	302.583	5.82349
-39.5665	296.876	5.84302
-39.565	299.672	5.86255
-39.5639	302.754	5.88208
-39.5608	302	5.90161
-39.5597	301.294	5.92114
-39.5576	307.2565	5.94067
-39.5561	305.1756	5.96021
-39.5549	303.73	5.97974
-39.55241	309.061	5.99927
-39.5519	309.794	6.0188
-39.5505	304.334	6.03833
-39.5481	311.789	6.05786
-39.54731	313.354	6.07739
-39.5451	308.436	6.09692
-39.5433	310.359	6.11646
-39.5419	317.3392	6.13599
-39.5403	310.416	6.15552
-39.5388	314.45	6.17505
-39.5375	319.958	6.19458
-39.536	313.174	6.21411
-39.5345	314.094	6.23364
-39.532	321.697	6.25317
-39.5311	319.583	6.27271
-39.5293	316.377	6.29224
-39.5278	325.514	6.31177
-39.52594	319.885	6.3313
-39.5234	320.527	6.35083
-39.5232	324.035	6.37036
-39.521	325.812	6.38989
-39.51963	321.058	6.40942
-39.5175	328.688	6.42896
-39.5152	327.845	6.44849
-39.5145	326.7825	6.46802
-39.51252	325.977	6.48755
-39.51133	334.075	6.50708
-39.5096	329.159	6.52661
-39.5074	329.096	6.54614
-39.5061	332.208	6.56567
-39.5037	335.079	6.58521
-39.5031	331.55	6.60474
-39.5007	338.383	6.62427
-39.4997	338.342	6.6438
-39.4979	333.335	6.66333
-39.4965	336.586	6.68286
-39.49461	343.134	6.70239
-39.4927	335.0679	6.72192
-39.4919	339.5874	6.74146
-39.4912	345.214	6.76099
-39.4883	338.758	6.78052
-39.4873	339.852	6.80005
-39.4848	346.675	6.81958
-39.4834	341.192	6.83911
-39.4831	342.379	6.85864
-39.48048	351.67	6.87817
-39.4784	343.7193	6.89771
-39.478	343.565	6.91724
-39.4761	350.595	6.93677
-39.4747	351.137	6.9563
-39.4716	346.25	6.97583
-39.4715	353.7912	6.99536
-39.4696	352.228	7.01489
-39.4679	348.353	7.03442
-39.46685	353.887	7.05396
-39.4636	356.77	7.07349
-39.4623	351.743	7.09302
-39.4614	355.893	7.11255
-39.4584	357.512	7.13208
-39.4564	356.695	7.15161
-39.45557	355.045	7.17114
-39.4535	364.213	7.19067
-39.4516	359.012	7.21021
-39.45182	359.535	7.22974
-39.4493	361.954	7.24927
-39.448	364.528	7.2688
-39.44722	358.924	7.28833
-39.4438	367.111	7.30786
-39.4432	368.568	7.32739
-39.4419	363.49	7.34692
-39.4392	365.778	7.36646
-39.43832	371.909	7.38599
-39.4369	365.13	7.40552
-39.435	369.662	7.42505
-39.4333	374.38	7.44458
-39.4311	367.421	7.46411
-39.4301	368.588	7.48364
-39.4283	376.571	7.50317
-39.4266	372.919	7.52271
-39.4254	368.782	7.54224
-39.424	380.165	7.56177
-39.4213	376.5477	7.5813
-39.4211	371.37	7.60083
-39.4183	378.812	7.62036
-39.4162	379.8295	7.63989
-39.4146	375.402	7.65942
-39.41354	382.45	7.67896
-39.4113	382.333	7.69849
-39.4105	377.703	7.71802
-39.4091	381.615	7.73755
-39.4075	387.727	7.75708
-39.4051	379.917	7.77661
-39.4033	384.298	7.79614
-39.4008	386.743	7.81567
-39.3989	388.797	7.83521
-39.3987	384.043	7.85474
-39.3977	390.892	7.87427
-39.3959	389.024	7.8938
-39.393	387.7247	7.91333
-39.3927	391.204	7.93286
-39.3911	395.282	7.95239
-39.3889	386.213	7.97192
-39.38707	394.242	7.99146
-39.387	397.513	8.01099
-39.3848	391.464	8.03052
-39.3823	390.918	8.05005
-39.3818	399.91	8.06958
-39.3796	394.54	8.08911
-39.3776	395.032	8.10864
-39.3757	403.58	8.12817
-39.3751	399.4231	8.14771
-39.37191	395.889	8.16724
-39.3715	405.192	8.18677
-39.3703	402.59	8.2063
-39.36747	397.724	8.22583
-39.3658	406.006	8.24536
-39.3656	406.294	8.26489
-39.3634	401.536	8.28442
-39.3609	407.372	8.30396
-39.3597	409.776	8.32349
-39.3584	402.9751	8.34302
-39.3561	408.762	8.36255
-39.35569	411.9234	8.38208
-39.3537	407.673	8.40161
-39.351	406.354	8.42114
-39.3503	416.816	8.44067
-39.3487	412.508	8.46021
-39.3475	411.108	8.47974
-39.3461	414.278	8.49927
-39.3435	418.158	8.5188
-39.3426	409.684	8.53833
-39.3408	417.969	8.55786
-39.3393	418.837	8.57739
-39.3357	413.111	8.59692
-39.3356	416.174	8.61646
-39.3332	424.128	8.63599
-39.333	415.013	8.65552
-39.3298	417.824	8.67505
-39.3282	426.176	8.69458
-39.3267	421.416	8.71411
-39.3257	418.202	8.73364
-39.324	427.308	8.75317
-39.322	422.745	8.77271
-39.3214	420.944	8.79224
-39.3192	430.672	8.81177
-39.3167	427.891	8.8313
-39.3157	420.329	8.85083
-39.314	429.501	8.87036
-39.3122	431.847	8.88989
-39.3115	425.331	8.90942
-39.30912	430.823	8.92896
-39.3075	431.791	8.94849
-39.3068	428.619	8.96802
-39.3049	432.373	8.98755
-39.3036	435.931	9.00708
-39.3013	429.4332	9.02661
-39.3006	434.264	9.04614
-39.2972	436.958	9.06567
-39.2964	436.67	9.08521
-39.2942	433.062	9.10474
-39.2933	440.201	9.12427
-39.2922	439.345	9.1438
-39.2888	436.673	9.16333
-39.28878	437.448	9.18286
-39.2878	442.164	9.20239
-39.2858	435.708	9.22192
-39.2838	443.689	9.24146
-39.2823	446.549	9.26099
-39.2801	441.124	9.28052
-39.2768	439.21	9.30005
-39.2766	449.471	9.31958
-39.2756	441.889	9.33911
-39.2738	444.648	9.35864
-39.2726	450.147	9.37817
-39.2703	446.795	9.39771
-39.26688	442.564	9.41724
-39.2673	452.563	9.43677
-39.2658	448.415	9.4563
-39.2643	445.225	9.47583
-39.2621	454.5564	9.49536
-39.2603	451.788	9.51489
-39.25946	446.019	9.53442
-39.2569	452.521	9.55396
-39.256	455.449	9.57349
-39.2559	450.112	9.59302
-39.2534	454.127	9.61255
-39.2515	457.789	9.63208
-39.24831	452.8884	9.65161
-39.2476	454.1	9.67114
-39.2457	461.705	9.69067
-39.245	456.135	9.71021
-39.2431	455.873	9.72974
-39.2404	459.587	9.74927
-39.2401	462.753	9.7688
-39.2372	455.358	9.78833
-39.2354	461.771	9.80786
-39.2347	463.173	9.82739
-39.2326	461.142	9.84692
-39.2305	461.771	9.86646
-39.2291	467.593	9.88599
-39.2281	459.702	9.90552
-39.2273	464.65	9.92505
-39.2247	470.403	9.94458
-39.2243	465.617	9.96411
-39.2215	461.819	9.98364
-39.2195	472.921	10.0032
-39.2172	467.917	10.0227
-39.2166	466.9697	10.0422
-39.2152	473.141	10.0618
-39.2135	471.506	10.0813
-39.2125	464.325	10.10083
-39.2099	474.888	10.1204
-39.2093	474.167	10.1399
-39.206	468.335	10.1594
-39.2046	474.823	10.179
-39.2041	476.254	10.1985
-39.2015	469.989	10.218
-39.2012	474.101	10.2375
-39.1992	477.98	10.25708
-39.1961	473.331	10.2766
-39.19643	476.101	10.2961
-39.1945	480.705	10.3157
-39.19244	477.101	10.3352
-39.1911	475.021	10.3547
-39.1881	483.989	10.3743
-39.1868	479.627	10.3938
-39.1868	477.927	10.41333
-39.1826	479.5097	10.4329
-39.1829	485.535	10.4524
-39.1809	477.884	10.4719
-39.178	483.44	10.4915
-39.17712	486.7543	10.511
-39.1759	480.7218	10.5305
-39.1739	480.976	10.55
-39.17231	490.039	10.56958
-39.1719	480.663	10.5891
-39.17001	482.999	10.6086
-39.1678	490.588	10.6282
-39.1655	486.599	10.6477
-39.1643	480.333	10.6672
-39.1622	492.772	10.6868
-39.1609	488.13	10.7063
-39.159	486.604	10.72583
-39.15807	491.761	10.7454
-39.1573	492.122	10.7649
-39.1543	483.5575	10.7844
-39.15411	492.046	10.804
-39.1516	496.19	10.8235
-39.1496	486.877	10.843
-39.149	492.073	10.8625
-39.1466	495.908	10.88208
-39.1454	490.955	10.9016
-39.1432	493.206	10.9211
-39.1424	498.392	10.9407
-39.1387	492.2948	10.9602
-39.1392	495.018	10.9797
-39.1371	499.587	10.9993
-39.1353	496.601	11.0188
-39.134	492.551	11.03833
-39.1326	499.534	11.0579
-39.1305	500.814	11.0774
-39.1293	497.379	11.0969
-39.1268	497.55	11.1165
-39.1255	504.4921	11.136
-39.1245	497.16	11.1555
-39.1222	502.703	11.175
-39.1202	506.283	11.19458
-39.1182	501.942	11.2141
-39.1179	496.363	11.2336
-39.1158	508.322	11.2532
-39.1141	502.945	11.2727
-39.11179	500.319	11.2922
-39.111	507.976	11.3118
-39.1094	508.64	11.3313
-39.1079	499.021	11.35083
-39.1051	509.484	11.3704
-39.1039	507.274	11.3899
-39.1009	503.347	11.4094
-39.1017	509.4924	11.429
-39.1001	511.417	11.4485
-39.0968	503.364	11.468
-39.0962	507.5162	11.4875
-39.094	513.497	11.50708
-39.0934	508.0929	11.5266
-39.0915	508.37	11.5461
-39.0902	513.389	11.5657
-39.0885	507.757	11.5852
-39.0866	508.295	11.6047
-39.0844	514.849	11.6243
-39.0831	512.434	11.6438
-39.0809	509.08	11.66333
-39.0804	513.904	11.6829
-39.0789	516.211	11.7024
-39.076	509.0025	11.7219
-39.0759	513.869	11.7415
-39.0738	516.882	11.761
-39.0711	513.2821	11.7805
-39.0704	512.708	11.8
-39.0686	520.452	11.81958
-39.0659	511.614	11.8391
-39.0655	515.364	11.8586
-39.0628	521.5	11.8782
-39.0613	518.844	11.8977
-39.06036	511.83	11.9172
-39.0597	523.031	11.9368
-39.0569	519.43	11.9563
-39.0553	516.111	11.97583
-39.055	520.841	11.9954
-39.052	522.192	12.0149
-39.0493	513.048	12.0344
-39.049	522.483	12.054
-39.048	523.06	12.0735
-39.04549	518.437	12.093
-39.0442	521.9259	12.1125
-39.0425	527.24	12.13208
-39.0406	518.108	12.1516
-39.0396	521.319	12.1711
-39.038	524.232	12.1907
-39.0361	521.4	12.2102
-39.034	521.523	12.2297
-39.0324	526.271	12.2493
-39.03	523.69	12.2688
-39.0291	520.213	12.28833
-39.0286	526.6861	12.3079
-39.02673	526.554	12.3274
-39.0255	523.031	12.3469
-39.023	525.276	12.3665
-39.021	528.853	12.386
-39.0191	521.995	12.4055
-39.0174	526.349	12.425
-39.0168	530.866	12.44458
-39.0158	526.198	12.4641
-39.0125	523.037	12.4836
-39.0109	533.219	12.5032
-39.0091	524.888	12.5227
-39.0083	526.786	12.5422
-39.0073	532.3537	12.5618
-39.0055	531.524	12.5813
-39.0038	523.839	12.60083
-39.0025	532.688	12.6204
-38.9999	530.084	12.6399
-38.99897	526.969	12.6594
-38.99725	532.323	12.679
-38.9951	533.212	12.6985
-38.99337	524.394	12.718
-38.9915	532.525	12.7375
-38.9901	535.211	12.75708
-38.9882	529.395	12.7766
-38.9872	529.727	12.7961
-38.9855	537.063	12.8157
-38.9839	530.545	12.8352
-38.9826	530.109	12.8547
-38.9814	534.9455	12.8743
-38.978	531.725	12.8938
-38.9766	531.653	12.91333
-38.9754	535.488	12.9329
-38.9736	534.846	12.9524
-38.9716	530.317	12.9719
-38.9708	536.302	12.9915
-38.9687	538.016	13.011
-38.9671	533.704	13.0305
-38.9671	532.637	13.05
-38.9648	539.787	13.06958
-38.9622	533.036	13.0891
-38.961	534.404	13.1086
-38.9586	539.6308	13.1282
-38.958	537.139	13.1477
-38.9561	532.636	13.1672
-38.9548	540.976	13.1868
-38.9527	536.841	13.2063
-38.9506	533.244	13.22583
-38.95	538.847	13.2454
-38.9487	543.09	13.2649
-38.9453	532.784	13.2844
-38.9444	539.773	13.304
-38.9423	540.588	13.3235
-38.9413	535.946	13.343
-38.94	538.829	13.3625
-38.9379	544.1438	13.38208
-38.9364	534.182	13.4016
-38.9353	538.067	13.4211
-38.9338	541.282	13.4407
-38.932	538.887	13.4602
-38.9301	537.065	13.4797
-38.9294	542.098	13.4993
-38.926	539.679	13.5188
-38.9247	535.788	13.53833
-38.9236	539.877	13.5579
-38.9213	540.78	13.5774
-38.9204	537.482	13.5969
-38.9194	540.908	13.6165
-38.9172	544.985	13.636
-38.9145	536.676	13.6555
-38.914	539.841	13.675
-38.913	545.756	13.69458
-38.9105	540.251	13.7141
-38.9092	538.331	13.7336
-38.9091	546.501	13.7532
-38.9053	539.9942	13.7727
-38.9039	540.291	13.7922
-38.9021	545.811	13.8118
-38.9018	545.254	13.8313
-38.9005	537.881	13.85083
-38.8969	548.24	13.8704
-38.8964	544.475	13.8899
-38.8932	539.269	13.9094
-38.8938	542.969	13.929
-38.8913	547.715	13.9485
-38.8891	537.052	13.968
-38.88752	544.105	13.9875
-38.8864	546.33	14.00708
-38.8835	541.618	14.0266
-38.8828	543.401	14.0461
-38.8807	550.0744	14.0657
-38.8796	541.647	14.0852
-38.878	542.866	14.1047
-38.8755	545.707	14.1243
-38.875	545.73	14.1438
-38.8738	541.755	14.16333
-38.8711	546.062	14.1829
-38.8694	545.077	14.2024
-38.8682	541.188	14.2219
-38.8664	544.723	14.2415
-38.8654	546.727	14.261
-38.8626	542.512	14.2805
-38.8623	542.665	14.3
-38.8602	548.7865	14.31958
-38.8582	542.665	14.3391
-38.8569	542.988	14.3586
-38.8554	548.3092	14.3782
-38.85321	546.089	14.3977
-38.8528	540.552	14.4172
-38.85178	549.9635	14.4368
-38.8496	544.9649	14.4563
-38.8474	542.156	14.47583
-38.8453	548.587	14.4954
-38.8441	549.166	14.5149
-38.842	538.038	14.5344
-38.8405	548.13	14.554
-38.8392	548.475	14.5735
-38.8372	544.875	14.593
-38.8361	545.274	14.6125
-38.8338	550.307	14.63208
-38.8319	541.211	14.6516
-38.8305	544.995	14.6711
-38.8289	548.36	14.6907
-38.8273	545.292	14.7102
-38.8252	542.933	14.7297
-38.8244	551.322	14.7493
-38.822	544.434	14.7688
-38.8215	543.5434	14.78833
-38.8187	547.2	14.8079
-38.818	546.951	14.8274
-38.8159	543.733	14.8469
-38.8144	548.23	14.8665
-38.8128	549.55	14.886
-38.8115	543.244	14.9055
-38.8098	547.148	14.925
-38.8073	549.216	14.94458
-38.80698	546.18	14.9641
-38.8049	542.635	14.9836
-38.8038	549	15.0032
-38.8014	546.14	15.0227
-38.8004	544.822	15.0422
-38.7982	548.818	15.0618
-38.7964	549.122	15.0813
-38.7947	540.022	15.10083
-38.7928	549.4942	15.1204
-38.7913	547.751	15.1399
-38.7892	543.441	15.1594
-38.7883	547.877	15.179
-38.787	551.803	15.1985
-38.7862	540.897	15.218
-38.7837	546.148	15.2375
-38.7816	548.813	15.25708
-38.7804	544.162	15.2766
-38.7793	544.43	15.2961
-38.7777	551.695	15.3157
-38.7756	543.2019	15.3352
-38.775	543.499	15.3547
-38.7725	549.608	15.3743
-38.7705	547.185	15.3938
-38.7687	542.559	15.41333
-38.7671	547.0459	15.4329
-38.7653	546.563	15.4524
-38.76368	544.732	15.4719
-38.7625	545.224	15.4915
-38.7612	547.445	15.511
-38.7591	544.837	15.5305
-38.7573	545.7442	15.55
-38.7561	548.469	15.56958
-38.7539	544.015	15.5891
-38.7528	542.506	15.6086
-38.7513	548.257	15.6282
-38.75024	547.561	15.6477
-38.7472	540.674	15.6672
-38.7467	548.785	15.6868
-38.7442	546.838	15.7063
-38.74292	542.941	15.72583
-38.7406	547.339	15.7454
-38.7395	550.665	15.7649
-38.7384	539.082	15.7844
-38.7368	547.0235	15.804
-38.7345	549.214	15.8235
-38.7342	543.409	15.843
-38.7321	543.454	15.8625
-38.7296	550.485	15.88208
-38.7291	542.13	15.9016
-38.7267	546.283	15.9211
-38.7257	545.996	15.9407
-38.7236	543.9621	15.9602
-38.7226	542.934	15.9797
-38.7208	550.1673	15.9993
-38.7176	543.651	16.0188
-38.7162	542.316	16.03833
-38.7156	546.288	16.0579
-38.713	548.565	16.0774
-38.7129	542.811	16.0969
-38.7103	545.441	16.1165
-38.70874	545.307	16.136
-38.7074	543.789	16.1555
-38.7058	544.459	16.175
-38.7038	548.623	16.19458
-38.7006	543.177	16.2141
-38.701	542.301	16.2336
-38.6984	547.638	16.2532
-38.6983	546.343	16.2727
-38.6962	542.214	16.2922
-38.6939	546.498	16.3118
-38.6922	547.581	16.3313
-38.6909	539.73	16.35083
-38.6902	547.729	16.3704
-38.6885	545.028	16.3899
-38.6864	539.385	16.4094
-38.6849	544.637	16.429
-38.6825	548.5647	16.4485
-38.6809	538.047	16.468
-38.6792	545.517	16.4875
-38.6772	546.684	16.50708
-38.6763	543.433	16.5266
-38.6739	539.537	16.5461
-38.6732	547.179	16.5657
-38.6711	539.924	16.5852
-38.6706	541.616	16.6047
-38.6688	547.363	16.6243
-38.6666	544.5274	16.6438
-38.6649	540.925	16.66333
-38.6643	546.961	16.6829
-38.6615	543.453	16.7024
-38.6602	540.631	16.7219
-38.6582	543.551	16.7415
-38.6563	546.502	16.761
-38.6549	541.025	16.7805
-38.6528	543.464	16.8
-38.6525	544.365	16.81958
-38.6495	541.6463	16.8391
-38.6487	540.79	16.8586
-38.6461	545.3678	16.8782
-38.64463	542.985	16.8977
-38.6446	537.034	16.9172
-38.6411	543.9436	16.9368
-38.6393	544.319	16.9563
-38.6379	538.268	16.97583
-38.6368	542.692	16.9954
-38.6353	546.416	17.0149
-38.6342	537.525	17.0344
-38.6329	543.772	17.054
-38.6315	544.491	17.0735
-38.6287	538.704	17.093
-38.6277	542.0415	17.1125
-38.6264	549.087	17.13208
-38.6243	537.868	17.1516
-38.6224	541.667	17.1711
-38.6212	545.4848	17.1907
-38.61911	541.993	17.2102
-38.6182	539.42	17.2297
-38.6156	546.956	17.2493
-38.6138	538.649	17.2688
-38.6123	540.231	17.28833
-38.611	543.2876	17.3079
-38.6089	543.826	17.3274
-38.608	537.349	17.3469
-38.6066	542.129	17.3665
-38.6051	542.959	17.386
-38.6024	538.867	17.4055
-38.60215	538.714	17.425
-38.5998	544.279	17.44458
-38.59782	540.307	17.4641
-38.5971	539.807	17.4836
-38.5947	542.841	17.5032
-38.5943	539.6	17.5227
-38.5918	536.7832	17.5422
-38.59	544.086	17.5618
-38.5889	541.371	17.5813
-38.5866	535.464	17.60083
-38.58469	541.502	17.6204
-38.5842	543.265	17.6399
-38.5818	537.626	17.6594
-38.5808	541.012	17.679
-38.5773	545.684	17.6985
-38.5763	535.551	17.718
-38.5742	540.236	17.7375
-38.5745	543.777	17.75708
-38.5722	538.6297	17.7766
-38.5699	538.479	17.7961
-38.5689	546.415	17.8157
-38.5669	537.2135	17.8352
-38.5656	539.335	17.8547
-38.5638	542.409	17.8743
-38.56234	540.78	17.8938
-38.5618	537.162	17.91333
-38.5584	544.045	17.9329
-38.5579	540.616	17.9524
-38.5559	536.9	17.9719
-38.5556	537.812	17.9915
-38.5525	545.46	18.011
-38.5512	536.991	18.0305
-38.5496	539.546	18.05
-38.5485	543.043	18.06958
-38.5462	540.964	18.0891
-38.5433	537.769	18.1086
-38.5426	542.106	18.1282
-38.54126	540.6402	18.1477
-38.5398	538.467	18.1672
-38.5377	542.895	18.1868
-38.5356	542.406	18.2063
-38.5352	535.044	18.22583
-38.5334	540.452	18.2454
-38.5316	545.254	18.2649
-38.5299	535.013	18.2844
-38.5285	539.049	18.304
-38.5265	542.104	18.3235
-38.5265	536.094	18.343
-38.5241	538.502	18.3625
-38.5217	544.204	18.38208
-38.521	534.68	18.4016
-38.519	538.162	18.4211
-38.5162	542.83	18.4407
-38.5149	539.374	18.4602
-38.513	536.017	18.4797
-38.5114	544.3902	18.4993
-38.5105	538.051	18.5188
-38.5095	537.509	18.53833
-38.5066	539.6181	18.5579
-38.5052	542.685	18.5774
-38.504	535.277	18.5969
-38.5022	542.357	18.6165
-38.5007	538.656	18.636
-38.4982	536.27	18.6555
-38.4978	537.142	18.675
-38.4959	544.07	18.69458
-38.4943	538.4386	18.7141
-38.4918	537.355	18.7336
-38.49086	540.417	18.7532
-38.49	540.8551	18.7727
-38.4882	537.097	18.7922
-38.4867	541.699	18.8118
-38.4843	539.567	18.8313
-38.4827	533.965	18.85083
-38.4803	539.792	18.8704
-38.479	543.016	18.8899
-38.4771	533.987	18.9094
-38.4761	539.549	18.929
-38.4748	543.467	18.9485
-38.4731	534.6629	18.968
-38.4715	537.724	18.9875
-38.4707	541.95	19.00708
-38.46843	536.276	19.0266
-38.4662	535.948	19.0461
-38.4643	543.408	19.0657
-38.4621	535.406	19.0852
-38.4617	536.328	19.1047
-38.4591	540.776	19.1243
-38.4577	540.661	19.1438
-38.4557	536.205	19.16333
-38.4551	542.044	19.1829
-38.4533	538.552	19.2024
-38.4513	536.934	19.2219
-38.44997	538.201	19.2415
-38.4486	542.479	19.261
-38.4467	534.84	19.2805
-38.4463	537.238	19.3
-38.4435	539.771	19.31958
-38.4411	537.245	19.3391
-38.4405	534.111	19.3586
-38.438	542.566	19.3782
-38.4366	538.847	19.3977
-38.435	535.5304	19.4172
-38.4334	538.794	19.4368
-38.4315	539.389	19.4563
-38.4306	532.463	19.47583
-38.4281	537.729	19.4954
-38.4259	541.211	19.5149
-38.4249	532.561	19.5344
-38.4245	536.0976	19.554
-38.4232	541.3847	19.5735
-38.4207	535.979	19.593
-38.4197	536.257	19.6125
-38.4176	543.083	19.63208
-38.4168	535.473	19.6516
-38.4144	534.227	19.6711
-38.4115	540.814	19.6907
-38.41148	535.359	19.7102
-38.41	532.856	19.7297
-38.40847	540.925	19.7493
-38.4063	535.905	19.7688
-38.4038	533.889	19.78833
-38.4025	536.634	19.8079
-38.4017	541.3382	19.8274
-38.3997	533.886	19.8469
-38.398	538.145	19.8665
-38.39716	536.795	19.886
-38.3946	535.6861	19.9055
-38.3919	536.508	19.925
-38.39241	541.27	19.94458
-38.3886	534.845	19.9641
-38.3891	534.764	19.9836
-38.38612	538.716	20.0032
-38.3861	538.172	20.0129

Data Header:			0.254_solid_uprint_typeiv_4545_r0			Time:	39.4358	s	4/13/2019 6:48:08 PM
Data Acquisition:	Timed
Station Name:	ft40.cfg
Test File Name:	Type IV_Monotonic.tst
Displacement	Force	Running Time
mm	N	s
-38.3851	538.267	20.0227
-38.3828	532.138	20.0422
-38.3819	538.83	20.0618
-38.3804	537.48	20.0813
-38.3787	534.374	20.10083
-38.3765	538.486	20.1204
-38.376	539.779	20.1399
-38.3723	531.352	20.1594
-38.3703	536.809	20.179
-38.36964	541.32	20.1985
-38.36903	532.345	20.218
-38.367	535.469	20.2375
-38.3653	540.327	20.25708
-38.364	534.564	20.2766
-38.363	534.896	20.2961
-38.36084	540.567	20.3157
-38.3598	532.761	20.3352
-38.357	532.7525	20.3547
-38.3557	539.445	20.3743
-38.3532	537.86	20.3938
-38.3525	532.641	20.41333
-38.3501	540.31	20.4329
-38.3491	537.044	20.4524
-38.3484	535.128	20.4719
-38.3457	534.676	20.4915
-38.3454	539.98	20.511
-38.3431	533.69	20.5305
-38.3407	536.872	20.55
-38.339	537.721	20.56958
-38.3381	534.945	20.5891
-38.337	532.019	20.6086
-38.3336	541.449	20.6282
-38.3331	536.804	20.6477
-38.3312	533.6048	20.6672
-38.3287	536.263	20.6868
-38.3275	537.88	20.7063
-38.32682	530.472	20.72583
-38.3253	538.584	20.7454
-38.3231	538.086	20.7649
-38.3208	532.861	20.7844
-38.3207	534.333	20.804
-38.318	540.401	20.8235
-38.3167	531.03	20.843
-38.3149	533.555	20.8625
-38.313	541.707	20.88208
-38.3117	533.003	20.9016
-38.31049	533.312	20.9211
-38.3087	537.419	20.9407
-38.3068	534.963	20.9602
-38.305	530.364	20.9797
-38.3037	539.524	20.9993
-38.3014	533.808	21.0188
-38.3008	532.408	21.03833
-38.2988	536.215	21.0579
-38.297	538.151	21.0774
-38.2948	532.148	21.0969
-38.2944	536.265	21.1165
-38.29388	535.066	21.136
-38.2898	534.379	21.1555
-38.2884	532.523	21.175
-38.2881	539.157	21.19458
-38.2848	533.097	21.2141
-38.2836	534.098	21.2336
-38.2821	535.563	21.2532
-38.2811	536.025	21.2727
-38.2787	529.797	21.2922
-38.2758	537.499	21.3118
-38.2757	537.525	21.3313
-38.2746	531.995	21.35083
-38.272	533.685	21.3704
-38.271	538.324	21.3899
-38.2694	530.909	21.4094
-38.2682	535.0249	21.429
-38.2658	539.4375	21.4485
-38.2646	529.969	21.468
-38.2626	533.3103	21.4875
-38.2613	540.081	21.50708
-38.2599	532.372	21.5266
-38.2586	530.998	21.5461
-38.2561	538.582	21.5657
-38.25552	533.228	21.5852
-38.2526	530.477	21.6047
-38.25119	536.16	21.6243
-38.2506	535.605	21.6438
-38.2478	529.28	21.66333
-38.2476	538.455	21.6829
-38.2453	534.622	21.7024
-38.2429	531.334	21.7219
-38.241	533.6344	21.7415
-38.2408	539.282	21.761
-38.2393	531.386	21.7805
-38.2375	534.32	21.8
-38.2353	535.136	21.81958
-38.234	534.948	21.8391
-38.2322	531.459	21.8586
-38.23037	538.625	21.8782
-38.2281	534.667	21.8977
-38.2266	533.396	21.9172
-38.2249	535.935	21.9368
-38.224	538.3515	21.9563
-38.2222	530.312	21.97583
-38.2217	535.835	21.9954
-38.2181	537.647	22.0149
-38.2167	529.124	22.0344
-38.2168	532.038	22.054
-38.2149	538.7442	22.0735
-38.2126	529.714	22.093
-38.2113	533.374	22.1125
-38.21011	539.916	22.13208
-38.2077	530.769	22.1516
-38.2062	530.862	22.1711
-38.2043	537.934	22.1907
-38.2038	532.787	22.2102
-38.2014	529.224	22.2297
-38.1993	538.868	22.2493
-38.1978	532.495	22.2688
-38.19593	530.309	22.28833
-38.19474	535.424	22.3079
-38.1933	535.234	22.3274
-38.191	528.698	22.3469
-38.1904	535.566	22.3665
-38.1881	533.962	22.386
-38.1865	530.604	22.4055
-38.1847	531.6	22.425
-38.1824	536.976	22.44458
-38.1814	532.06	22.4641
-38.1802	534.082	22.4836
-38.1801	532.882	22.5032
-38.1765	533.585	22.5227
-38.1753	528.017	22.5422
-38.1733	536.236	22.5618
-38.17223	532.902	22.5813
-38.1707	530.302	22.60083
-38.1694	532.838	22.6204
-38.1663	536.642	22.6399
-38.166	529.047	22.6594
-38.1631	534.11	22.679
-38.1624	536.782	22.6985
-38.1598	530.496	22.718
-38.1598	529.8606	22.7375
-38.15694	537.13	22.75708
-38.1548	529.603	22.7766
-38.1532	529.49	22.7961
-38.1519	537.575	22.8157
-38.1499	530.639	22.8352
-38.15	527.696	22.8547
-38.1475	534.764	22.8743
-38.1451	533.0069	22.8938
-38.1434	528.064	22.91333
-38.1425	535.213	22.9329
-38.1409	532.687	22.9524
-38.1399	528.435	22.9719
-38.1377	533.212	22.9915
-38.13789	536.805	23.011
-38.1343	528.604	23.0305
-38.1324	532.241	23.05
-38.1305	534.01	23.06958
-38.1286	531.846	23.0891
-38.1284	527.999	23.1086
-38.1266	535.69	23.1282
-38.1253	532.447	23.1477
-38.1242	530.822	23.1672
-38.1212	532.812	23.1868
-38.1204	533.688	23.2063
-38.1178	527.472	23.22583
-38.1169	534.768	23.2454
-38.1147	534.575	23.2649
-38.1118	528.455	23.2844
-38.1108	529.111	23.304
-38.1101	537.168	23.3235
-38.1086	529.23	23.343
-38.1072	531.2663	23.3625
-38.1066	537.317	23.38208
-38.1038	529.552	23.4016
-38.1012	528.312	23.4211
-38.1008	536.5191	23.4407
-38.0986	529.252	23.4602
-38.0965	526.4906	23.4797
-38.0957	535.6463	23.4993
-38.0932	532.161	23.5188
-38.0917	528.5589	23.53833
-38.0905	533.866	23.5579
-38.0899	533.214	23.5774
-38.0884	527.383	23.5969
-38.0853	533.974	23.6165
-38.0834	534.639	23.636
-38.08239	527.734	23.6555
-38.0815	530.458	23.675
-38.0793	537.599	23.69458
-38.077	529.517	23.7141
-38.0761	530.995	23.7336
-38.0738	532.453	23.7532
-38.0729	533.632	23.7727
-38.0709	526.827	23.7922
-38.0702	533.762	23.8118
-38.0678	532.304	23.8313
-38.06538	528.73	23.85083
-38.0637	531.268	23.8704
-38.0629	533.879	23.8899
-38.062	524.942	23.9094
-38.0592	531.871	23.929
-38.0585	536.668	23.9485
-38.0558	528.614	23.968
-38.0537	527.841	23.9875
-38.05246	536.594	24.00708
-38.0513	528.52	24.0266
-38.049	530.0412	24.0461
-38.0483	535.166	24.0657
-38.0471	530.2616	24.0852
-38.0445	524.778	24.1047
-38.0428	534.476	24.1243
-38.0405	531.647	24.1438
-38.04	526.513	24.16333
-38.0389	533.952	24.1829
-38.0367	531.3974	24.2024
-38.0356	526.561	24.2219
-38.0342	531.37	24.2415
-38.0316	533.758	24.261
-38.0308	526.063	24.2805
-38.0285	532.4953	24.3
-38.0268	532.979	24.31958
-38.025	530.063	24.3391
-38.023	527.642	24.3586
-38.0228	535.531	24.3782
-38.0199	530.037	24.3977
-38.0181	528.907	24.4172
-38.0162	529.564	24.4368
-38.0155	532.725	24.4563
-38.0129	527.14	24.47583
-38.0119	532.663	24.4954
-38.0101	532.033	24.5149
-38.00898	526.062	24.5344
-38.00824	527.36	24.554
-38.0056	536.896	24.5735
-38.0048	524.521	24.593
-38.0027	528.327	24.6125
-38.0011	533.6333	24.63208
-37.9989	527.849	24.6516
-37.9978	526.428	24.6711
-37.9957	533.758	24.6907
-37.9939	528.8136	24.7102
-37.9926	527.01	24.7297
-37.9915	533.998	24.7493
-37.9892	531.1676	24.7688
-37.9878	523.718	24.78833
-37.9868	531.595	24.8079
-37.9848	531.94	24.8274
-37.9828	525.688	24.8469
-37.9815	531.689	24.8665
-37.9797	530.596	24.886
-37.9789	525.873	24.9055
-37.9761	528.235	24.925
-37.97467	534.714	24.94458
-37.9733	526.888	24.9641
-37.9716	529.181	24.9836
-37.9683	530.966	25.0032
-37.968	530.436	25.0227
-37.9672	525.162	25.0422
-37.9657	532.58	25.0618
-37.9635	530.822	25.0813
-37.9623	527.5274	25.10083
-37.9614	528.894	25.1204
-37.9587	533.575	25.1399
-37.9578	523.908	25.1594
-37.9557	531.948	25.179
-37.95311	535.302	25.1985
-37.9517	526.859	25.218
-37.9511	525.466	25.2375
-37.9484	534.791	25.25708
-37.9462	527.515	25.2766
-37.945	526.7757	25.2961
-37.9445	532.141	25.3157
-37.9409	528.737	25.3352
-37.9411	524.323	25.3547
-37.9399	533.566	25.3743
-37.937	530.604	25.3938
-37.93504	523.889	25.41333
-37.9338	533.309	25.4329
-37.9326	531.081	25.4524
-37.9308	525.189	25.4719
-37.92905	530.32	25.4915
-37.9275	531.249	25.511
-37.9257	525.996	25.5305
-37.9241	529.375	25.55
-37.92197	532.272	25.56958
-37.9214	527.0022	25.5891
-37.9201	525.019	25.6086
-37.918	535.892	25.6282
-37.9156	528.118	25.6477
-37.91497	526.976	25.6672
-37.9132	530.567	25.6868
-37.9108	529.1972	25.7063
-37.9097	523.754	25.72583
-37.9073	531.604	25.7454
-37.9063	531.197	25.7649
-37.9057	527.515	25.7844
-37.9033	527.866	25.804
-37.9011	533.274	25.8235
-37.9008	525.713	25.843
-37.8972	527.128	25.8625
-37.8964	533.732	25.88208
-37.8945	528.955	25.9016
-37.8943	524.314	25.9211
-37.8924	535.341	25.9407
-37.8893	528.474	25.9602
-37.88945	525.304	25.9797
-37.8873	533.078	25.9993
-37.8853	529.268	26.0188
-37.8842	521.513	26.03833
-37.8817	531.967	26.0579
-37.8803	531.516	26.0774
-37.8792	524.376	26.0969
-37.87767	529.843	26.1165
-37.8744	531.354	26.136
-37.8732	524.817	26.1555
-37.87236	528.6474	26.175
-37.8718	530.52	26.19458
-37.8687	525.094	26.2141
-37.8677	526.444	26.2336
-37.8652	530.227	26.2532
-37.8642	527.5636	26.2727
-37.8633	523.8136	26.2922
-37.8612	532.826	26.3118
-37.8594	529.112	26.3313
-37.8572	525.247	26.35083
-37.8554	527.853	26.3704
-37.8551	532.845	26.3899
-37.8527	523.975	26.4094
-37.8521	530.513	26.429
-37.8496	531.758	26.4485
-37.8478	526.289	26.468
-37.8454	525.906	26.4875
-37.8455	533.831	26.50708
-37.8436	524.499	26.5266
-37.8425	525.675	26.5461
-37.8395	533.4646	26.5657
-37.8387	527.934	26.5852
-37.8366	522.038	26.6047
-37.8336	531.826	26.6243
-37.8333	528.782	26.6438
-37.8309	524.403	26.66333
-37.8303	531.328	26.6829
-37.8286	530.951	26.7024
-37.8271	522.134	26.7219
-37.8242	529.194	26.7415
-37.8231	531.772	26.761
-37.8217	525.213	26.7805
-37.8197	528.4231	26.8
-37.8182	531.643	26.81958
-37.8173	525.043	26.8391
-37.8158	527.244	26.8586
-37.8137	531.2431	26.8782
-37.8119	525.962	26.8977
-37.811	527.19	26.9172
-37.8083	530.158	26.9368
-37.806	528.951	26.9563
-37.8058	521.784	26.97583
-37.8049	530.036	26.9954
-37.8031	530.42	27.0149
-37.8016	526.384	27.0344
-37.7998	526.034	27.054
-37.7985	533.815	27.0735
-37.7965	523.901	27.093
-37.7937	528.856	27.1125
-37.7918	531.887	27.13208
-37.7898	527.651	27.1516
-37.7888	521.948	27.1711
-37.7873	533.831	27.1907
-37.7857	525.653	27.2102
-37.7835	523.688	27.2297
-37.78286	531.138	27.2493
-37.7807	530.304	27.2688
-37.7788	522.154	27.28833
-37.7781	529.384	27.3079
-37.77639	528.7829	27.3274
-37.7742	522.081	27.3469
-37.773	529.9931	27.3665
-37.77095	531.987	27.386
-37.77042	523.276	27.4055
-37.7684	527.301	27.425
-37.7676	529.163	27.44458
-37.7656	525.326	27.4641
-37.7643	527.9881	27.4836
-37.7613	529.804	27.5032
-37.7605	526.411	27.5227
-37.7582	524.385	27.5422
-37.7561	531.538	27.5618
-37.755	527.905	27.5813
-37.7536	524.554	27.60083
-37.7523	527.192	27.6204
-37.7511	530.447	27.6399
-37.7486	522.1059	27.6594
-37.7457	527.58	27.679
-37.7442	530.23	27.6985
-37.74358	525.37	27.718
-37.7425	524.638	27.7375
-37.741	532.216	27.75708
-37.73772	523.5824	27.7766
-37.7385	525.423	27.7961
-37.7358	532.46	27.8157
-37.7343	527.288	27.8352
-37.7316	521.693	27.8547
-37.7313	531.091	27.8743
-37.7283	528.187	27.8938
-37.7276	523.985	27.91333
-37.725	528.83	27.9329
-37.7246	529.562	27.9524
-37.7221	520.852	27.9719
-37.7205	528.016	27.9915
-37.7191	531.104	28.011
-37.7183	521.775	28.0305
-37.7171	526.951	28.05
-37.7154	530.423	28.06958
-37.7134	523.673	28.0891
-37.7108	524.18	28.1086
-37.7091	530.63	28.1282
-37.7072	525.792	28.1477
-37.7054	525.509	28.1672
-37.7049	527.665	28.1868
-37.7025	526.85	28.2063
-37.701	520.971	28.22583
-37.69939	529.703	28.2454
-37.69775	530.62	28.2649
-37.6967	524.076	28.2844
-37.6962	524.192	28.304
-37.6939	530.771	28.3235
-37.6914	522.145	28.343
-37.6898	525.741	28.3625
-37.6887	529.45	28.38208
-37.6861	524.677	28.4016
-37.6856	521.575	28.4211
-37.6851	531.2569	28.4407
-37.6819	523.763	28.4602
-37.6814	522.572	28.4797
-37.6788	530.342	28.4993
-37.6774	528.755	28.5188
-37.676	518.17	28.53833
-37.6727	528.822	28.5579
-37.67226	527.388	28.5774
-37.6711	522.417	28.5969
-37.66877	529.272	28.6165
-37.6676	530.0957	28.636
-37.66502	519.836	28.6555
-37.6639	526.375	28.675
-37.6617	529.233	28.69458
-37.6606	522.867	28.7141
-37.6587	523.84	28.7336
-37.658	528.528	28.7532
-37.6549	525.076	28.7727
-37.6536	520.653	28.7922
-37.65324	528.24	28.8118
-37.6503	524.684	28.8313
-37.64975	524.218	28.85083
-37.6473	526.631	28.8704
-37.6462	528.272	28.8899
-37.6451	521.648	28.9094
-37.6426	526.294	28.929
-37.6408	530.2981	28.9485
-37.6396	524.739	28.968
-37.6385	522.886	28.9875
-37.6367	531.847	29.00708
-37.6349	521.867	29.0266
-37.6321	525.4303	29.0461
-37.632	529.8205	29.0657
-37.6297	526.04	29.0852
-37.6279	520.174	29.1047
-37.6274	529.771	29.1243
-37.6252	525.6377	29.1438
-37.6228	521.4859	29.16333
-37.6219	528.872	29.1829
-37.6208	528.989	29.2024
-37.6182	518.049	29.2219
-37.6163	526.445	29.2415
-37.6156	527.199	29.261
-37.6144	522.159	29.2805
-37.612	527.117	29.3
-37.6115	528.346	29.31958
-37.608	520.021	29.3391
-37.6073	525.779	29.3586
-37.6045	528.449	29.3782
-37.6042	524.196	29.3977
-37.6027	522.78	29.4172
-37.6	527.555	29.4368
-37.5984	524.9115	29.4563
-37.5972	521.23	29.47583
-37.5949	527.922	29.4954
-37.5943	526.486	29.5149
-37.5921	521.722	29.5344
-37.5909	525.177	29.554
-37.5893	529.703	29.5735
-37.58733	520.679	29.593
-37.5855	524.007	29.6125
-37.5841	528.439	29.63208
-37.5829	525.392	29.6516
-37.5819	520.122	29.6711
-37.579	529.08	29.6907
-37.5781	521.844	29.7102
-37.5771	521.268	29.7297
-37.5743	527.7735	29.7493
-37.5725	526.987	29.7688
-37.57	518.099	29.78833
-37.5687	527.949	29.8079
-37.56699	526.178	29.8274
-37.5661	521.179	29.8469
-37.5648	524.966	29.8665
-37.5629	528.856	29.886
-37.5615	519.924	29.9055
-37.56	525.447	29.925
-37.55827	526.939	29.94458
-37.5556	522.296	29.9641
-37.5553	522.377	29.9836
-37.5534	529.831	30.0032
-37.5526	523.255	30.0227
-37.5497	519.945	30.0422
-37.5495	527.579	30.0618
-37.5466	524.412	30.0813
-37.5444	521.781	30.10083
-37.5435	523.878	30.1204
-37.5411	526.025	30.1399
-37.5401	519.582	30.1594
-37.5377	524.912	30.179
-37.5362	525.531	30.1985
-37.5342	520.3623	30.218
-37.533	520.821	30.2375
-37.5318	529.063	30.25708
-37.5303	521.506	30.2766
-37.529	522.407	30.2961
-37.5273	528.451	30.3157
-37.525	526.5274	30.3352
-37.5244	518.587	30.3547
-37.5225	527.966	30.3743
-37.5209	522.905	30.3938
-37.5198	520.4325	30.41333
-37.5179	528.031	30.4329
-37.5164	527.124	30.4524
-37.5136	517.463	30.4719
-37.51342	525.04	30.4915
-37.5109	527.351	30.511
-37.5083	522.131	30.5305
-37.5076	522.024	30.55
-37.5061	526.65	30.56958
-37.5042	520.366	30.5891
-37.50317	521.637	30.6086
-37.5019	528.0036	30.6282
-37.4992	522.261	30.6477
-37.4983	521.593	30.6672
-37.4974	528.1377	30.6868
-37.4952	524.961	30.7063
-37.4934	518.986	30.72583
-37.4914	526.752	30.7454
-37.49	523.853	30.7649
-37.4882	521.58	30.7844
-37.4868	523.0307	30.804
-37.4855	527.7157	30.8235
-37.4831	520.247	30.843
-37.4813	522.62	30.8625
-37.47971	528.023	30.88208
-37.4789	523.431	30.9016
-37.4766	519.747	30.9211
-37.4757	528.26	30.9407
-37.4734	521.8	30.9602
-37.4731	520.457	30.9797
-37.4708	526.12	30.9993
-37.4688	525.566	31.0188
-37.4681	515.497	31.03833
-37.4657	527.143	31.0579
-37.46365	523.247	31.0774
-37.4607	519.482	31.0969
-37.4604	525.058	31.1165
-37.4578	527.268	31.136
-37.4574	516.834	31.1555
-37.4557	522.409	31.175
-37.4548	525.1543	31.19458
-37.4527	520.281	31.2141
-37.4509	521.901	31.2336
-37.44944	525.894	31.2532
-37.44743	518.865	31.2727
-37.4465	519.3136	31.2922
-37.4452	526.1637	31.3118
-37.4422	524.307	31.3313
-37.4417	518.731	31.35083
-37.4392	523.344	31.3704
-37.4375	524.292	31.3899
-37.43618	518.967	31.4094
-37.4352	524.387	31.429
-37.43362	525.674	31.4485
-37.4314	520.993	31.468
-37.4286	520.061	31.4875
-37.4287	527.907	31.50708
-37.4271	518.567	31.5266
-37.4244	521.055	31.5461
-37.4236	527.023	31.5657
-37.4219	524.043	31.5852
-37.4202	516.774	31.6047
-37.41909	527.103	31.6243
-37.416	520.5	31.6438
-37.415	520.284	31.66333
-37.4134	526.5661	31.6829
-37.41217	525.77	31.7024
-37.4094	515.378	31.7219
-37.4085	525.603	31.7415
-37.4071	524.891	31.761
-37.4053	518.961	31.7805
-37.4038	523.331	31.8
-37.40168	529.244	31.81958
-37.4007	518.973	31.8391
-37.3992	520.473	31.8586
-37.3965	525.883	31.8782
-37.3952	520.438	31.8977
-37.39436	520.031	31.9172
-37.3923	526.052	31.9368
-37.3908	522.814	31.9563
-37.3885	517.401	31.97583
-37.3873	523.582	31.9954
-37.3852	523.448	32.0149
-37.3837	520.002	32.0344
-37.3829	520.595	32.054
-37.3809	527.246	32.0735
-37.3781	519.665	32.093
-37.37706	522.249	32.1125
-37.3756	524.256	32.13208
-37.3746	520.621	32.1516
-37.3736	518.696	32.1711
-37.3713	526.173	32.1907
-37.3693	519.9776	32.2102
-37.369	518.444	32.2297
-37.3668	524.282	32.2493
-37.3652	525.784	32.2688
-37.3629	515.856	32.28833
-37.3617	525.409	32.3079
-37.35915	521.762	32.3274
-37.3583	518.871	32.3469
-37.355	523.569	32.3665
-37.3554	526.228	32.386
-37.3527	514.3	32.4055
-37.3528	521.554	32.425
-37.3507	524.261	32.44458
-37.3488	519.8728	32.4641
-37.3471	520.524	32.4836
-37.3448	526.259	32.5032
-37.3427	518.984	32.5227
-37.34087	518.2749	32.5422
-37.3403	522.884	32.5618
-37.3391	521.302	32.5813
-37.3362	517.995	32.60083
-37.3351	524.505	32.6204
-37.3334	521.835	32.6399
-37.33234	517.448	32.6594
-37.3306	520.997	32.679
-37.3291	523.668	32.6985
-37.3262	519.737	32.718
-37.3249	518.424	32.7375
-37.3238	524.319	32.75708
-37.3224	518.213	32.7766
-37.32008	520.4328	32.7961
-37.3195	523.973	32.8157
-37.3176	522.406	32.8352
-37.3161	515.1059	32.8547
-37.3142	526.5899	32.8743
-37.31427	520.848	32.8938
-37.3111	517.739	32.91333
-37.3086	523.866	32.9329
-37.3075	524.613	32.9524
-37.3077	514.916	32.9719
-37.3041	523.476	32.9915
-37.30312	522.082	33.011
-37.3011	516.058	33.0305
-37.2995	519.875	33.05
-37.2968	526.938	33.06958
-37.296	515.7323	33.0891
-37.2943	517.143	33.1086
-37.2931	523.588	33.1282
-37.2902	519.3476	33.1477
-37.2904	516.947	33.1672
-37.2881	523.581	33.1868
-37.2855	519.25	33.2063
-37.2842	517.364	33.22583
-37.2827	522.652	33.2454
-37.28159	521.121	33.2649
-37.2793	516.409	33.2844
-37.2788	520.52	33.304
-37.27639	521.66	33.3235
-37.2749	517.588	33.343
-37.2723	519.469	33.3625
-37.2723	523.66	33.38208
-37.2699	520.2276	33.4016
-37.2687	516.442	33.4211
-37.2669	524.483	33.4407
-37.265	518.715	33.4602
-37.2643	517.044	33.4797
-37.2621	523.679	33.4993
-37.2603	521.483	33.5188
-37.2592	512.529	33.53833
-37.2573	523.075	33.5579
-37.2558	521.519	33.5774
-37.2532	516.831	33.5969
-37.2509	518.485	33.6165
-37.2504	525.184	33.636
-37.2492	512.296	33.6555
-37.24649	520.2356	33.675
-37.2461	521.298	33.69458
-37.2435	518.582	33.7141
-37.24192	517.689	33.7336
-37.24044	524.705	33.7532
-37.2396	515.903	33.7727
-37.2367	516.138	33.7922
-37.2362	520.195	33.8118
-37.2337	519.27	33.8313
-37.2333	514.466	33.85083
-37.2319	520.563	33.8704
-37.2298	518.764	33.8899
-37.2277	514.996	33.9094
-37.2256	518.877	33.929
-37.2247	519.815	33.9485
-37.223	515.862	33.968
-37.222	516.331	33.9875
-37.2196	521.292	34.00708
-37.2183	516.178	34.0266
-37.2171	515.989	34.0461
-37.2145	519.634	34.0657
-37.2127	519.9259	34.0852
-37.2116	514.172	34.1047
-37.2107	521.942	34.1243
-37.2079	518.897	34.1438
-37.2066	515.184	34.16333
-37.2049	519.757	34.1829
-37.2039	522.806	34.2024
-37.203	511.573	34.2219
-37.2009	519.166	34.2415
-37.1988	519.673	34.261
-37.1966	515.636	34.2805
-37.1947	517.352	34.3
-37.1935	522.264	34.31958
-37.19297	512.125	34.3391
-37.1913	517.249	34.3586
-37.1875	521.233	34.3782
-37.1868	518.131	34.3977
-37.1852	513.79	34.4172
-37.18401	521.849	34.4368
-37.18103	517.631	34.4563
-37.1814	514.665	34.47583
-37.1802	518.546	34.4954
-37.1776	520.86	34.5149
-37.17572	514.673	34.5344
-37.1739	517.108	34.554
-37.1727	519.076	34.5735
-37.1715	511.953	34.593
-37.1695	515.298	34.6125
-37.168	518.816	34.63208
-37.16544	516.02	34.6516
-37.1647	511.829	34.6711
-37.163	520.318	34.6907
-37.1618	515.81	34.7102
-37.1591	513.87	34.7297
-37.158	519.624	34.7493
-37.1566	518.682	34.7688
-37.1548	510.815	34.78833
-37.1535	520.466	34.8079
-37.1511	517.841	34.8274
-37.1491	512.901	34.8469
-37.1483	515.794	34.8665
-37.1461	521.13	34.886
-37.1449	509.464	34.9055
-37.1425	517.978	34.925
-37.1409	516.65	34.94458
-37.14027	515.433	34.9641
-37.1382	514.999	34.9836
-37.1369	520.568	35.0032
-37.135	511.05	35.0227
-37.1333	513.315	35.0422
-37.1319	518.6532	35.0618
-37.13039	518.209	35.0813
-37.1288	513.22	35.10083
-37.1269	518.804	35.1204
-37.1261	514.807	35.1399
-37.1235	512.302	35.1594
-37.1242	515.225	35.179
-37.1191	517.3551	35.1985
-37.1191	513.178	35.218
-37.1169	513.992	35.2375
-37.1153	518.307	35.25708
-37.1132	512.2063	35.2766
-37.1126	509.955	35.2961
-37.1101	516.56	35.3157
-37.1097	516.687	35.3352
-37.1069	508.872	35.3547
-37.1064	517.199	35.3743
-37.1045	513.51	35.3938
-37.1036	511.221	35.41333
-37.10001	515.603	35.4329
-37.0987	517.809	35.4524
-37.0962	506.661	35.4719
-37.0958	516.704	35.4915
-37.0934	514.973	35.511
-37.0934	510.235	35.5305
-37.0906	511.62	35.55
-37.09	518.878	35.56958
-37.0888	508.231	35.5891
-37.0858	512.624	35.6086
-37.0846	516.4411	35.6282
-37.0841	511.336	35.6477
-37.0819	509.819	35.6672
-37.0796	517.531	35.6868
-37.0778	510.628	35.7063
-37.0756	510.181	35.72583
-37.075	513.401	35.7454
-37.0741	514.801	35.7649
-37.0721	509.384	35.7844
-37.0699	513.476	35.804
-37.06823	513.094	35.8235
-37.067	510.213	35.843
-37.0653	510.145	35.8625
-37.0626	515.662	35.88208
-37.0616	509.565	35.9016
-37.0609	508.854	35.9211
-37.0588	514.144	35.9407
-37.057	511.399	35.9602
-37.0554	507.089	35.9797
-37.0531	512.486	35.9993
-37.0523	513.711	36.0188
-37.0519	506.758	36.03833
-37.0493	512.8587	36.0579
-37.0478	512.108	36.0774
-37.04591	507.039	36.0969
-37.0445	510.537	36.1165
-37.0417	515.087	36.136
-37.0401	503.3905	36.1555
-37.0393	509.8223	36.175
-37.0367	512.097	36.19458
-37.0357	507.495	36.2141
-37.0351	506.192	36.2336
-37.0325	514.567	36.2532
-37.0303	504.748	36.2727
-37.0283	506.653	36.2922
-37.02676	509.915	36.3118
-37.0254	508.912	36.3313
-37.0239	502.557	36.35083
-37.0226	509.866	36.3704
-37.0212	506.479	36.3899
-37.0195	502.907	36.4094
-37.0174	505.745	36.429
-37.0164	508.341	36.4485
-37.0159	503.36	36.468
-37.0132	504.34	36.4875
-37.01049	506.552	36.50708
-37.0099	503.2832	36.5266
-37.0081	499.863	36.5461
-37.0059	506.757	36.5657
-37.0047	504.426	36.5852
-37.004	498.009	36.6047
-37.0022	502.163	36.6243
-37.0001	501.66	36.6438
-36.9983	497.568	36.66333
-36.997	499.698	36.6829
-36.9958	500.9296	36.7024
-36.993	491.7916	36.7219
-36.9917	495.788	36.7415
-36.98642	4.66376	36.761
-36.9855	-67.3045	36.7805
-36.985	-37.6133	36.8
-36.9842	-34.82188	36.81958
-36.98122	-43.8699	36.8391
-36.9817	-40.4988	36.8586
-36.9802	-38.6929	36.8782
-36.9775	-40.7977	36.8977
-36.9773	-42.2314	36.9172
-36.9747	-35.4544	36.9368
-36.9733	-43.351	36.9563
-36.9715	-41.6194	36.97583
-36.9696	-39.46476	36.9954
-36.96904	-37.1728	37.0149
-36.9674	-44.3116	37.0344
-36.966	-38.5212	37.054
-36.9638	-38.8745	37.0735
-36.9621	-40.7579	37.093
-36.9613	-42.395	37.1125
-36.9592	-36.547	37.13208
-36.95657	-41.6681	37.1516
-36.9551	-42.7915	37.1711
-36.955	-39.8889	37.1907
-36.9524	-41.7059	37.2102
-36.95068	-44.7742	37.2297
-36.9489	-37.4923	37.2493
-36.9478	-38.5149	37.2688
-36.9461	-44.1773	37.28833
-36.9442	-40.286	37.3079
-36.943	-38.3971	37.3274
-36.9413	-44.0444	37.3469
-36.9397	-40.4861	37.3665
-36.9378	-37.2412	37.386
-36.9372	-45.9197	37.4055
-36.9347	-43.4244	37.425
-36.9328	-37.7968	37.44458
-36.931	-41.7494	37.4641
-36.9309	-43.25774	37.4836
-36.92852	-34.073	37.5032
-36.9257	-43.308	37.5227
-36.9259	-42.2659	37.5422
-36.923	-40.3469	37.5618
-36.9223	-40.6514	37.5813
-36.9195	-44.3691	37.60083
-36.9177	-37.2754	37.6204
-36.9174	-41.7245	37.6399
-36.9153	-43.1348	37.6594
-36.9136	-40.9848	37.679
-36.91267	-37.6357	37.6985
-36.9103	-43.4352	37.718
-36.9081	-41.6203	37.7375
-36.9071	-39.7684	37.75708
-36.9047	-42.1081	37.7766
-36.9029	-43.6244	37.7961
-36.9012	-38.1155	37.8157
-36.8996	-41.58942	37.8352
-36.8992	-42.2394	37.8547
-36.8969	-39.6802	37.8743
-36.8962	-40.1079	37.8938
-36.8939	-45.7322	37.91333
-36.8915	-39.9888	37.9329
-36.8909	-36.7128	37.9524
-36.8891	-45.0269	37.9719
-36.8875	-41.9076	37.9915
-36.8859	-38.5487	38.011
-36.885	-43.6078	38.0305
-36.8824	-41.71854	38.05
-36.8807	-36.1119	38.06958
-36.87899	-45.5118	38.0891
-36.8775	-43.7617	38.1086
-36.8759	-38.5932	38.1282
-36.874	-41.2788	38.1477
-36.8732	-44.2824	38.1672
-36.8715	-36.6911	38.1868
-36.8703	-44.2496	38.2063
-36.8666	-42.5231	38.22583
-36.8664	-40.70853	38.2454
-36.8652	-39.2944	38.2649
-36.8635	-44.4267	38.2844
-36.862	-39.0714	38.304
-36.8601	-37.996	38.3235
-36.8585	-41.4513	38.343
-36.8563	-44.0097	38.3625
-36.8562	-37.4617	38.38208
-36.8542	-42.6406	38.4016
-36.85199	-43.99794	38.4211
-36.8501	-40.4243	38.4407
-36.8487	-39.8649	38.4602
-36.8465	-44.68174	38.4797
-36.8438	-37.6631	38.4993
-36.843	-39.4812	38.5188
-36.8417	-45.077	38.53833
-36.84	-40.0988	38.5579
-36.8384	-36.5433	38.5774
-36.837	-44.0294	38.5969
-36.8352	-42.0467	38.6165
-36.8341	-36.31694	38.636
-36.8326	-44.33606	38.6555
-36.8309	-41.2149	38.675
-36.8282	-38.12904	38.69458
-36.8274	-43.4792	38.7141
-36.8256	-43.9872	38.7336
-36.8241	-35.338	38.7532
-36.8232	-44.2808	38.7727
-36.8211	-43.9686	38.7922
-36.8202	-41.0303	38.8118
-36.8172	-38.9579	38.8313
-36.8166	-45.38208	38.85083
-36.8155	-38.091	38.8704
-36.8141	-42.0813	38.8899
-36.8113	-41.6901	38.9094
-36.8095	-41.089	38.929
-36.8082	-37.4817	38.9485
-36.80661	-43.0159	38.968
-36.8053	-40.2205	38.9875
-36.8024	-40.249	39.00708
-36.8009	-40.7278	39.0266
-36.7997	-43.9595	39.0461
-36.7974	-37.8226	39.0657
-36.7952	-40.5854	39.0852
-36.7942	-43.3899	39.1047
-36.7922	-39.9464	39.1243
-36.7908	-38.8693	39.1438
-36.7892	-45.1857	39.16333
-36.7879	-39.7877	39.1829
-36.7873	-37.125	39.2024
-36.78487	-43.6185	39.2219
-36.7831	-42.6181	39.2415
-36.7818	-36.4911	39.261
-36.7804	-43.98785	39.2805
-36.77869	-43.1129	39.3
-36.7772	-36.269	39.31958
-36.7753	-44.7922	39.3391
-36.7743	-43.0791	39.3586
-36.7709	-36.5057	39.3782
-36.7705	-42.0004	39.3977
-36.7688	-44.8549	39.4172
-36.7681	-38.8777	39.427