File: data/processed_data_files/tensile/0.254_solid_uprint_typei_4545_r(2).dat
MTS793|BTW|ENU|1|2|.|/|:|1|0|0|A

Data Header:			0.254_solid_uprint_typei_4545_r0			Time:	20.0181	s	4/14/2019 4:20:54 AM
Data Acquisition:	Timed
Station Name:	ft40.cfg
Test File Name:	monotonic_0.2540_typei_solid_4545_uprint.tst
Displacement	Force	Running Time
mm	N	s
9.95688	-140.096	0.0231934
9.95759	-123.565	0.0427246
9.95622	-130.2198	0.0622559
9.9568	-145.041	0.0817871
9.95886	-127.898	0.101318
9.95895	-123.949	0.12085
9.961257	-139.115	0.140381
9.96223	-130.742	0.159912
9.9641	-119.449	0.179443
9.96656	-132.455	0.198975
9.96767	-132.734	0.218506
9.96927	-119.33	0.238037
9.97135	-126.55	0.257568
9.97244	-130.277	0.2771
9.97457	-118.226	0.296631
9.97575	-120.657	0.316162
9.976984	-131.958	0.335693
9.979414	-118.064	0.355225
9.98071	-114.995	0.374756
9.98222	-124.762	0.394287
9.98475	-121.636	0.413818
9.98439	-110.998	0.43335
9.98708	-125.045	0.452881
9.98953	-118.118	0.472412
9.98993	-106.785	0.491943
9.99159	-117.135	0.511475
9.99254	-120.764	0.531006
9.99497	-101.97	0.550537
9.99695	-115.102	0.570068
9.99932	-119.689	0.5896
10.0003	-103.6274	0.609131
10.0016	-106.194	0.628662
10.0039	-119.923	0.648193
10.0052	-103.949	0.667725
10.0066	-103.119	0.687256
10.0083	-113.6614	0.706787
10.0096	-102.575	0.726318
10.0117	-97.6515	0.74585
10.01302	-112.017	0.765381
10.0154	-103.319	0.784912
10.0163	-94.0118	0.804443
10.0177	-104.951	0.823975
10.0194	-105.175	0.843506
10.021	-92.4258	0.863037
10.0229	-98.6645	0.882568
10.02389	-105.393	0.9021
10.0269	-89.9561	0.921631
10.0285	-93.97644	0.941162
10.0297	-101.338	0.960693
10.0311	-91.2252	0.980225
10.0326	-87.6597	0.999756
10.0342	-100.7653	1.01929
10.0355	-88.8479	1.03882
10.0373	-82.0143	1.05835
10.0394	-95.871	1.07788
10.0395	-94.4132	1.09741
10.0424	-76.7383	1.11694
10.0438	-90.3141	1.13647
10.0449	-89.3709	1.15601
10.0478	-77.1587	1.17554
10.0496	-82.7457	1.19507
10.0513	-91.9204	1.2146
10.0522	-74.0415	1.23413
10.0536	-80.186	1.25366
10.0541	-87.7965	1.27319
10.0574	-74.1687	1.29272
10.05824	-71.9524	1.31226
10.0608	-86.2082	1.33179
10.0622	-74.641	1.35132
10.0629	-67.9642	1.37085
10.0647	-80.7615	1.39038
10.0666	-73.1457	1.40991
10.0679	-64.3844	1.42944
10.0709	-74.7934	1.44897
10.0719	-75.7995	1.46851
10.0744	-61.0945	1.48804
10.075	-70.2507	1.50757
10.0768	-74.7435	1.5271
10.0779	-60.6436	1.54663
10.0796	-60.8395	1.56616
10.082	-73.6004	1.58569
10.0827	-60.4396	1.60522
10.0848	-58.2523	1.62476
10.0863	-66.8601	1.64429
10.0877	-61.9112	1.66382
10.089	-51.61	1.68335
10.0906	-66.44912	1.70288
10.0922	-59.9235	1.72241
10.0949	-47.2141	1.74194
10.096	-57.85421	1.76147
10.0974	-63.9282	1.78101
10.0997	-43.9941	1.80054
10.1021	-53.85421	1.82007
10.1033	-60.4505	1.8396
10.1046	-44.1774	1.85913
10.1064	-48.1002	1.87866
10.1071	-58.8589	1.89819
10.1091	-43.3855	1.91772
10.1114	-41.6917	1.93726
10.1121	-56.9048	1.95679
10.1138	-42.9073	1.97632
10.1147	-37.1116	1.99585
10.1181	-52.2832	2.01538
10.119	-47.7021	2.03491
10.1203	-33.0856	2.05444
10.123	-45.4784	2.07397
10.1234	-43.5383	2.09351
10.1253	-31.9736	2.11304
10.1264	-38.0727	2.13257
10.1283	-45.7413	2.1521
10.1306	-28.4687	2.17163
10.1322	-31.8647	2.19116
10.1331	-41.2864	2.21069
10.1353	-31.697	2.23022
10.1369	-23.7174	2.24976
10.1382	-40.883	2.26929
10.141	-29.7056	2.28882
10.14214	-21.93251	2.30835
10.143	-32.7561	2.32788
10.14428	-30.9847	2.34741
10.1474	-15.9883	2.36694
10.1483	-30.3029	2.38647
10.1496	-28.8638	2.40601
10.1506	-13.5559	2.42554
10.1536	-21.8504	2.44507
10.1536	-32.127	2.4646
10.1567	-12.1963	2.48413
10.157	-16.8499	2.50366
10.1599	-25.9453	2.52319
10.16126	-14.263	2.54272
10.1627	-11.5069	2.56226
10.164	-25.0168	2.58179
10.1655	-13.4768	2.60132
10.1669	-5.67388	2.62085
10.1689	-20.6253	2.64038
10.1708	-13.73608	2.65991
10.1723	-1.87898	2.67944
10.1747	-12.3863	2.69897
10.1745	-15.6596	2.71851
10.1766	0.900503	2.73804
10.1791	-7.21652	2.75757
10.1809	-11.7975	2.7771
10.1817	-1.00118	2.79663
10.1837	-0.395022	2.81616
10.185	-12.7732	2.83569
10.1874	2.05429	2.85522
10.1886	4.75239	2.87476
10.1902	-7.71634	2.89429
10.1922	0.57824	2.91382
10.1944	12.8141	2.93335
10.1947	-4.03833	2.95288
10.1968	-0.496591	2.97241
10.1995	14.9876	2.99194
10.2011	3.46952	3.01147
10.2007	-0.314663	3.03101
10.2038	17.3294	3.05054
10.2054	7.334	3.07007
10.2077	2.28428	3.0896
10.2086	19.1164	3.10913
10.2096	15.897	3.12866
10.2107	1.19819	3.14819
10.2137	19.3157	3.16772
10.2154	21.167	3.18726
10.2164	7.37057	3.20679
10.21753	18.2417	3.22632
10.21904	26.1517	3.24585
10.2209	12.817	3.26538
10.2221	17.1998	3.28491
10.2244	30.9376	3.30444
10.2258	16.4821	3.32397
10.2276	19.3946	3.34351
10.22894	31.9952	3.36304
10.23078	26.1058	3.38257
10.2329	17.32	3.4021
10.2339	33.6277	3.42163
10.2356	33.0039	3.44116
10.2375	25.6139	3.46069
10.2398	32.1303	3.48022
10.2405	39.298	3.49976
10.2434	23.5042	3.51929
10.2444	35.87067	3.53882
10.2455	42.9295	3.55835
10.2477	29.4653	3.57788
10.2483	30.4388	3.59741
10.2502	48.4255	3.61694
10.2522	35.7292	3.63647
10.2534	32.8587	3.65601
10.2553	50.8215	3.67554
10.2571	42.2851	3.69507
10.2586	34.1043	3.7146
10.2613	50.9733	3.73413
10.2619	46.8495	3.75366
10.26362	35.7095	3.77319
10.2658	52.7894	3.79272
10.2666	52.72715	3.81226
10.2685	38.0911	3.83179
10.2696	49.7498	3.85132
10.2719	60.6461	3.87085
10.27282	45.3168	3.89038
10.275	51.1665	3.90991
10.2776	59.9422	3.92944
10.2779	52.8567	3.94897
10.2796	48.7407	3.96851
10.2812	64.9599	3.98804
10.2826	55.1516	4.00757
10.2841	53.1958	4.0271
10.28573	63.9793	4.04663
10.2872	64.6917	4.06616
10.2901	50.1205	4.08569
10.2916	64.48526	4.10522
10.2932	70.1794	4.12476
10.2947	58.5437	4.14429
10.2963	62.7408	4.16382
10.2978	76.2605	4.18335
10.3	59.6851	4.20288
10.3013	66.0573	4.22241
10.3027	80.61412	4.24194
10.3044	66.0297	4.26147
10.3052	64.1082	4.28101
10.3076	82.43541	4.30054
10.3094	73.6391	4.32007
10.3099	66.7353	4.3396
10.3111	82.959	4.35913
10.3138	80.3568	4.37866
10.3159	69.2961	4.39819
10.3171	82.3069	4.41772
10.3183	86.2223	4.43726
10.3202	72.52182	4.45679
10.3228	85.1986	4.47632
10.3234	90.9214	4.49585
10.3244	77.2973	4.51538
10.3272	81.6652	4.53491
10.3289	95.775	4.55444
10.3307	85.27774	4.57397
10.3304	83.8908	4.59351
10.3326	94.6914	4.61304
10.3345	92.2779	4.63257
10.337	84.081	4.6521
10.33725	100.342	4.67163
10.3393	97.1206	4.69116
10.3418	87.1241	4.71069
10.3441	97.3982	4.73022
10.3454	107.25	4.74976
10.3459	87.8016	4.76929
10.3476	100.666	4.78882
10.3501	109.812	4.80835
10.351	96.12	4.82788
10.3527	96.2372	4.84741
10.3555	113.474	4.86694
10.3565	99.4518	4.88647
10.35681	99.5871	4.90601
10.35978	116.6435	4.92554
10.36127	104.419	4.94507
10.3624	99.0716	4.9646
10.3647	116.501	4.98413
10.366	114.817	5.00366
10.368	100.362	5.02319
10.3694	116.2309	5.04272
10.3712	117.5	5.06226
10.3712	106.283	5.08179
10.3739	115.229	5.10132
10.3758	122.59	5.12085
10.3765	111.0388	5.14038
10.3789	118.017	5.15991
10.3807	125.955	5.17944
10.3819	117.363	5.19897
10.3837	113.824	5.21851
10.3858	131.66	5.23804
10.3872	125.738	5.25757
10.3889	118.515	5.2771
10.3906	128.703	5.29663
10.3923	132.235	5.31616
10.3925	117.663	5.33569
10.39508	134.1196	5.35522
10.3968	136.165	5.37476
10.3987	122.598	5.39429
10.4004	130.104	5.41382
10.4016	143.587	5.43335
10.4031	126.102	5.45288
10.4052	130.055	5.47241
10.4072	146.397	5.49194
10.4087	135.163	5.51147
10.4098	131.308	5.53101
10.4118	147.5898	5.55054
10.4133	138.799	5.57007
10.415	130.927	5.5896
10.4156	149.739	5.60913
10.4187	144.758	5.62866
10.4195	133.537	5.64819
10.4213	149.45	5.66772
10.4233	152.774	5.68726
10.4238	136.262	5.70679
10.4253	147.149	5.72632
10.4278	154.697	5.74585
10.43	144.851	5.76538
10.4311	146.215	5.78491
10.4336	161.551	5.80444
10.4343	150.068	5.82397
10.4365	150.161	5.84351
10.4373	162.664	5.86304
10.4393	157.58	5.88257
10.4391	146.707	5.9021
10.4425	163.794	5.92163
10.4437	162.87	5.94116
10.4453	151.578	5.96069
10.449	159.937	5.98022
10.4492	171.0303	5.99976
10.4511	154.2639	6.01929
10.4528	164.211	6.03882
10.4542	173.926	6.05835
10.4558	159.481	6.07788
10.4565	162.154	6.09741
10.45885	179.0674	6.11694
10.4598	165.873	6.13647
10.4619	161.313	6.15601
10.464	180.9276	6.17554
10.4652	174.251	6.19507
10.4668	163.226	6.2146
10.4681	179.908	6.23413
10.4711	179.914	6.25366
10.471	166.84	6.27319
10.4738	180.813	6.29272
10.4756	184.352	6.31226
10.4765	171.8837	6.33179
10.4784	179.134	6.35132
10.4805	192.558	6.37085
10.4806	174.584	6.39038
10.4843	180.124	6.40991
10.4847	191.51	6.42944
10.4862	185.424	6.44897
10.488	178.3015	6.46851
10.4894	195.592	6.48804
10.4915	189.695	6.50757
10.4927	182.667	6.5271
10.495	195.419	6.54663
10.4959	195.066	6.56616
10.4978	180.227	6.58569
10.4997	197.352	6.60522
10.50021	202.579	6.62476
10.5018	188.785	6.64429
10.5053	193.976	6.66382
10.5054	206.4866	6.68335
10.50883	190.904	6.70288
10.5102	195.249	6.72241
10.5102	210.025	6.74194
10.5122	197.132	6.76147
10.5137	195.636	6.78101
10.5155	211.741	6.80054
10.5174	203.472	6.82007
10.5191	193.762	6.8396
10.5207	216.497	6.85913
10.5225	210.692	6.87866
10.5247	199.655	6.89819
10.5253	210.333	6.91772
10.5271	217.161	6.93726
10.5282	203.223	6.95679
10.5304	214.778	6.97632
10.5322	219.225	6.99585
10.5332	207.86	7.01538
10.5352	212.044	7.03491
10.5369	226.3421	7.05444
10.5383	214.304	7.07397
10.5392	212.55	7.09351
10.542	224.994	7.11304
10.5441	222.897	7.13257
10.5445	212.575	7.1521
10.5463	228.1512	7.17163
10.5482	227.914	7.19116
10.5489	218.502	7.21069
10.5509	227.805	7.23022
10.5524	234.097	7.24976
10.5552	218.031	7.26929
10.556	229.544	7.28882
10.55761	240.496	7.30835
10.5593	224.281	7.32788
10.5603	225.355	7.34741
10.5634	242.688	7.36694
10.5644	230.31	7.38647
10.5664	227.19	7.40601
10.56827	244.948	7.42554
10.5699	235.569	7.44507
10.5707	228.845	7.4646
10.5719	244.815	7.48413
10.5738	244.516	7.50366
10.5764	229.086	7.52319
10.5774	247.326	7.54272
10.5794	249	7.56226
10.5803	236.006	7.58179
10.5822	241.783	7.60132
10.5837	255.583	7.62085
10.5856	241.547	7.64038
10.5867	247.313	7.65991
10.5883	255.464	7.67944
10.59112	248.308	7.69897
10.5922	243.55	7.71851
10.5944	261.888	7.73804
10.5953	253.937	7.75757
10.5972	244.544	7.7771
10.5989	259.181	7.79663
10.6001	262.588	7.81616
10.6017	247.329	7.83569
10.6045	260.7811	7.85522
10.6048	266.249	7.87476
10.6072	251.677	7.89429
10.6078	259.93	7.91382
10.611	271.711	7.93335
10.6111	255.662	7.95288
10.6132	257.757	7.97241
10.61466	277.392	7.99194
10.6167	262.067	8.01147
10.6185	258.899	8.03101
10.6208	276.4852	8.05054
10.6215	269.821	8.07007
10.6225	260.4	8.0896
10.6249	277.737	8.10913
10.6254	273.234	8.12866
10.6273	264.293	8.14819
10.6292	277.067	8.16772
10.6305	282.04	8.18726
10.633	266.0531	8.20679
10.6337	276.828	8.22632
10.6351	283.893	8.24585
10.638	273.822	8.26538
10.6401	273.935	8.28491
10.6398	288.803	8.30444
10.6434	279.341	8.32397
10.644	276.663	8.34351
10.6457	289.198	8.36304
10.6475	286.0658	8.38257
10.6496	275.0531	8.4021
10.6506	293.375	8.42163
10.652	292.1	8.44116
10.6538	278.375	8.46069
10.6559	288.791	8.48022
10.6569	298.692	8.49976
10.6593	283.269	8.51929
10.6607	291.854	8.53882
10.6614	301.959	8.55835
10.6643	286.736	8.57788
10.66567	289.157	8.59741
10.6676	305.374	8.61694
10.668	292.236	8.63647
10.6705	289.163	8.65601
10.672	311.234	8.67554
10.67341	300.587	8.69507
10.6752	293.26	8.7146
10.6776	307.068	8.73413
10.6787	307.144	8.75366
10.6797	295.425	8.77319
10.6821	308.869	8.79272
10.6836	309.847	8.81226
10.6846	301.443	8.83179
10.6864	306.869	8.85132
10.6879	320.399	8.87085
10.68959	302.306	8.89038
10.6908	306.27	8.90991
10.6934	319.152	8.92944
10.6944	311.757	8.94897
10.6957	304.979	8.96851
10.6975	323.731	8.98804
10.7	316.758	9.00757
10.7014	310.055	9.0271
10.7031	321.925	9.04663
10.7041	323.742	9.06616
10.7056	309.622	9.08569
10.7073	323.911	9.10522
10.7081	331.066	9.12476
10.7102	313.037	9.14429
10.7123	321.985	9.16382
10.7143	335.886	9.18335
10.7147	321.852	9.20288
10.7163	321.881	9.22241
10.7194	338.97	9.24194
10.7202	325.858	9.26147
10.72254	322.647	9.28101
10.723	339.983	9.30054
10.7258	332.842	9.32007
10.7274	321.845	9.3396
10.7287	341.759	9.35913
10.7306	340.6889	9.37866
10.7319	328.075	9.39819
10.7339	336.582	9.41772
10.735	346.692	9.43726
10.7369	331.773	9.45679
10.7383	340.5806	9.47632
10.7406	348.378	9.49585
10.7417	337.409	9.51538
10.74375	335.273	9.53491
10.7446	355.484	9.55444
10.746	343.965	9.57397
10.7484	336.874	9.59351
10.7499	353.568	9.61304
10.7513	352.296	9.63257
10.75268	336.098	9.6521
10.7536	353.161	9.67163
10.7562	357.257	9.69116
10.7578	342.046	9.71069
10.7599	351.676	9.73022
10.7611	361.727	9.74976
10.7633	345.493	9.76929
10.7648	349.678	9.78882
10.7662	369.6261	9.80835
10.768	350.912	9.82788
10.7692	349.1955	9.84741
10.7708	369.643	9.86694
10.7727	360.376	9.88647
10.7739	348.927	9.90601
10.77597	371.044	9.92554
10.7785	363.112	9.94507
10.7794	354.864	9.9646
10.7805	369.546	9.98413
10.7823	372.31	10.0037
10.7851	356.083	10.0232
10.7855	370.106	10.0427
10.7856	376.638	10.0623
10.7892	363.49	10.0818
10.7902	363.956	10.1013
10.7931	383.307	10.12085
10.7937	370.045	10.1404
10.7952	367.7858	10.1599
10.7973	381.249	10.1794
10.79878	376.405	10.199
10.8006	365.747	10.2185
10.8021	386.931	10.238
10.8033	383.791	10.2576
10.805	368.6738	10.2771
10.8065	383.852	10.2966
10.8086	392.504	10.3162
10.8102	371.6413	10.3357
10.81161	381.688	10.3552
10.8134	395.178	10.3748
10.81584	376.887	10.3943
10.8153	383.79	10.4138
10.8188	397.815	10.43335
10.8196	383.621	10.4529
10.822	380.376	10.4724
10.8232	403.349	10.4919
10.8247	388.327	10.5115
10.8261	381.7616	10.531
10.8283	400.126	10.5505
10.8291	399.82	10.5701
10.8317	384.515	10.5896
10.8333	402.906	10.6091
10.8358	403.172	10.6287
10.8354	389.868	10.6482
10.8378	398.475	10.6677
10.83885	408.761	10.6873
10.841	391.396	10.7068
10.8422	397.861	10.7263
10.8448	412.027	10.74585
10.8463	401.346	10.7654
10.847	394.782	10.7849
10.8482	415.5	10.8044
10.8516	407.289	10.824
10.8525	398.93	10.8435
10.8537	413.889	10.863
10.8559	413.125	10.8826
10.8578	397.489	10.9021
10.8594	415.4917	10.9216
10.8603	421.03	10.9412
10.8627	400.638	10.9607
10.8634	412.132	10.9802
10.8648	425.135	10.9998
10.8671	408.189	11.0193
10.8697	410.137	11.0388
10.87037	431.138	11.05835
10.8713	414.449	11.0779
10.8734	412.702	11.0974
10.8742	429.815	11.1169
10.8757	421.527	11.1365
10.87932	411.94	11.156
10.8797	435.363	11.1755
10.8807	427.99	11.1951
10.8837	415.882	11.2146
10.8849	430.5	11.2341
10.8868	436.6933	11.2537
10.8884	420.207	11.2732
10.889	429.701	11.2927
10.8917	437.554	11.3123
10.8922	424.951	11.3318
10.8942	426.232	11.3513
10.8966	444.403	11.37085
10.8977	429.447	11.3904
10.8991	427.507	11.4099
10.9015	444.904	11.4294
10.9032	438.32	11.449
10.90427	425.086	11.4685
10.9058	446.643	11.488
10.9069	445.577	11.5076
10.9091	428.67	11.5271
10.9099	444.251	11.5466
10.9129	450.398	11.5662
10.91397	433.703	11.5857
10.916	445.026	11.6052
10.9172	457.791	11.6248
10.91924	436.63	11.6443
10.9216	442.286	11.6638
10.9218	461.712	11.68335
10.9236	445.557	11.7029
10.9244	441.572	11.7224
10.9271	463.581	11.7419
10.9298	451.825	11.7615
10.9311	443.829	11.781
10.9326	459.56	11.8005
10.933	460.046	11.8201
10.9346	444.233	11.8396
10.9368	462.997	11.8591
10.9399	463.98	11.8787
10.93996	450.22	11.8982
10.9418	457.687	11.9177
10.9431	471.705	11.9373
10.945	455.125	11.9568
10.9466	460.198	11.9763
10.9485	473.29	11.99585
10.9507	461.187	12.0154
10.9511	455.461	12.0349
10.9529	477.185	12.0544
10.9542	467.822	12.074
10.9561	457.776	12.0935
10.95822	475.941	12.113
10.9601	475.129	12.1326
10.96236	457.1412	12.1521
10.9628	474.044	12.1716
10.9643	483.076	12.1912
10.9661	461.883	12.2107
10.9669	473.223	12.2302
10.9693	485.999	12.2498
10.9721	467.661	12.2693
10.9729	472.07	12.2888
10.9739	491.695	12.30835
10.9767	473.648	12.3279
10.9773	468.879	12.3474
10.9798	492.019	12.3669
10.98042	482.304	12.3865
10.9817	470.376	12.406
10.9848	493.026	12.4255
10.9854	487.001	12.4451
10.9878	475.102	12.4646
10.9889	489.965	12.4841
10.9898	495.286	12.5037
10.9924	476.7002	12.5232
10.9946	490.578	12.5427
10.9949	499.76	12.5623
10.9968	483.196	12.5818
10.9997	485.547	12.6013
11.0005	504.687	12.62085
11.0024	491.1	12.6404
11.0035	486.583	12.6599
11.0052	503.777	12.6794
11.0069	497.15	12.699
11.0089	486.29	12.7185
11.0102	505.243	12.738
11.0117	503.893	12.7576
11.0138	488.003	12.7771
11.0155	504.306	12.7966
11.0171	511.498	12.8162
11.01852	491.433	12.8357
11.0194	501.39	12.8552
11.0216	518.326	12.8748
11.0229	498.028	12.8943
11.02443	501.407	12.9138
11.02598	516.919	12.93335
11.0281	504.028	12.9529
11.0296	500.573	12.9724
11.0314	523.6485	12.9919
11.0336	508.826	13.0115
11.0343	501.827	13.031
11.0362	521.199	13.0505
11.03824	521.31	13.0701
11.0401	502.459	13.0896
11.04	520.962	13.1091
11.0426	522.885	13.1287
11.0442	509.764	13.1482
11.0457	516.183	13.1677
11.0478	529.716	13.1873
11.0484	512.446	13.2068
11.0514	518.432	13.2263
11.0525	533.076	13.24585
11.0538	519.095	13.2654
11.056	512.93	13.2849
11.0573	536.147	13.3044
11.0585	527.333	13.324
11.06	515.7514	13.3435
11.0613	533.583	13.363
11.06446	533.981	13.3826
11.0649	516.24	13.4021
11.0672	534.166	13.4216
11.0679	540.5766	13.4412
11.0697	519.068	13.4607
11.0716	532.174	13.4802
11.0743	546.12	13.4998
11.0751	526.582	13.5193
11.0768	530.026	13.5388
11.0784	551.265	13.55835
11.0809	532.607	13.5779
11.082	531.105	13.5974
11.0839	549.733	13.6169
11.0851	540.881	13.6365
11.0872	531.951	13.656
11.0878	551.774	13.6755
11.08981	546.351	13.6951
11.0904	533.843	13.7146
11.0938	548.195	13.7341
11.095	555.98	13.7537
11.0982	535.361	13.7732
11.0984	546.461	13.7927
11.1004	557.316	13.8123
11.102	542.29	13.8318
11.10247	543.42	13.8513
11.1054	562.113	13.87085
11.10609	547.312	13.8904
11.1072	544.442	13.9099
11.1097	563.563	13.9294
11.1113	555.919	13.949
11.1126	541.679	13.9685
11.1143	562.215	13.988
11.1159	564.4425	14.0076
11.1169	545.342	14.0271
11.119	560.382	14.0466
11.1212	567.477	14.0662
11.1231	549.579	14.0857
11.1245	558.581	14.1052
11.12534	574.865	14.1248
11.1274	552.146	14.1443
11.1296	559.441	14.1638
11.1308	575.912	14.18335
11.1326	561.168	14.2029
11.1336	556.029	14.2224
11.1356	579.493	14.2419
11.1378	565.879	14.2615
11.1381	560.651	14.281
11.1399	576.401	14.3005
11.14	574.569	14.3201
11.1431	559.487	14.3396
11.1462	578.84	14.3591
11.1467	579.74	14.3787
11.1488	564.561	14.3982
11.15	575.319	14.4177
11.1518	588.3316	14.4373
11.1537	570.434	14.4568
11.155	573.984	14.4763
11.1565	589.631	14.49585
11.1584	577.579	14.5154
11.1598	571.825	14.5349
11.1614	591.62	14.5544
11.1629	585.679	14.574
11.1652	572.659	14.5935
11.166	592.263	14.613
11.1686	590.925	14.6326
11.17047	571.841	14.6521
11.1719	588.746	14.6716
11.1732	598.996	14.6912
11.1742	576.807	14.7107
11.1761	587.8736	14.7302
11.1769	600.004	14.7498
11.1789	583.221	14.7693
11.1808	586.431	14.7888
11.1832	606.353	14.80835
11.1836	586.502	14.8279
11.18563	587.146	14.8474
11.1867	604.791	14.8669
11.1896	597.469	14.8865
11.19104	584.849	14.906
11.1916	607.168	14.9255
11.193	603.046	14.9451
11.1958	588.024	14.9646
11.1968	603.376	14.9841
11.1987	609.496	15.0037
11.20037	592.371	15.0232
11.2025	605.856	15.0427
11.2034	611.952	15.0623
11.2045	596.641	15.0818
11.207	598.974	15.1013
11.2085	619.171	15.12085
11.21	604.299	15.1404
11.21172	598.184	15.1599
11.214	618.453	15.1794
11.214	611.91	15.199
11.217	600.033	15.2185
11.2177	617.89	15.238
11.2188	618.284	15.2576
11.2209	601.117	15.2771
11.2226	618.896	15.2966
11.2252	625.194	15.3162
11.2271	604.075	15.3357
11.228	614.868	15.3552
11.2301	631.615	15.3748
11.2314	609.811	15.3943
11.2326	614.6391	15.4138
11.2349	631.3877	15.43335
11.2358	617.652	15.4529
11.2376	612.743	15.4724
11.2386	634.931	15.4919
11.2417	621.77	15.5115
11.2429	613.5249	15.531
11.2444	634.1864	15.5505
11.2453	632.325	15.5701
11.24815	615.509	15.5896
11.2486	634.763	15.6091
11.2506	636.501	15.6287
11.2528	619.361	15.6482
11.25285	629.305	15.6677
11.2557	640.838	15.6873
11.2573	624.4082	15.7068
11.26	630.256	15.7263
11.2612	645.317	15.74585
11.2627	630.746	15.7654
11.26336	625.246	15.7849
11.26504	645.889	15.8044
11.2669	638.357	15.824
11.2695	624.748	15.8435
11.2715	644.6814	15.863
11.2718	645.53	15.8826
11.2735	628.918	15.9021
11.2751	645.706	15.9216
11.2768	651.913	15.9412
11.2788	629.381	15.9607
11.2804	644.493	15.9802
11.2812	658.331	15.9998
11.2836	635.899	16.0193
11.285	640.552	16.0388
11.28757	662.696	16.05835
11.2878	641.702	16.0779
11.2904	641.585	16.0974
11.2919	658.036	16.1169
11.293	650.44	16.1365
11.2951	640.9317	16.156
11.29608	661.951	16.1755
11.2975	653.985	16.1951
11.30015	643.155	16.2146
11.3017	656.629	16.2341
11.3023	664.924	16.2537
11.3045	645.615	16.2732
11.3069	656.015	16.2927
11.3069	665.263	16.3123
11.3093	651.861	16.3318
11.3111	653.47	16.3513
11.3129	670.034	16.37085
11.3151	656.703	16.3904
11.3168	653.694	16.4099
11.3189	672.083	16.4294
11.3197	664.867	16.449
11.3214	652.395	16.4685
11.32324	673.221	16.488
11.3241	672.536	16.5076
11.3253	653.512	16.5271
11.3269	671.114	16.5466
11.328	676.436	16.5662
11.3298	658.764	16.5857
11.3321	668.924	16.6052
11.3334	683.534	16.6248
11.3351	661.668	16.6443
11.3367	668.7547	16.6638
11.3388	686.1731	16.68335
11.3391	669.468	16.7029
11.3433	664.062	16.7224
11.3439	689.1814	16.7419
11.3451	675.573	16.7615
11.3464	667.481	16.781
11.3475	684.155	16.8005
11.3491	683.97	16.8201
11.3506	670.8158	16.8396
11.353	687.133	16.8591
11.3547	688.614	16.8787
11.3572	672.307	16.8982
11.3591	680.932	16.9177
11.36091	695.995	16.9373
11.3614	677.234	16.9568
11.3624	678.361	16.9763
11.3647	697.562	16.99585
11.366	682.846	17.0154
11.3679	679.358	17.0349
11.36981	698.813	17.0544
11.3712	690.548	17.074
11.3735	677.0415	17.0935
11.3743	698.497	17.113
11.3765	697.547	17.1326
11.3782	679.263	17.1521
11.3797	697.9776	17.1716
11.3808	704.669	17.1912
11.3832	683.208	17.2107
11.3839	693.475	17.2302
11.386	707.256	17.2498
11.3872	688.455	17.2693
11.3895	693.633	17.2888
11.3914	714.031	17.30835
11.3909	691.6687	17.3279
11.3938	692.454	17.3474
11.3965	711.4812	17.3669
11.3974	703.224	17.3865
11.3987	691.023	17.406
11.401	713.644	17.4255
11.4025	707.487	17.4451
11.4035	695.204	17.4646
11.4062	707.021	17.4841
11.4064	715.1178	17.5037
11.4089	696.605	17.5232
11.4094	710.11	17.5427
11.4125	719.097	17.5623
11.4134	701.612	17.5818
11.415	704.258	17.6013
11.4163	723.031	17.62085
11.4193	709.28	17.6404
11.4197	703.875	17.6599
11.4224	724.267	17.6794
11.4236	715.9801	17.699
11.4248	702.642	17.7185
11.42649	723.193	17.738
11.4276	721.929	17.7576
11.4305	705.457	17.7771
11.4311	723.731	17.7966
11.4326	727.673	17.8162
11.4351	708.141	17.8357
11.4365	719.553	17.8552
11.4374	737.154	17.8748
11.4397	712.38	17.8943
11.4421	717.6676	17.9138
11.4425	734.249	17.93335
11.4444	720.032	17.9529
11.4452	716.759	17.9724
11.4475	741.365	17.9919
11.4503	723.296	18.0115
11.4514	717.5614	18.031
11.453	736.396	18.0505
11.4541	735.172	18.0701
11.4563	716.807	18.0896
11.458	736.332	18.1091
11.4592	738.455	18.1287
11.4605	723.298	18.1482
11.4623	730.89	18.1677
11.4639	743.616	18.1873
11.466	727.403	18.2068
11.4679	730.87	18.2263
11.4676	747.339	18.24585
11.4708	732.747	18.2654
11.4715	726.059	18.2849
11.474	750.097	18.3044
11.4752	741.189	18.324
11.4774	728.582	18.3435
11.4776	747.034	18.363
11.4791	746.666	18.3826
11.4816	730.349	18.4021
11.4832	746.168	18.4216
11.4848	752.213	18.4412
11.487	731.574	18.4607
11.4876	745.224	18.4802
11.4903	758.185	18.4998
11.4931	737.0896	18.5193
11.4932	741.183	18.5388
11.495	763.194	18.55835
11.4961	743.233	18.5779
11.4986	741.052	18.5974
11.4996	760.035	18.6169
11.5014	752.823	18.6365
11.5034	741.4762	18.656
11.5049	761.887	18.6755
11.5071	754.677	18.6951
11.5072	744.3	18.7146
11.5087	758.889	18.7341
11.5106	765.249	18.7537
11.5133	745.167	18.7732
11.5149	757.557	18.7927
11.5163	767.004	18.8123
11.5177	752.523	18.8318
11.5195	753.755	18.8513
11.521	770.493	18.87085
11.5223	757.522	18.8904
11.5242	752.515	18.9099
11.5263	772.236	18.9294
11.5274	762.93	18.949
11.5298	751.135	18.9685
11.52982	771.602	18.988
11.532	772.28	19.0076
11.5341	752.02	19.0271
11.5349	770.081	19.0466
11.5372	774.38	19.0662
11.5384	757.731	19.0857
11.5403	767.894	19.1052
11.5424	781.667	19.1248
11.5437	758.8147	19.1443
11.5461	767.8584	19.1638
11.5466	782.45	19.18335
11.5491	766.719	19.2029
11.5503	762.928	19.2224
11.5526	786.293	19.2419
11.5532	772.383	19.2615
11.5563	765.491	19.281
11.5572	782.013	19.3005
11.5585	781.32	19.3201
11.55958	766.834	19.3396
11.56091	784.249	19.3591
11.5641	785.763	19.3787
11.5647	769.219	19.3982
11.5666	779.611	19.4177
11.56848	790.724	19.4373
11.5689	773.9765	19.4568
11.5708	776.791	19.4763
11.5741	792.178	19.49585
11.5744	779.886	19.5154
11.5759	775.614	19.5349
11.5786	794.012	19.5544
11.581	786.943	19.574
11.5821	774.8811	19.5935
11.5825	794.74	19.613
11.5846	792.06	19.6326
11.5861	775.496	19.6521
11.58886	791.711	19.6716
11.5904	800.855	19.6912
11.59042	777.546	19.7107
11.5921	790.879	19.7302
11.594	802.231	19.7498
11.596	785.791	19.7693
11.5964	790.568	19.7888
11.5991	806.921	19.80835
11.6009	786.88	19.8279
11.60275	789.25	19.8474
11.60348	806.124	19.8669
11.6054	797.314	19.8865
11.6071	785.851	19.906
11.6095	807.5871	19.9255
11.6103	800.146	19.9451
11.6124	790.367	19.9646
11.6137	802.349	19.9841
11.61591	809.793	20.0037
11.6158	798.163	20.0134

Data Header:			0.254_solid_uprint_typei_4545_r0			Time:	40.019	s	4/14/2019 4:21:14 AM
Data Acquisition:	Timed
Station Name:	ft40.cfg
Test File Name:	monotonic_0.2540_typei_solid_4545_uprint.tst
Displacement	Force	Running Time
mm	N	s
11.6171	791.7804	20.0232
11.618	804.402	20.0427
11.6197	811.23	20.0623
11.6222	794.5058	20.0818
11.6244	799.043	20.1013
11.6253	816.111	20.12085
11.6263	802.315	20.1404
11.6284	796.814	20.1599
11.6298	815.398	20.1794
11.6313	809.359	20.199
11.6329	797.662	20.2185
11.6341	815.223	20.238
11.6372	814.607	20.2576
11.6375	797.192	20.2771
11.6394	816.114	20.2966
11.6415	818.796	20.3162
11.6436	799.443	20.3357
11.6446	812.773	20.3552
11.64562	826.589	20.3748
11.6477	804.652	20.3943
11.6488	811.691	20.4138
11.6519	824.6991	20.43335
11.6529	811.271	20.4529
11.6539	809.578	20.4724
11.6558	831.673	20.4919
11.6567	815.638	20.5115
11.66003	810.425	20.531
11.6605	827.177	20.5505
11.6626	823.845	20.5701
11.6635	808.223	20.5896
11.6657	827.2674	20.6091
11.6672	828.057	20.6287
11.6686	814.595	20.6482
11.6703	823.638	20.6677
11.6721	834.127	20.6873
11.6742	817.444	20.7068
11.675	822.581	20.7263
11.6773	835.641	20.74585
11.6784	822.272	20.7654
11.6808	820.368	20.7849
11.682	838.518	20.8044
11.6843	831.671	20.824
11.6864	817.056	20.8435
11.686	835.3855	20.863
11.6886	834.896	20.8826
11.6899	821.294	20.9021
11.6917	835.525	20.9216
11.6936	840.424	20.9412
11.6949	819.643	20.9607
11.6956	836.701	20.9802
11.698	844.709	20.9998
11.7009	825.138	21.0193
11.70204	831.598	21.0388
11.7036	849.782	21.05835
11.7041	829.507	21.0779
11.7064	830.44	21.0974
11.7081	847.051	21.1169
11.7109	838.365	21.1365
11.7121	830.274	21.156
11.7125	849.139	21.1755
11.7152	840.583	21.1951
11.7164	831.667	21.2146
11.7173	845.14	21.2341
11.7196	851.314	21.2537
11.7214	833.601	21.2732
11.7244	843.5343	21.2927
11.7255	853.573	21.3123
11.7261	837.969	21.3318
11.7278	839.293	21.3513
11.7286	855.553	21.37085
11.7309	842.9566	21.3904
11.7324	839.499	21.4099
11.7336	858.427	21.4294
11.7359	847.1933	21.449
11.7377	837.928	21.4685
11.7394	857.917	21.488
11.7416	857.082	21.5076
11.7422	839.074	21.5271
11.7437	855.163	21.5466
11.7454	859.09	21.5662
11.7473	843.364	21.5857
11.7489	854.819	21.6052
11.7499	867.074	21.6248
11.7528	845.497	21.6443
11.75379	853.125	21.6638
11.7557	867.066	21.68335
11.7575	850.341	21.7029
11.7587	849.463	21.7224
11.7607	870.8208	21.7419
11.7612	857.003	21.7615
11.7626	850.4585	21.781
11.7647	866.233	21.8005
11.7678	863.7243	21.8201
11.76759	850.273	21.8396
11.7693	868.964	21.8591
11.7721	866.2464	21.8787
11.7735	853.26	21.8982
11.7755	862.541	21.9177
11.7758	875.367	21.9373
11.778	857.242	21.9568
11.7788	860.774	21.9763
11.7814	876.097	21.99585
11.7828	862.886	22.0154
11.7844	859.965	22.0349
11.7864	878.348	22.0544
11.788	869.521	22.074
11.7894	860.341	22.0935
11.7916	879.186	22.113
11.7933	871.738	22.1326
11.7948	859.958	22.1521
11.7956	874.937	22.1716
11.7962	882.927	22.1912
11.7983	860.772	22.2107
11.8015	873.979	22.2302
11.8022	883.11	22.2498
11.8031	866.996	22.2693
11.806	873.2265	22.2888
11.8073	887.123	22.30835
11.8094	868.413	22.3279
11.8103	870.159	22.3474
11.8132	887.2627	22.3669
11.8139	877.662	22.3865
11.8163	868.23	22.406
11.81653	888.294	22.4255
11.8193	880.705	22.4451
11.8211	871.478	22.4646
11.8207	882.292	22.4841
11.82288	887.987	22.5037
11.8252	873.987	22.5232
11.8272	884.284	22.5427
11.82865	891.647	22.5623
11.8301	875.644	22.5818
11.8316	879.609	22.6013
11.8332	896.2558	22.62085
11.8354	882.522	22.6404
11.836	877.481	22.6599
11.839	894.431	22.6794
11.83936	887.728	22.699
11.8411	877.932	22.7185
11.8433	894.928	22.738
11.8448	891.202	22.7576
11.8469	876.775	22.7771
11.8474	894.147	22.7966
11.8514	897.255	22.8162
11.8507	878.902	22.8357
11.8525	891.043	22.8552
11.8549	904.864	22.8748
11.85652	882.653	22.8943
11.8581	890.316	22.9138
11.8592	902.032	22.93335
11.8602	889.765	22.9529
11.8624	888.786	22.9724
11.8647	907.077	22.9919
11.8657	889.906	23.0115
11.867	888.211	23.031
11.8691	904.579	23.0505
11.87114	899.836	23.0701
11.873	886.58	23.0896
11.8742	902.9176	23.1091
11.8766	903.948	23.1287
11.8772	891.101	23.1482
11.8792	898.913	23.1677
11.8806	907.481	23.1873
11.8831	893.649	23.2068
11.88397	899.704	23.2263
11.8858	910.633	23.24585
11.8877	897.436	23.2654
11.8892	894.65	23.2849
11.8907	912.898	23.3044
11.89191	904.612	23.324
11.8948	895.066	23.3435
11.8947	911.517	23.363
11.89674	908.269	23.3826
11.8987	896	23.4021
11.8989	911.341	23.4216
11.9022	915.112	23.4412
11.9032	894.106	23.4607
11.9048	909.976	23.4802
11.9062	917.487	23.4998
11.9082	900.375	23.5193
11.9096	905.503	23.5388
11.9114	923.537	23.55835
11.9132	905.3877	23.5779
11.9146	905.363	23.5974
11.9168	921.121	23.6169
11.9184	911.21	23.6365
11.9204	903.875	23.656
11.9213	923.992	23.6755
11.9218	914.124	23.6951
11.9251	907.043	23.7146
11.9264	918.433	23.7341
11.9276	923.123	23.7537
11.9286	905.0304	23.7732
11.9311	917.931	23.7927
11.933	924.949	23.8123
11.9342	911.099	23.8318
11.936	913.875	23.8513
11.9374	927.903	23.87085
11.9389	913.642	23.8904
11.9417	913.237	23.9099
11.942	930.438	23.9294
11.9432	917.9079	23.949
11.9448	909.682	23.9685
11.9478	929.372	23.988
11.949	927.736	24.0076
11.9503	910.409	24.0271
11.953	927.176	24.0466
11.9537	929.487	24.0662
11.9555	914.206	24.0857
11.9567	924.366	24.1052
11.9593	934.8313	24.1248
11.9617	913.879	24.1443
11.962	923.038	24.1638
11.9641	936.33	24.18335
11.9643	920.406	24.2029
11.9672	918.506	24.2224
11.9682	939.429	24.2419
11.9699	924.268	24.2615
11.9722	920.89	24.281
11.9725	935.258	24.3005
11.9746	931.796	24.3201
11.9767	919.932	24.3396
11.979	937.63	24.3591
11.98002	934.208	24.3787
11.9812	922.401	24.3982
11.98332	932.375	24.4177
11.985	943	24.4373
11.9862	924.644	24.4568
11.9888	929.232	24.4763
11.9885	942.924	24.49585
11.9907	929.849	24.5154
11.9925	926.299	24.5349
11.9947	943.572	24.5544
11.9964	933.353	24.574
11.9979	926.508	24.5935
11.9988	944.006	24.613
12.0006	939.482	24.6326
12.0027	924.974	24.6521
12.0046	941.451	24.6716
12.0059	946.05	24.6912
12.0078	927.762	24.7107
12.0091	939.076	24.7302
12.0102	946.555	24.7498
12.0127	931.836	24.7693
12.0131	936.585	24.7888
12.0158	951.673	24.80835
12.0165	931.741	24.8279
12.0195	936.697	24.8474
12.0203	952.019	24.8669
12.0225	942.631	24.8865
12.0234	932.698	24.906
12.0251	951.222	24.9255
12.0266	943.419	24.9451
12.0286	935.164	24.9646
12.0303	947.2644	24.9841
12.0309	949.757	25.0037
12.0335	935.4	25.0232
12.0356	949.588	25.0427
12.0362	952.514	25.0623
12.03732	937.9845	25.0818
12.0396	943.059	25.1013
12.0413	959.394	25.12085
12.04448	942.882	25.1404
12.0452	940.776	25.1599
12.0462	957.579	25.1794
12.0477	948.178	25.199
12.0497	939.1554	25.2185
12.0511	957.439	25.238
12.0531	953.365	25.2576
12.05528	939.814	25.2771
12.0559	956.712	25.2966
12.0567	957.752	25.3162
12.0591	941.458	25.3357
12.0607	952.444	25.3552
12.0628	962.5719	25.3748
12.0642	943.339	25.3943
12.0642	950.911	25.4138
12.0678	963.51	25.43335
12.0698	949.468	25.4529
12.0704	949.086	25.4724
12.0728	965.656	25.4919
12.0744	949.6557	25.5115
12.0754	947.658	25.531
12.0784	964.277	25.5505
12.0792	959.039	25.5701
12.0812	944.125	25.5896
12.0828	964.123	25.6091
12.08411	961.093	25.6287
12.0851	950.178	25.6482
12.0869	958.907	25.6677
12.0886	966.745	25.6873
12.0899	951.717	25.7068
12.091	959.7984	25.7263
12.0934	969.385	25.74585
12.09488	955.222	25.7654
12.0964	953.5061	25.7849
12.0985	971.675	25.8044
12.0996	960.5835	25.824
12.1009	952.144	25.8435
12.1028	968.925	25.863
12.1056	965.333	25.8826
12.1059	953.141	25.9021
12.1081	967.925	25.9216
12.1092	969.47	25.9412
12.11181	951.784	25.9607
12.1137	965.349	25.9802
12.1146	972.07	25.9998
12.1164	955.621	26.0193
12.1179	961.83	26.0388
12.11999	978.7829	26.05835
12.1211	958.366	26.0779
12.1221	961.41	26.0974
12.1247	974.406	26.1169
12.1269	964.3476	26.1365
12.12796	959.651	26.156
12.1297	978.216	26.1755
12.1311	967.476	26.1951
12.1333	959.412	26.2146
12.135	973.052	26.2341
12.1355	976.086	26.2537
12.1378	960.586	26.2732
12.13855	971.418	26.2927
12.1406	977.687	26.3123
12.1428	963.066	26.3318
12.1441	967.431	26.3513
12.1461	980.361	26.37085
12.1478	966.578	26.3904
12.1481	967.4187	26.4099
12.1503	981.336	26.4294
12.1514	970.832	26.449
12.1539	963.378	26.4685
12.1547	982.001	26.488
12.1575	978.798	26.5076
12.1574	961.832	26.5271
12.1595	977.109	26.5466
12.1631	980.541	26.5662
12.1635	965.849	26.5857
12.1652	976.547	26.6052
12.1663	985.625	26.6248
12.1673	965.835	26.6443
12.1692	976.864	26.6638
12.1723	986.937	26.68335
12.1728	971.904	26.7029
12.1754	971.239	26.7224
12.1764	990.103	26.7419
12.1786	974.0929	26.7615
12.1795	971.729	26.781
12.1808	985.837	26.8005
12.1825	980.448	26.8201
12.1848	969.655	26.8396
12.18592	986.915	26.8591
12.1869	982.248	26.8787
12.1897	970.299	26.8982
12.1909	980.304	26.9177
12.193	990.867	26.9373
12.1948	973.599	26.9568
12.1956	978.769	26.9763
12.19764	988.485	26.99585
12.1996	977.432	27.0154
12.2012	976.586	27.0349
12.2028	990.139	27.0544
12.2049	980.74	27.074
12.2066	973.679	27.0935
12.20711	991.369	27.113
12.21	984.832	27.1326
12.2111	973.241	27.1521
12.2124	987.643	27.1716
12.2149	993.156	27.1912
12.2157	971.661	27.2107
12.2173	986.688	27.2302
12.2187	991.214	27.2498
12.2193	976.957	27.2693
12.222	983.597	27.2888
12.2238	997.4903	27.30835
12.22524	977.895	27.3279
12.2275	982.828	27.3474
12.2288	994.689	27.3669
12.2304	986.047	27.3865
12.2319	977.612	27.406
12.2338	997.159	27.4255
12.2359	987.948	27.4451
12.2369	979.121	27.4646
12.2372	992.373	27.4841
12.23908	993.893	27.5037
12.2423	978.7865	27.5232
12.2433	991.8797	27.5427
12.2436	994.552	27.5623
12.2468	981.895	27.5818
12.2475	985.922	27.6013
12.2495	999.993	27.62085
12.2517	985.949	27.6404
12.2533	983.0578	27.6599
12.2556	998.62	27.6794
12.2563	990.431	27.699
12.2584	982.492	27.7185
12.259	998.2312	27.738
12.261	993.281	27.7576
12.2627	980.272	27.7771
12.2643	997.756	27.7966
12.2659	998.672	27.8162
12.2674	981.384	27.8357
12.2689	994.268	27.8552
12.2707	1002.74	27.8748
12.2725	983.846	27.8943
12.274	991.018	27.9138
12.2763	1000.74	27.93335
12.27852	988.447	27.9529
12.2794	989.753	27.9724
12.2811	1006.27	27.9919
12.283	988.635	28.0115
12.2837	987.987	28.031
12.2852	1002.75	28.0505
12.287	997.335	28.0701
12.2892	984.492	28.0896
12.2899	1001.522	28.1091
12.2914	998.691	28.1287
12.2938	987.613	28.1482
12.29453	996.117	28.1677
12.2972	1002.03	28.1873
12.2985	987.542	28.2068
12.3004	996.77	28.2263
12.3025	1005.11	28.24585
12.3031	991.747	28.2654
12.3055	990.623	28.2849
12.307	1008.61	28.3044
12.3083	997.976	28.324
12.3094	987.765	28.3435
12.3115	1004.82	28.363
12.3133	1001.66	28.3826
12.315	989.858	28.4021
12.3164	1001.77	28.4216
12.3186	1005.83	28.4412
12.3201	987.637	28.4607
12.3212	1001.63	28.4802
12.324	1007.67	28.4998
12.3244	989.768	28.5193
12.3255	995.267	28.5388
12.3276	1011.88	28.55835
12.3297	993.378	28.5779
12.3314	994.946	28.5974
12.3323	1008	28.6169
12.3344	998.612	28.6365
12.3357	992.777	28.656
12.3376	1011.47	28.6755
12.3397	998.378	28.6951
12.3406	991.18	28.7146
12.3421	1005.69	28.7341
12.3433	1006.51	28.7537
12.3455	991.577	28.7732
12.34808	1004.38	28.7927
12.3487	1009	28.8123
12.3501	996.528	28.8318
12.3532	998.571	28.8513
12.3535	1010.96	28.87085
12.3551	997.451	28.8904
12.3565	996.901	28.9099
12.3594	1012.56	28.9294
12.3604	1001.4	28.949
12.3626	993.09	28.9685
12.3637	1011.02	28.988
12.365	1007.36	29.0076
12.36627	994.6535	29.0271
12.36861	1007.26	29.0466
12.3701	1009.65	29.0662
12.3725	994.393	29.0857
12.37349	1005.87	29.1052
12.3748	1013.26	29.1248
12.3766	993.4248	29.1443
12.3785	1004.14	29.1638
12.3796	1015.26	29.18335
12.381	999.676	29.2029
12.3835	997.559	29.2224
12.385	1015.38	29.2419
12.385	1001.69	29.2615
12.3884	999.454	29.281
12.3902	1012.352	29.3005
12.3904	1007.3	29.3201
12.3935	999.186	29.3396
12.3941	1014.62	29.3591
12.3962	1009.29	29.3787
12.3973	997.294	29.3982
12.3998	1009.21	29.4177
12.4001	1016.57	29.4373
12.4024	999.916	29.4568
12.4046	1005.53	29.4763
12.4048	1016	29.49585
12.4068	1003.4	29.5154
12.4092	1003.72	29.5349
12.4113	1016.12	29.5544
12.4121	1006.04	29.574
12.4142	999.524	29.5935
12.4153	1017.56	29.613
12.4173	1011.59	29.6326
12.4191	997.156	29.6521
12.4204	1013.22	29.6716
12.423	1016.03	29.6912
12.4226	999.317	29.7107
12.4251	1010.02	29.7302
12.4272	1017.56	29.7498
12.4289	1001.38	29.7693
12.431	1007.69	29.7888
12.4317	1020.94	29.80835
12.4334	1001.9	29.8279
12.4346	1005.98	29.8474
12.4374	1018.2	29.8669
12.4392	1009.38	29.8865
12.4395	1000.63	29.906
12.44165	1021.4	29.9255
12.4435	1011.81	29.9451
12.4454	1004.508	29.9646
12.4468	1015.83	29.9841
12.4475	1015.67	30.0037
12.44954	1002.18	30.0232
12.4511	1017.05	30.0427
12.4518	1018.762	30.0623
12.4543	1004.04	30.0818
12.4559	1010.18	30.1013
12.4578	1022.24	30.12085
12.45945	1008.49	30.1404
12.4623	1007.05	30.1599
12.4625	1019.39	30.1794
12.4654	1010.99	30.199
12.4661	1003.89	30.2185
12.4683	1019.32	30.238
12.4688	1014.8	30.2576
12.4717	1001.909	30.2771
12.4725	1016.45	30.2966
12.4736	1018.52	30.3162
12.4757	1002.9	30.3357
12.47757	1014.14	30.3552
12.4787	1023.63	30.3748
12.4818	1004.68	30.3943
12.4819	1010.93	30.4138
12.4832	1022.8	30.43335
12.4864	1009.77	30.4529
12.4866	1009.39	30.4724
12.4882	1025.35	30.4919
12.491	1008.08	30.5115
12.4929	1009.21	30.531
12.4939	1021.37	30.5505
12.4954	1019.34	30.5701
12.497	1004.62	30.5896
12.4978	1019.91	30.6091
12.50007	1018	30.6287
12.5029	1007.5	30.6482
12.5032	1015.76	30.6677
12.5055	1021.5	30.6873
12.5071	1007.03	30.7068
12.50779	1015.54	30.7263
12.5096	1023.61	30.74585
12.5104	1010.48	30.7654
12.5129	1006.9	30.7849
12.5157	1025.43	30.8044
12.5169	1014.722	30.824
12.5189	1007	30.8435
12.5198	1020.05	30.863
12.52111	1017.48	30.8826
12.52305	1006.31	30.9021
12.5248	1020.68	30.9216
12.52769	1022.56	30.9412
12.52692	1006.74	30.9607
12.5292	1019.44	30.9802
12.5314	1024.53	30.9998
12.532	1008.88	31.0193
12.5349	1012.69	31.0388
12.5361	1029.21	31.05835
12.5381	1011.13	31.0779
12.5393	1014.61	31.0974
12.54051	1024.75	31.1169
12.54152	1015.25	31.1365
12.5444	1010.17	31.156
12.5445	1027.96	31.1755
12.5474	1017.24	31.1951
12.5493	1009.13	31.2146
12.5516	1022.06	31.2341
12.5533	1024.572	31.2537
12.5541	1008.85	31.2732
12.5561	1020.5	31.2927
12.5568	1023.2	31.3123
12.559	1012.81	31.3318
12.5605	1016.01	31.3513
12.5621	1025.95	31.37085
12.5639	1013.59	31.3904
12.5656	1014.27	31.4099
12.5663	1027.68	31.4294
12.5686	1017.32	31.449
12.56967	1009.41	31.4685
12.573	1026.25	31.488
12.5735	1023.59	31.5076
12.5751	1007.88	31.5271
12.5767	1021.85	31.5466
12.5792	1024.46	31.5662
12.5798	1008.91	31.5857
12.58325	1020.53	31.6052
12.5828	1027.853	31.6248
12.5844	1009.65	31.6443
12.5867	1018.08	31.6638
12.5873	1029.04	31.68335
12.5894	1013.67	31.7029
12.5922	1013.25	31.7224
12.5927	1030.23	31.7419
12.5945	1016.23	31.7615
12.5969	1014.61	31.781
12.59801	1026.1	31.8005
12.59898	1020.75	31.8201
12.6014	1010.03	31.8396
12.6029	1028.92	31.8591
12.605	1022.74	31.8787
12.6066	1011.806	31.8982
12.6076	1020.88	31.9177
12.6095	1028.36	31.9373
12.6106	1013.56	31.9568
12.6125	1018.59	31.9763
12.61408	1026.71	31.99585
12.6154	1016.99	32.0154
12.6178	1014.1	32.0349
12.6194	1028.86	32.0544
[...]
13.8992	1035.57	47.4255
13.9	1029.19	47.4451
13.90298	1016.05	47.4646
13.9044	1033.99	47.4841
13.9066	1030.47	47.5037
13.9085	1018.12	47.5232
13.9097	1029.57	47.5427
13.9103	1033.23	47.5623
13.9127	1018.22	47.5818
13.9146	1026.29	47.6013
13.9156	1034.67	47.62085
13.9184	1019.92	47.6404
13.9192	1023.57	47.6599
13.9204	1036.35	47.6794
13.922	1022.13	47.699
13.9244	1020.02	47.7185
13.9261	1035.09	47.738
13.9265	1027.42	47.7576
13.9298	1019.65	47.7771
13.9305	1030.6	47.7966
13.9323	1030.59	47.8162
13.9336	1016.65	47.8357
13.9339	1030.38	47.8552
13.9367	1032.49	47.8748
13.9392	1019.81	47.8943
13.9407	1023.68	47.9138
13.9426	1036.48	47.93335
13.9426	1019.86	47.9529
13.9455	1022.25	47.9724
13.94654	1036.74	47.9919
13.9483	1026.47	48.0115
13.9502	1018.25	48.031
13.95179	1035.61	48.0505
13.9528	1024.36	48.0701
13.9553	1018.73	48.0896
13.95662	1034.36	48.1091
13.9586	1031.85	48.1287
13.9602	1014.18	48.1482
13.9618	1030.62	48.1677
13.9638	1031.99	48.1873
13.9642	1018.59	48.2068
13.9663	1025.82	48.2263
13.9675	1034.17	48.24585
13.969	1017.67	48.2654
13.9713	1024.62	48.2849
13.9726	1035.32	48.3044
13.9747	1020.15	48.324
13.9757	1020.86	48.3435
13.9773	1034.6	48.363
13.9792	1026.46	48.3826
13.98	1017.46	48.4021
13.9829	1030.91	48.4216
13.9844	1026.77	48.4412
13.9861	1020.84	48.4607
13.98693	1027.9	48.4802
13.98948	1031.94	48.4998
13.9906	1017.4	48.5193
13.9928	1027.74	48.5388
13.9932	1034.34	48.55835
13.9958	1020.92	48.5779
13.9984	1020.51	48.5974
13.9984	1037.43	48.6169
14.0003	1023.59	48.6365
14.0022	1020.99	48.656
14.0039	1032.8	48.6755
14.0054	1028.11	48.6951
14.0073	1016.31	48.7146
14.0084	1034.78	48.7341
14.0104	1025.93	48.7537
14.0124	1016.69	48.7732
14.01359	1029.98	48.7927
14.01432	1033.48	48.8123
14.01754	1016.55	48.8318
14.0175	1024.27	48.8513
14.0205	1031.73	48.87085
14.02108	1018.86	48.8904
14.0238	1024.14	48.9099
14.0257	1035.06	48.9294
14.0271	1020.54	48.949
14.0281	1021.19	48.9685
14.0296	1034.52	48.988
14.0326	1024.785	49.0076
14.03377	1018.03	49.0271
14.0356	1031.608	49.0466
14.0368	1030.056	49.0662
14.03754	1016.82	49.0857
14.0398	1027.64	49.1052
14.04116	1029.3	49.1248
14.0428	1021.25	49.1443
14.0442	1024.95	49.1638
14.0457	1034.68	49.18335
14.0476	1019.45	49.2029
14.0488	1021.42	49.2224
14.0508	1035.22	49.2419
14.05311	1024.349	49.2615
14.0528	1015.49	49.281
14.0565	1036.32	49.3005
14.0567	1025.4	49.3201
14.0588	1017.29	49.3396
14.0589	1030.7	49.3591
14.0618	1030.97	49.3787
14.064	1014.88	49.3982
14.0651	1030.38	49.4177
14.0679	1030.63	49.4373
14.0689	1016.81	49.4568
14.071	1025.79	49.4763
14.0734	1035.21	49.49585
14.0734	1017.79	49.5154
14.076	1022.57	49.5349
14.0772	1032.79	49.5544
14.07834	1021.72	49.574
14.08	1020.48	49.5935
14.0816	1032.99	49.613
14.0836	1023.26	49.6326
14.0855	1017.11	49.6521
14.0874	1032.21	49.6716
14.0891	1027.26	49.6912
14.0902	1017.08	49.7107
14.0916	1026.83	49.7302
14.094	1031.82	49.7498
14.096	1018.29	49.7693
14.0973	1024.76	49.7888
14.0992	1031.33	49.80835
14.1004	1022.4	49.8279
14.10205	1020.44	49.8474
14.103	1035.35	49.8669
14.1049	1019.62	49.8865
14.1064	1019.11	49.906
14.1082	1033.13	49.9255
14.11014	1028.06	49.9451
14.1107	1014.59	49.9646
14.1126	1033.2	49.9841
14.1152	1028.57	50.0037
14.1151	1017.38	50.0232
14.1181	1028.78	50.0427
14.1191	1030.824	50.0623
14.1215	1015.01	50.0818
14.1232	1029.22	50.1013
14.12263	1031.41	50.12085
14.1253	1017.92	50.1404
14.1273	1022.42	50.1599
14.1292	1034.69	50.1794
14.1305	1020.08	50.199
14.1317	1020.62	50.2185
14.1334	1031.09	50.238
14.1368	1022.603	50.2576
14.1366	1020.12	50.2771
14.1387	1031.37	50.2966
14.1407	1027.094	50.3162
14.1419	1016.9	50.3357
14.144	1027.916	50.3552
14.1452	1029.8	50.3748
14.1473	1016.85	50.3943
14.1488	1024.1	50.4138
14.1493	1033.49	50.43335
14.1515	1019.1	50.4529
14.1535	1021.01	50.4724
14.1555	1030.77	50.4919
14.1573	1023.99	50.5115
14.1586	1017.24	50.531
14.1604	1034.38	50.5505
14.1617	1022.26	50.5701
14.1633	1016.54	50.5896
14.1654	1032.01	50.6091
14.1667	1031.49	50.6287
14.1679	1013.23	50.6482
14.1699	1028.52	50.6677
14.1722	1029.99	50.6873
14.1733	1017.86	50.7068
14.1743	1025.52	50.7263
14.1769	1033.71	50.74585
14.17841	1015.74	50.7654
14.1789	1022.94	50.7849
14.181	1032.88	50.8044
14.1828	1019.91	50.824
14.1843	1018.72	50.8435
14.1868	1033.24	50.863
14.1875	1022.57	50.8826
14.1893	1016.45	50.9021
14.1914	1029.08	50.9216
14.1932	1025.8	50.9412
14.1941	1016.8	50.9607
14.1968	1028.61	50.9802
14.19731	1029.16	50.9998
14.19883	1015.09	51.0193
14.20077	1024.563	51.0388
14.2026	1032.11	51.05835
14.204	1018.57	51.0779
14.2049	1017.37	51.0974
14.2069	1033.662	51.1169
14.2088	1019.57	51.1365
14.20993	1018.52	51.156
14.2123	1029.11	51.1755
14.2131	1024.676	51.1951
14.21553	1014.86	51.2146
14.2172	1031.31	51.2341
14.2179	1025.13	51.2537
14.2198	1014.43	51.2732
14.2211	1027.68	51.2927
14.2228	1033.36	51.3123
14.2255	1014.48	51.3318
14.2281	1024.489	51.3513
14.2274	1029.74	51.37085
14.2298	1019.46	51.3904
14.2305	1021.31	51.4099
14.2328	1032.88	51.4294
14.2347	1016.71	51.449
14.2369	1018.38	51.4685
14.2387	1031.17	51.488
14.2401	1023.72	51.5076
14.2422	1016.35	51.5271
14.24228	1030.075	51.5466
14.24484	1024.95	51.5662
14.2466	1016.68	51.5857
14.2479	1025.068	51.6052
14.249	1027.201	51.6248
14.2515	1017.26	51.6443
14.2524	1021.02	51.6638
14.2536	1030.06	51.68335
14.2557	1016.31	51.7029
14.2585	1019.39	51.7224
14.2595	1031.56	51.7419
14.2614	1022.41	51.7615
14.2639	1013.55	51.781
14.2639	1031.1	51.8005
14.2666	1024.25	51.8201
14.267	1016.99	51.8396
14.26885	1029.49	51.8591
14.2702	1027.22	51.8787
14.2722	1011.85	51.8982
14.2738	1030.7	51.9177
14.2754	1030.26	51.9373
14.2769	1014.706	51.9568
14.2791	1022.9	51.9763
14.2797	1033.02	51.99585
14.2826	1015.84	52.0154
14.2838	1022.43	52.0349
14.285	1031.83	52.0544
14.28681	1018.71	52.074
14.2885	1018.8	52.0935
14.2901	1031.7	52.113
14.2922	1020.48	52.1326
14.293	1016.01	52.1521
14.2957	1028.67	52.1716
14.2969	1026.59	52.1912
14.2984	1015.19	52.2107
14.3009	1024.63	52.2302
14.3029	1029.069	52.2498
14.3045	1016.99	52.2693
14.3058	1023.05	52.2888
14.3062	1027.95	52.30835
14.308	1017.85	52.3279
14.3092	1019.35	52.3474
14.3111	1033.52	52.3669
14.3126	1018.476	52.3865
14.3148	1016.22	52.406
14.3182	1029.3	52.4255
14.31721	1025.37	52.4451
14.3204	1012.8	52.4646
14.322	1028.74	52.4841
14.3235	1023.83	52.5037
14.3239	1015.34	52.5232
14.3266	1026.18	52.5427
14.3279	1030.39	52.5623
14.3289	1010.74	52.5818
14.33129	1026.885	52.6013
14.3331	1030.67	52.62085
14.3342	1017.31	52.6404
14.3363	1019.89	52.6599
14.3377	1032.72	52.6794
14.3394	1018.82	52.699
14.3408	1020.17	52.7185
14.3433	1029.78	52.738
14.3452	1022.35	52.7576
14.3453	1016.57	52.7771
14.3472	1031.75	52.7966
14.3481	1023.85	52.8162
14.35	1015.15	52.8357
14.352	1027.11	52.8552
14.3537	1029.05	52.8748
14.3545	1015.74	52.8943
14.3561	1022.01	52.9138
14.3588	1028.98	52.93335
14.3605	1017.67	52.9529
14.3611	1020.16	52.9724
14.363	1030.51	52.9919
14.3651	1019.08	53.0115
14.3671	1015.81	53.031
14.3679	1031.49	53.0505
14.3702	1022.228	53.0701
14.3728	1013.849	53.0896
14.3729	1027.49	53.1091
14.3747	1028.14	53.1287
14.3766	1013.15	53.1482
14.3779	1027.24	53.1677
14.3802	1028.67	53.1873
14.3823	1014.89	53.2068
14.3832	1023.17	53.2263
14.3846	1032.28	53.24585
14.3861	1014.73	53.2654
14.3873	1021.64	53.2849
14.3905	1031.85	53.3044
14.39	1019.21	53.324
14.3928	1016.38	53.3435
14.3932	1030.34	53.363
14.396	1021.58	53.3826
14.3985	1016.08	53.4021
14.3997	1025.49	53.4216
14.4018	1024.47	53.4412
14.4022	1014	53.4607
14.404	1026.91	53.4802
14.4055	1027.74	53.4998
14.4074	1013.23	53.5193
14.4089	1021.415	53.5388
14.4105	1029.3	53.55835
14.4128	1018.33	53.5779
14.4132	1019.49	53.5974
14.4159	1029.82	53.6169
14.4173	1019.38	53.6365
14.4182	1017.079	53.656
14.4209	1028.61	53.6755
14.4218	1022.64	53.6951
14.4244	1011.62	53.7146
14.4251	1030.16	53.7341
14.4281	1024.13	53.7537
14.4278	1013.81	53.7732
14.4299	1024.63	53.7927
14.4307	1029.92	53.8123
14.4339	1012.6	53.8318
14.4348	1022.15	53.8513
14.4365	1027.56	53.87085
14.4391	1016.25	53.8904
14.44073	1019.05	53.9099
14.4416	1031.56	53.9294
14.4428	1015.71	53.949
14.4438	1016.85	53.9685
14.4466	1028.29	53.988
14.4482	1022.36	54.0076
14.4496	1016.29	54.0271
14.4519	1028.213	54.0466
14.4539	1022.65	54.0662
14.4543	1016.44	54.0857
14.4562	1024.49	54.1052
14.4572	1025.64	54.1248
14.4589	1013.82	54.1443
14.4613	1020.45	54.1638
14.4621	1027.48	54.18335
14.4647	1015.35	54.2029
14.4654	1017.26	54.2224
14.4674	1028.69	54.2419
14.469	1020.47	54.2615
14.4708	1015.36	54.281
14.473	1028.5	54.3005
14.4746	1020.02	54.3201
14.4754	1014.28	54.3396
14.4771	1026.61	54.3591
14.4793	1025.14	54.3787
14.48113	1008.63	54.3982
14.482	1026.66	54.4177
14.48406	1026.96	54.4373
14.4862	1013.54	54.4568
14.4864	1020.46	54.4763
14.489	1030.62	54.49585
14.491	1012.91	54.5154
14.4922	1018.54	54.5349
14.4933	1027.23	54.5544
14.4963	1017.975	54.574
14.4952	1015.98	54.5935
14.4987	1032.16	54.613
14.5004	1018.46	54.6326
14.5018	1013.76	54.6521
14.5036	1024.91	54.6716
14.5048	1024.54	54.6912
14.506	1012.65	54.7107
14.5082	1025.05	54.7302
14.5103	1022.599	54.7498
14.5116	1013.835	54.7693
14.5133	1019.27	54.7888
14.5159	1026.899	54.80835
14.5164	1016.38	54.8279
14.5179	1017.78	54.8474
14.5189	1029.41	54.8669
14.5216	1017.96	54.8865
14.5228	1013.32	54.906
14.5238	1027.348	54.9255
14.5267	1022.78	54.9451
14.52809	1013.38	54.9646
14.5309	1027.9	54.9841
14.5308	1023.47	55.0037
14.5331	1012.89	55.0232
14.5344	1025.54	55.0427
14.5358	1029.125	55.0623
14.53721	1009.93	55.0818
14.539	1021.57	55.1013
14.5407	1028.3	55.12085
14.5414	1014.758	55.1404
14.5441	1015.85	55.1599
14.5447	1030.91	55.1794
14.5469	1014.65	55.199
14.54875	1016.45	55.2185
14.5505	1026.564	55.238
14.55238	1018.733	55.2576
14.5536	1013.8	55.2771
14.5554	1028.29	55.2966
14.557	1021.7	55.3162
14.5584	1011.83	55.3357
14.5599	1022.47	55.3552
14.5616	1025.71	55.3748
14.5635	1014.55	55.3943
14.5655	1020.09	55.4138
14.5659	1024.56	55.43335
14.5686	1014.42	55.4529
14.57	1016.88	55.4724
14.5719	1027.4	55.4919
14.5732	1015.65	55.5115
14.5753	1013.33	55.531
14.57664	1026.71	55.5505
14.5786	1020.416	55.5701
14.5796	1011.43	55.5896
14.5823	1025.201	55.6091
14.5827	1025.07	55.6287
14.5847	1009.75	55.6482
14.5866	1022.6	55.6677
14.5879	1024.37	55.6873
14.5901	1012.32	55.7068
14.5904	1020.35	55.7263
14.5935	1029.99	55.74585
14.595	1011.76	55.7654
14.5957	1017.662	55.7849
14.5986	1027.69	55.8044
14.6002	1015.221	55.824
14.6007	1013.46	55.8435
14.6027	1027.66	55.863
14.6041	1015.6	55.8826
14.6058	1013.87	55.9021
14.6083	1024.3	55.9216
14.6085	1021.62	55.9412
14.6105	1010.75	55.9607
14.6131	1024.47	55.9802
14.6148	1023.35	55.9998
14.6155	1012.08	56.0193
14.61641	1017.29	56.0388
14.6194	1025.58	56.05835
14.6208	1014.18	56.0779
14.62254	1016.56	56.0974
14.6233	1024.373	56.1169
14.62504	1015.45	56.1365
14.6267	1013.24	56.156
14.6289	1024.92	56.1755
14.6306	1019.44	56.1951
14.6315	1008.94	56.2146
14.633	1023.69	56.2341
14.6347	1020.846	56.2537
14.6372	1008.48	56.2732
14.6394	1019.17	56.2927
14.6408	1027.66	56.3123
14.6425	1009.61	56.3318
14.6432	1019.67	56.3513
14.645	1023.94	56.37085
14.6454	1012.56	56.3904
14.6488	1016.14	56.4099
14.65	1028.87	56.4294
14.6511	1010.89	56.449
14.6537	1011.55	56.4685
14.6557	1026.17	56.488
14.6556	1017.43	56.5076
14.6582	1010.11	56.5271
14.6592	1024.48	56.5466
14.6618	1018.5	56.5662
14.6628	1011.53	56.5857
14.6646	1021.05	56.6052
14.6661	1023.14	56.6248
14.6674	1009.11	56.6443
14.66941	1019.04	56.6638
14.6713	1024.061	56.68335
14.6738	1012.52	56.7029
14.6741	1013.87	56.7224
14.6759	1023.87	56.7419
14.6771	1015.47	56.7615
14.6798	1013.84	56.781
14.6804	1023.21	56.8005
14.6822	1016.968	56.8201
14.6838	1009.22	56.8396
14.686	1023.46	56.8591
14.687	1021.09	56.8787
14.68815	1005.49	56.8982
14.6903	1020.36	56.9177
14.69157	1022.87	56.9373
14.6939	1009.41	56.9568
14.695	1014.49	56.9763
14.6974	1026.68	56.99585
14.6986	1008.95	57.0154
14.6995	1016.7	57.0349
14.7021	1023	57.0544
14.7035	1013.36	57.074
14.7054	1010.34	57.0935
14.70702	1027.51	57.113
14.7084	1012.62	57.1326
14.7096	1009.24	57.1521
14.7116	1021.45	57.1716
14.7151	1019.66	57.1912
14.7142	1007.16	57.2107
14.7171	1020.571	57.2302
14.7187	1019.08	57.2498
14.7195	1008.9	57.2693
14.7211	1015.856	57.2888
14.7231	1022.68	57.30835
14.72499	1010.66	57.3279
14.7267	1013.74	57.3474
14.7299	1022.96	57.3669
14.73	1013.09	57.3865
14.7314	1007.445	57.406
14.7332	1021.74	57.4255
14.7336	1015.52	57.4451
14.7361	1007.22	57.4646
14.7378	1019.27	57.4841
14.74	1018.04	57.5037
14.7411	1006.88	57.5232
14.74298	1017.57	57.5427
14.74472	1023.57	57.5623
14.7457	1005.86	57.5818
14.74835	1014.36	57.6013
14.7499	1023.05	57.62085
14.7498	1007.65	57.6404
14.7523	1009.89	57.6599
14.754	1022.79	57.6794
14.7554	1009.32	57.699
14.7569	1009.13	57.7185
14.7585	1020.212	57.738
14.7603	1012.21	57.7576
14.7618	1005.89	57.7771
14.7639	1020.07	57.7966
14.7663	1013.91	57.8162
14.7667	1005.47	57.8357
14.7687	1014.79	57.8552
14.7701	1018.147	57.8748
14.7718	1006.75	57.8943
14.7736	1012.75	57.9138
14.77564	1017.451	57.93335
14.7769	1006.85	57.9529
14.7787	1007.88	57.9724
14.78	1020.25	57.9919
14.7818	1007.52	58.0115
14.7825	1004.25	58.031
14.78459	1016.8	58.0505
14.7859	1010.7	58.0701
14.7883	1000.61	58.0896
14.7899	1013.45	58.1091
14.7914	1013.1	58.1287
14.79337	1000.76	58.1482
14.7946	1010.91	58.1677
14.7962	1013.18	58.1873
14.7985	999.276	58.2068
14.8006	1007.96	58.2263
14.8018	1016.33	58.24585
14.8023	997.232	58.2654
14.8053	1000.88	58.2849
14.8061	1011.53	58.3044
14.80697	1001.21	58.324
14.8096	996.537	58.3435
14.8113	1009.72	58.363
14.8123	997.301	58.3826
14.8142	992.815	58.4021
14.8151	1000.83	58.4216
14.8183	993.2868	58.4412
14.82643	-92.269	58.4607
14.8264	-40.2549	58.4802
14.8265	-29.8169	58.4998
14.8263	-44.695	58.5193
14.8274	-42.0705	58.5388
14.8298	-28.8961	58.55835
14.8305	-43.4625	58.5779
14.8314	-43.0799	58.5974
14.8325	-31.6677	58.6169
14.8353	-40.7188	58.6365
14.8368	-48.6769	58.656
14.839	-28.1171	58.6755
14.8403	-37.2425	58.6951
14.8408	-50.4562	58.7146
14.8421	-34.4215	58.7341
14.8444	-33.97086	58.7537
14.8459	-49.6733	58.7732
14.8474	-40.0796	58.7927
14.8493	-29.0499	58.8123
14.8502	-47.7228	58.8318
14.8531	-39.9575	58.8513
14.854	-31.0584	58.87085
14.8559	-46.8487	58.8904
14.8565	-43.4496	58.9099
14.8594	-28.41931	58.9294
14.8599	-42.8405	58.949
14.8621	-46.9958	58.9685
14.8644	-32.6006	58.988
14.865	-38.6301	59.0076
14.8646	-47.1046	59.0271
14.8684	-32.5972	59.0466
14.86961	-40.4562	59.0662
14.8724	-45.5545	59.0857
14.8738	-37.8149	59.1052
14.8744	-32.7418	59.1248
14.87711	-46.3802	59.1443
14.87815	-38.758	59.1638
14.8804	-33.4023	59.18335
14.8804	-43.9579	59.2029
14.8831	-44.37495	59.2224
14.88444	-31.1282	59.2419
14.8869	-42.0279	59.2615
14.8878	-42.9928	59.281
14.8886	-33.63681	59.3005
14.8917	-37.8991	59.3201
14.893	-47.3154	59.3396
14.8941	-33.3821	59.3591
14.8956	-34.5209	59.3787
14.8975	-48.623	59.3982
14.89945	-38.2698	59.4177
14.9016	-34.1487	59.4373
14.9024	-45.787	59.4568
14.9035	-39.3331	59.4763
14.90624	-31.0227	59.49585
14.9071	-46.821	59.5154
14.9088	-41.47533	59.5349
14.9114	-33.3401	59.5544
14.9132	-41.7232	59.574
14.9133	-45.1977	59.5935
14.9154	-27.9858	59.613
14.9179	-40.4627	59.6326
14.9178	-45.6339	59.6521
14.9208	-35.0873	59.6716
14.9209	-35.9139	59.6912
14.9232	-46.5359	59.7107
14.9254	-35.2688	59.7302
14.9258	-37.2522	59.7498
14.9279	-44.7292	59.7693
14.9312	-39.04998	59.7888
14.9322	-31.45853	59.80835
14.9341	-46.2058	59.8279
14.9352	-41.6889	59.8474
14.9359	-33.63306	59.8669
14.93824	-40.7835	59.8865
14.9393	-47.2797	59.906
14.9421	-33.4887	59.9255
14.9432	-38.2717	59.9451
14.9438	-46.08337	59.9646
14.946	-36.0153	59.9841
14.9477	-37.463	60.0037
14.949	-41.5989	60.0134

Data Header:			0.254_solid_uprint_typei_4545_r0			Time:	61.665	s	4/14/2019 4:21:36 AM
Data Acquisition:	Timed
Station Name:	ft40.cfg
Test File Name:	monotonic_0.2540_typei_solid_4545_uprint.tst
Displacement	Force	Running Time
mm	N	s
14.9499	-47.6586	60.0232
14.9513	-47.1917	60.033
14.9514	-37.8219	60.0427
14.9521	-31.0816	60.05249
14.9533	-31.7011	60.0623
14.9543	-42.6446	60.072
14.9543	-46.8954	60.0818
14.9554	-45.7915	60.0916
14.9557	-41.0226	60.1013
14.9565	-32.8736	60.1111
14.9577	-32.0731	60.12085
14.9573	-38.38	60.1306
14.9597	-45.0433	60.1404
14.9605	-49.77602	60.1501
14.961	-43.6408	60.1599
14.96105	-34.0668	60.1697
14.9627	-31.4024	60.1794
14.9633	-35.6748	60.1892
14.9647	-44.1633	60.199
14.965	-47.9056	60.20874
14.9653	-45.1008	60.2185
14.9665	-38.8138	60.2283
14.9675	-33.4504	60.238
14.9676	-32.0984	60.2478
14.9692	-39.8183	60.2576
14.9698	-47.8685	60.2673
14.9708	-47.90646	60.2771
14.9716	-40.1053	60.2869
14.9721	-32.08313	60.2966
14.9727	-34.2592	60.3064
14.9741	-37.4882	60.3162
14.975	-46.5149	60.3259
14.976	-45.77684	60.3357
14.9763	-40.7658	60.3455
14.9761	-38.9953	60.3552
14.97828	-30.9725	60.36499
14.9787	-34.434	60.3748
14.9795	-44.0051	60.3845
14.9803	-46.2694	60.3943
14.9812	-47.5564	60.4041
14.9818	-37.0586	60.4138
14.9834	-33.3628	60.4236
14.9842	-35.3877	60.43335
14.9849	-38.9161	60.4431
14.9858	-43.8378	60.4529
14.9866	-46.0843	60.4626
14.9875	-44.21706	60.4724
14.9869	-37.5404	60.4822
14.9891	-31.0364	60.4919
14.9899	-35.732	60.5017
14.99	-44.1325	60.5115
14.9911	-48.2	60.52124
14.99159	-44.9913	60.531
14.9929	-39.2898	60.5408
14.9928	-35.2244	60.5505
14.9943	-33.3764	60.5603
14.9957	-36.6308	60.5701
14.9956	-45.605	60.5798
14.9966	-47.7603	60.5896
14.9974	-42.3881	60.5994
14.9993	-35.8573	60.6091
14.9985	-29.8557	60.6189
15.0003	-37.7135	60.6287
15.0016	-44.1066	60.6384
15.0019	-47.654	60.6482
15.0019	-45.3206	60.658
15.004	-37.4169	60.6677
15.0034	-31.171	60.67749
15.0063	-33.6227	60.6873
15.0063	-40.6534	60.697
15.0073	-48.2096	60.7068
15.0075	-47.8962	60.7166
15.0078	-39.8702	60.7263
15.0089	-32.7073	60.7361
15.0095	-29.3233	60.74585
15.0116	-39.8249	60.7556
15.0123	-45.0786	60.7654
15.0125	-47.204	60.7751
15.01319	-45.8415	60.7849
15.0149	-34.56329	60.7947
15.0143	-32.0435	60.8044
15.0164	-34.8265	60.8142
15.0164	-40.94	60.824
15.0168	-50.3189	60.83374
15.0177	-45.5679	60.8435
15.0192	-37.3096	60.8533
15.0195	-31.1216	60.863
15.0206	-33.9052	60.8728
15.02179	-43.331	60.8826
15.0216	-47.60487	60.8923
15.0238	-46.5268	60.9021
15.0242	-40.2005	60.9119
15.0244	-33.6498	60.9216
15.0256	-33.3934	60.9314
15.0264	-37.7177	60.9412
15.0254	-46.7436	60.9509
15.0275	-49.286	60.9607
15.0281	-45.0088	60.9705
15.0295	-35.241	60.9802
15.0303	-32.1237	60.98999
15.0312	-37.0938	60.9998
15.032	-43.3145	61.0095
15.0323	-45.3901	61.0193
15.034	-45.9092	61.0291
15.0353	-42.3532	61.0388
15.0353	-32.8454	61.0486
15.0356	-33.1389	61.05835
15.0359	-39.865	61.0681
15.038	-45.8866	61.0779
15.0381	-48.1402	61.0876
15.0403	-41.0528	61.0974
15.04025	-34.9929	61.1072
15.0411	-35.771	61.1169
15.0424	-38.1932	61.1267
15.0422	-44.1676	61.1365
15.0433	-45.9191	61.14624
15.04512	-45.9145	61.156
15.0445	-40.6928	61.1658
15.0454	-31.2953	61.1755
15.0461	-33.9577	61.1853
15.0473	-39.2528	61.1951
15.0479	-47.182	61.2048
15.04868	-47.2201	61.2146
15.05	-40.7407	61.2244
15.0497	-37.1873	61.2341
15.0509	-32.5216	61.2439
15.0519	-37.0905	61.2537
15.0528	-43.4823	61.2634
15.0535	-48.7613	61.2732
15.0549	-46.5342	61.283
15.0552	-37.786	61.2927
15.0564	-30.08419	61.30249
15.0571	-34.7568	61.3123
15.05795	-43.5931	61.322
15.0586	-49.0256	61.3318
15.05951	-47.7502	61.3416
15.06	-41.6774	61.3513
15.0608	-34.7123	61.3611
15.061	-32.5688	61.37085
15.0635	-37.9367	61.3806
15.0646	-46.7896	61.3904
15.0642	-49.0499	61.4001
15.0648	-44.5141	61.4099
15.0663	-34.9813	61.4197
15.0663	-30.6787	61.4294
15.0675	-35.8911	61.4392
15.0691	-44.2909	61.449
15.0683	-48.349	61.45874
15.07078	-46.2527	61.4685
15.0714	-37.0951	61.4783
15.0719	-34.8526	61.488
15.0721	-32.2287	61.4978
15.0737	-39.3021	61.5076
15.0744	-48.86	61.5173
15.07463	-47.5843	61.5271
15.0759	-41.1449	61.5369
15.0768	-31.5042	61.5466
15.0766	-33.1014	61.5564
15.0779	-40.0185	61.5662
15.0786	-43.8891	61.5759
15.08	-47.8421	61.5857
15.0811	-44.0153	61.5955
15.0816	-37.9549	61.6052
15.0827	-33.065	61.61499
15.08379	-34.7097	61.6248
15.0848	-43.3643	61.6345
15.0851	-47.6458	61.6443
15.0857	-44.6441	61.6541