File: data/processed_data_files/tensile/0.254_solid_uprint_typei_4545_r(4).dat
Data Header:			0.254_solid_uprint_typei_4545_r0			Time:	20.0178	s	4/14/2019 4:25:27 AM
Data Acquisition:	Timed
Station Name:	ft40.cfg
Test File Name:	monotonic_0.2540_typei_solid_4545_uprint.tst
Displacement	Force	Running Time
mm	N	s
9.95773	-120.762	0.0224609
9.95705	-98.8988	0.0419922
9.95919	-116.649	0.0615234
9.96034	-119.898	0.0810547
9.96175	-101.839	0.100586
9.9636	-106.53	0.120117
9.96456	-116.82	0.139648
9.9661	-105.234	0.15918
9.96755	-100.111	0.178711
9.96938	-115.396	0.198242
9.97097	-102.913	0.217773
9.97295	-96.5359	0.237305
9.97422	-110.094	0.256836
9.97629	-107.01	0.276367
9.9779	-88.7231	0.295898
9.979	-105.163	0.31543
9.98078	-105.831	0.334961
9.98291	-88.4736	0.354492
9.98428	-95.44236	0.374023
9.98629	-108.122	0.393555
9.98706	-86.4269	0.413086
9.98883	-90.9285	0.432617
9.98985	-101.954	0.452148
9.99183	-85.6814	0.47168
9.99416	-81.8804	0.491211
9.99524	-103.752	0.510742
9.9975	-87.5413	0.530273
9.998868	-79.1773	0.549805
10.0013	-93.9188	0.569336
10.0016	-90.6456	0.588867
10.0037	-74.3746	0.608398
10.0047	-90.8668	0.62793
10.0069	-88.4637	0.647461
10.0088	-72.0777	0.666992
10.0095	-81.8939	0.686523
10.0114	-89.2409	0.706055
10.0131	-70.9523	0.725586
10.0151	-75.1398	0.745117
10.0163	-87.9366	0.764648
10.0188	-71.7301	0.78418
10.0195	-68.1271	0.803711
10.0213	-82.3355	0.823242
10.0228	-72.9907	0.842773
10.0242	-64.5474	0.862305
10.0263	-79.2241	0.881836
10.0274	-72.7005	0.901367
10.0291	-58.4015	0.920898
10.0311	-69.9449	0.94043
10.0324	-77.1398	0.959961
10.0354	-56.3829	0.979492
10.0364	-65.1728	0.999023
10.0374	-74.1047	1.01855
10.0399	-56.8303	1.03809
10.0406	-55.48719	1.05762
10.0427	-73.1177	1.07715
10.0441	-54.0532	1.09668
10.0451	-52.8986	1.11621
10.0465	-67.1802	1.13574
10.0481	-55.7883	1.15527
10.05066	-43.7112	1.1748
10.0531	-66.0969	1.19434
10.0537	-58.1143	1.21387
10.0567	-43.1856	1.2334
10.0575	-54.966	1.25293
10.0578	-57.5541	1.27246
10.0605	-38.9872	1.29199
10.0615	-53.2476	1.31152
10.0654	-56.5695	1.33105
10.0651	-37.5892	1.35059
10.0669	-41.3686	1.37012
10.0685	-54.6964	1.38965
10.07	-39.4786	1.40918
10.0713	-37.3945	1.42871
10.0738	-51.9286	1.44824
10.0755	-42.9896	1.46777
10.0762	-30.1841	1.4873
10.07835	-43.6043	1.50684
10.0798	-42.7715	1.52637
10.082	-27.1186	1.5459
10.083	-39.8799	1.56543
10.0845	-43.0223	1.58496
10.08666	-22.7074	1.60449
10.0881	-31.3518	1.62402
10.0897	-44.2047	1.64355
10.0909	-23.4492	1.66309
10.0933	-25.7478	1.68262
10.094	-37.3592	1.70215
10.0958	-24.3136	1.72168
10.0988	-16.6686	1.74121
10.1001	-36.7875	1.76074
10.1011	-22.47407	1.78027
10.1017	-13.0885	1.7998
10.1038	-29.0471	1.81934
10.1056	-25.5465	1.83887
10.1081	-6.17282	1.8584
10.11	-24.5269	1.87793
10.1106	-25.8095	1.89746
10.1125	-9.60347	1.91699
10.1142	-15.1321	1.93652
10.115	-23.2075	1.95605
10.1177	-5.04346	1.97559
10.1187	-11.0944	1.99512
10.1215	-22.4039	2.01465
10.1227	-7.0773	2.03418
10.12382	-1.06985	2.05371
10.1258	-19.1027	2.07324
10.1278	-8.39259	2.09277
10.1283	1.37633	2.1123
10.1301	-11.1428	2.13184
10.1318	-9.61082	2.15137
10.1337	5.30868	2.1709
10.136	-4.2518	2.19043
10.1373	-10.0811	2.20996
10.138	8.3604	2.22949
10.141	0.593361	2.24902
10.1411	-8.20224	2.26855
10.1432	8.27181	2.28809
10.1453	10.27434	2.30762
10.1466	-8.02993	2.32715
10.1479	9.01014	2.34668
10.15062	14.6548	2.36621
10.1513	-2.34234	2.38574
10.1528	9.45004	2.40527
10.1546	21.7588	2.4248
10.1563	-0.339882	2.44434
10.1579	11.2958	2.46387
10.1603	23.887	2.4834
10.1619	10.5438	2.50293
10.16243	6.13559	2.52246
10.1647	27.7847	2.54199
10.166	14.1492	2.56152
10.1687	10.0417	2.58105
10.1699	23.3836	2.60059
10.1713	24.8941	2.62012
10.17203	13.4056	2.63965
10.1738	27.7086	2.65918
10.1747	27.6147	2.67871
10.1778	15.0572	2.69824
10.1792	23.6533	2.71777
10.18119	38.40424	2.7373
10.1824	20.8098	2.75684
10.184	22.2695	2.77637
10.1865	38.0468	2.7959
10.1871	27.52165	2.81543
10.1886	23.2133	2.83496
10.1906	40.4426	2.85449
10.1923	35.6935	2.87402
10.1935	23.021	2.89355
10.1952	42.0324	2.91309
10.1959	42.6963	2.93262
10.1982	27.4499	2.95215
10.2006	42.6735	2.97168
10.2021	50.5458	2.99121
10.2033	30.7903	3.01074
10.2056	39.2253	3.03027
10.2068	52.7083	3.0498
10.2085	39.5729	3.06934
10.2106	41.2625	3.08887
10.2129	59.4445	3.1084
10.2141	40.4405	3.12793
10.2146	40.2167	3.14746
10.2168	59.27137	3.16699
10.2175	52.3592	3.18652
10.2196	40.2637	3.20605
10.2213	60.4833	3.22559
10.2231	55.2344	3.24512
10.2239	47.7498	3.26465
10.22692	59.2136	3.28418
10.2277	64.93605	3.30371
10.2301	47.5908	3.32324
10.2308	60.2373	3.34277
10.2326	67.1267	3.3623
10.2344	55.3983	3.38184
10.2362	55.8248	3.40137
10.23706	74.2105	3.4209
10.2398	62.3346	3.44043
10.2415	57.1772	3.45996
10.2417	72.6066	3.47949
10.2446	68.1185	3.49902
10.2464	59.2912	3.51855
10.2474	75.3948	3.53809
10.2489	74.6811	3.55762
10.2517	59.7201	3.57715
10.2538	74.4507	3.59668
10.2547	83.35347	3.61621
10.2565	65.5518	3.63574
10.2574	72.8856	3.65527
10.2589	88.4466	3.6748
10.2599	70.0353	3.69434
10.262	74.7756	3.71387
10.2633	90.1761	3.7334
10.2648	76.673	3.75293
10.2662	74.4286	3.77246
10.2689	96.14222	3.79199
10.27082	83.458	3.81152
10.2723	74.845	3.83105
10.2738	93.0865	3.85059
10.2748	94.0447	3.87012
10.2773	77.9013	3.88965
10.2786	94.3815	3.90918
10.2801	95.3385	3.92871
10.2827	82.9925	3.94824
10.2832	93.3195	3.96777
10.284	104.371	3.9873
10.2864	86.9978	4.00684
10.288	93.468	4.02637
10.29	104.255	4.0459
10.292	95.8104	4.06543
10.29231	90.2822	4.08496
10.2945	109.575	4.10449
10.2973	102.297	4.12402
10.2977	93.693	4.14355
10.29982	106.822	4.16309
10.30053	108.763	4.18262
10.3026	93.6771	4.20215
10.3047	110.215	4.22168
10.306	114.701	4.24121
10.307	97.68219	4.26074
10.3092	105.923	4.28027
10.3107	122.414	4.2998
10.3126	105.898	4.31934
10.3128	106.6765	4.33887
10.3164	124.58	4.3584
10.3173	108.772	4.37793
10.3191	107.745	4.39746
10.3207	124.486	4.41699
10.3223	117.032	4.43652
10.3234	108.0733	4.45605
10.3252	128.656	4.47559
10.32775	123.946	4.49512
10.3279	112.052	4.51465
10.3305	124.648	4.53418
10.3323	132.767	4.55371
10.3332	117.454	4.57324
10.3354	128.353	4.59277
10.3363	133.172	4.6123
10.3387	121.534	4.63184
10.3407	124.713	4.65137
10.3425	141.988	4.6709
10.3428	127.99	4.69043
10.3447	126.507	4.70996
10.3469	141.118	4.72949
10.3485	136.453	4.74902
10.35	125.878	4.76855
10.3515	143.443	4.78809
10.3532	143.474	4.80762
10.3551	128.73	4.82715
10.3567	141.443	4.84668
10.3585	148.614	4.86621
10.3604	131.115	4.88574
10.3619	143.04	4.90527
10.3629	154.85	4.9248
10.3653	136.7859	4.94434
10.3664	137.5607	4.96387
10.3682	157.388	4.9834
10.37	142.7986	5.00293
10.3709	139.144	5.02246
10.3718	160.046	5.04199
10.3742	149.347	5.06152
10.376	140.658	5.08105
10.378	159.94	5.10059
10.3801	157.299	5.12012
10.3806	142.245	5.13965
10.382	161.245	5.15918
10.3837	162.738	5.17871
10.38583	149.138	5.19824
10.3878	157.729	5.21777
10.3883	170.55	5.2373
10.3905	154.127	5.25684
10.3925	160.022	5.27637
10.3938	169.852	5.2959
10.3961	161.053	5.31543
10.39846	156.582	5.33496
10.3988	176.325	5.35449
10.4002	168.9	5.37402
10.4023	160.582	5.39355
10.4034	173.413	5.41309
10.4051	176.951	5.43262
10.4068	160.56	5.45215
10.409	175.663	5.47168
10.4093	180.471	5.49121
10.41297	167.693	5.51074
10.4138	172.999	5.53027
10.4146	188.963	5.5498
10.4169	169.187	5.56934
10.4182	173.812	5.58887
10.4194	191.691	5.6084
10.4217	177.912	5.62793
10.4228	170.516	5.64746
10.4244	192.443	5.66699
10.4264	183.084	5.68652
10.4283	174.357	5.70605
10.4293	193.17	5.72559
10.4311	189.931	5.74512
10.4328	175.589	5.76465
10.43515	192.92	5.78418
10.4367	197.668	5.80371
10.4379	179.402	5.82324
10.44	192.155	5.84277
10.4404	201.97	5.8623
10.4416	187.108	5.88184
10.444	188.716	5.90137
10.4464	205.424	5.9209
10.4483	193.601	5.94043
10.4491	192.98	5.95996
10.4518	206.238	5.97949
10.4528	201.438	5.99902
10.4544	189.817	6.01855
10.4551	209.896	6.03809
10.4584	209.205	6.05762
10.4592	195.209	6.07715
10.4606	205.29	6.09668
10.4618	216.041	6.11621
10.4638	198.996	6.13574
10.4649	210.451	6.15527
10.4667	219.319	6.1748
10.4689	204.902	6.19434
10.4707	205.29	6.21387
10.4718	224.7531	6.2334
10.4738	209.057	6.25293
10.4753	206.105	6.27246
10.4767	225.279	6.29199
10.4794	219.1597	6.31152
10.4791	206.902	6.33105
10.4817	225.199	6.35059
10.4827	224.191	6.37012
10.484	210.3772	6.38965
10.4865	227.397	6.40918
10.48774	230.2188	6.42871
10.4893	212.734	6.44824
10.4904	225.976	6.46777
10.493	237.838	6.4873
10.4946	218.8831	6.50684
10.4955	223.6	6.52637
10.4975	238.378	6.5459
10.4995	226.335	6.56543
10.5006	222.54	6.58496
10.5027	241.577	6.60449
10.5042	233.918	6.62402
10.5069	225.617	6.64355
10.509	240.625	6.66309
10.50912	242.259	6.68262
10.5114	224.813	6.70215
10.5119	240.966	6.72168
10.5142	248.098	6.74121
10.516	233.302	6.76074
10.5178	236.996	6.78027
10.51937	251.981	6.7998
10.5219	236.519	6.81934
10.52303	241.1078	6.83887
10.5252	256.082	6.8584
10.5257	242.52	6.87793
10.5268	235.475	6.89746
10.5295	260.038	6.91699
10.5313	249.31	6.93652
10.5314	240.051	6.95605
10.5346	258.099	6.97559
10.5352	257.138	6.99512
10.5371	243.191	7.01465
10.5382	259.869	7.03418
10.5398	262.381	7.05371
10.5424	248.054	7.07324
10.5429	259.141	7.09277
10.5453	269.262	7.1123
10.5464	250.796	7.13184
10.5477	255.993	7.15137
10.5509	273.365	7.1709
10.551	260.178	7.19043
10.5531	258.32	7.20996
10.5545	271.714	7.22949
10.5554	265.634	7.24902
10.5592	258.147	7.26855
10.5595	275.347	7.28809
10.5621	271.9964	7.30762
10.563	260.8934	7.32715
10.5643	272.63	7.34668
10.5663	282.389	7.36621
10.5684	262.437	7.38574
10.5698	273.1387	7.40527
10.5714	285.948	7.4248
10.5731	272.9465	7.44434
10.5752	269.904	7.46387
10.5751	288.905	7.4834
10.5781	274.908	7.50293
10.5788	274.075	7.52246
10.581	292.308	7.54199
10.58201	284.033	7.56152
10.585	270.313	7.58105
10.5859	291.7944	7.60059
10.5879	288.768	7.62012
10.5892	276.104	7.63965
10.5904	292.012	7.65918
10.5924	296.609	7.67871
10.5939	278.835	7.69824
10.5965	290.672	7.71777
10.5963	300.547	7.7373
10.5981	284.279	7.75684
10.60093	289.348	7.77637
10.6024	303.583	7.7959
10.6036	290.097	7.81543
10.6045	288.006	7.83496
10.6072	305.585	7.85449
10.6078	299.653	7.87402
10.6094	291.643	7.89355
10.6113	303.703	7.91309
10.61353	307.784	7.93262
10.6153	292.457	7.95215
10.617	304.875	7.97168
10.6186	311.897	7.99121
10.6195	297.372	8.01074
10.6217	300.512	8.03027
10.6235	319.864	8.0498
10.6247	303.573	8.06934
10.626	302.419	8.08887
10.6283	321.838	8.1084
10.6287	313.297	8.12793
10.6314	300.225	8.14746
10.63229	322.632	8.16699
10.6345	315.267	8.18652
10.63655	306.017	8.20605
10.6374	321.059	8.22559
10.6396	325.902	8.24512
10.6414	304.931	8.26465
10.6425	321.007	8.28418
10.6443	329.643	8.30371
10.6455	313.356	8.32324
10.6468	317.527	8.34277
10.6494	334.284	8.3623
10.6513	316.567	8.38184
10.6524	318.691	8.40137
10.6537	335.894	8.4209
10.6558	326.186	8.44043
10.6568	319.538	8.45996
10.6586	339.557	8.47949
10.6603	333.025	8.49902
10.6625	321.787	8.51855
10.6634	335.361	8.53809
10.665	339.936	8.55762
10.6673	326.771	8.57715
10.6683	334.617	8.59668
10.6704	345.2576	8.61621
10.6717	330.0329	8.63574
10.6744	336.496	8.65527
10.6747	349.466	8.6748
10.6768	337.02	8.69434
10.6786	330.155	8.71387
10.6799	354.84	8.7334
10.6811	343.1347	8.75293
10.6829	335.1731	8.77246
10.68445	352.812	8.79199
10.6869	352.338	8.81152
10.6888	334.004	8.83105
10.6893	355.932	8.85059
10.6912	354.885	8.87012
10.6936	341.17	8.88965
10.6945	352.7113	8.90918
10.6959	365.207	8.92871
10.697	342.46	8.94824
10.6988	352.362	8.96777
10.7012	365.521	8.9873
10.7031	353.473	9.00684
10.7042	350.354	9.02637
10.7061	369.349	9.0459
10.7084	355.907	9.06543
10.7087	350.858	9.08496
10.7113	368.953	9.10449
10.7126	366.622	9.12402
10.7138	351.688	9.14355
10.7163	367.857	9.16309
10.718	371.911	9.18262
10.719	356.947	9.20215
10.7207	366.984	9.22168
10.7226	378.452	9.24121
10.7247	362.925	9.26074
10.7253	365.045	9.28027
10.727	382.306	9.2998
10.7286	368.276	9.31934
10.7307	365.952	9.33887
10.7323	384.263	9.3584
10.7333	376.277	9.37793
10.7365	362.334	9.39746
10.737	385.552	9.41699
10.7394	382.641	9.43652
10.7395	368.701	9.45605
10.742	383.922	9.47559
10.7434	390.103	9.49512
10.7451	368.432	9.51465
10.7454	384.004	9.53418
10.7483	394.699	9.55371
10.7494	376.884	9.57324
10.7509	381.657	9.59277
10.7534	401.659	9.6123
10.75517	381.063	9.63184
10.7556	382.012	9.65137
10.7582	399.186	9.6709
10.7596	392.439	9.69043
10.7618	382.458	9.70996
10.7633	402.795	9.72949
10.7641	394.15	9.74902
10.7658	383.838	9.76855
10.7684	400.7807	9.78809
10.76981	405.061	9.80762
10.7715	387.097	9.82715
10.7727	397.845	9.84668
10.7743	408.898	9.86621
10.776	393.492	9.88574
10.7777	396.8739	9.90527
10.7791	413.546	9.9248
10.7803	401.547	9.94434
10.7828	396.716	9.96387
10.7842	415.963	9.9834
10.7852	406.175	10.00293
10.7878	397.368	10.0225
10.7884	415.269	10.042
10.7897	416.34	10.0615
10.7922	397.634	10.0811
10.7934	415.358	10.1006
10.7956	421.199	10.1201
10.7974	403.875	10.1396
10.7975	415.966	10.15918
10.8004	427.307	10.1787
10.8027	406.885	10.1982
10.804	415.985	10.2178
10.8059	431.648	10.2373
10.8064	416.61	10.2568
10.8081	411.757	10.2764
10.8102	433.696	10.2959
10.8115	420.232	10.31543
10.8125	414.8895	10.335
10.8143	430.748	10.3545
10.81707	429.98	10.374
10.8175	416.2793	10.3936
10.8195	432.128	10.4131
10.8217	434.936	10.4326
10.8238	419.789	10.4521
10.8252	428.813	10.47168
10.826	443.114	10.4912
10.8287	424.163	10.5107
10.82864	429.556	10.5303
10.8303	443.277	10.5498
10.833	432.98	10.5693
10.8342	428.652	10.5889
10.83685	446.067	10.6084
10.8375	437.67	10.62793
10.8394	428.0481	10.6475
10.8406	448.114	10.667
10.8422	446.942	10.6865
10.8442	429.358	10.7061
10.8452	446.2298	10.7256
10.8473	454.359	10.7451
10.84868	432.371	10.7646
10.85	446.561	10.78418
10.8524	456.7724	10.8037
10.8538	440.757	10.8232
10.8554	445.413	10.8428
10.857	462.911	10.8623
10.8593	443.313	10.8818
10.8599	443.592	10.9014
10.8632	462.321	10.9209
10.8625	453.995	10.94043
10.8654	442.962	10.96
10.866	466.157	10.9795
10.8692	460.103	10.999
10.8703	448.259	11.0186
10.87303	462.256	11.0381
10.8735	467.087	11.0576
10.8748	450.871	11.0771
10.8766	462.704	11.09668
10.8777	473.326	11.1162
10.8794	456.33	11.1357
10.8828	459.655	11.1553
10.882	477.73	11.1748
10.88483	464.855	11.1943
10.886	458.652	11.2139
10.8874	475.8894	11.2334
10.8898	471.593	11.25293
10.8929	459.587	11.2725
10.8926	479.18	11.292
10.8936	477.292	11.3115
10.8959	461.048	11.3311
10.8988	476.096	11.3506
10.8992	485.597	11.3701
10.9008	465.934	11.3896
10.9028	474.802	11.40918
10.9053	490.811	11.4287
10.9054	470.818	11.4482
10.9071	475.113	11.4678
10.9096	491.248	11.4873
10.9121	479.157	11.5068
10.9126	475.08	11.5264
10.9135	498.088	11.5459
10.9156	482.889	11.56543
10.9173	475.508	11.585
10.9187	494.824	11.6045
10.9206	495.012	11.624
10.9225	477.74	11.6436
10.92355	493.733	11.6631
10.9248	497.351	11.6826
10.9277	481.838	11.7021
10.929	490.367	11.72168
10.9306	505.222	11.7412
10.9315	486.21	11.7607
10.933	492.368	11.7803
10.9363	505.996	11.7998
10.9368	495.325	11.8193
10.9387	487.7554	11.8389
10.94081	509.764	11.8584
10.9411	501.912	11.87793
10.9437	491.754	11.8975
10.9452	507.095	11.917
10.9469	507.034	11.9365
10.9484	490.511	11.9561
10.9497	508.039	11.9756
10.9516	515.19	11.9951
10.9529	493.15	12.0146
10.9555	505.13	12.03418
10.9555	521.021	12.0537
10.9591	501.96	12.0732
10.9587	503.824	12.0928
10.96141	523.363	12.1123
10.9626	506.694	12.1318
10.965	504.655	12.1514
10.9661	524.145	12.1709
10.9682	515.0036	12.19043
10.9693	504.58	12.21
10.9707	528.068	12.2295
10.9725	520.244	12.249
10.9755	505.493	12.2686
10.9762	522.507	12.2881
10.977	530.151	12.3076
10.9794	510.164	12.3271
10.9806	522.561	12.34668
10.9825	531.109	12.3662
10.9851	516.4	12.3857
10.9859	519.821	12.4053
10.9863	539.972	12.4248
10.9886	523.596	12.4443
10.9905	520.109	12.4639
10.99325	537.258	12.4834
10.9943	533.975	12.50293
10.9963	517.047	12.5225
10.9978	539.784	12.542
10.9983	539.229	12.5615
11.0004	522.382	12.5811
11.00279	536.752	12.6006
11.004	545.072	12.6201
11.0054	525.1225	12.6396
11.0077	536.165	12.65918
11.0087	550.817	12.6787
11.0107	528.963	12.6982
11.013	532.568	12.7178
11.0133	553.548	12.7373
11.0149	538.464	12.7568
11.0173	533.045	12.7764
11.0185	555.109	12.7959
11.0203	543.135	12.81543
11.0217	533.0564	12.835
11.0227	554.389	12.8545
11.0249	551.835	12.874
11.026	535.588	12.8936
11.0281	554.103	12.9131
11.03047	557.622	12.9326
11.0314	540.351	12.9521
11.0331	549.997	12.97168
11.0345	564.642	12.9912
11.0351	546.017	13.0107
11.0367	552.345	13.0303
11.0414	565.192	13.0498
11.0406	554.03	13.0693
11.043	547.883	13.0889
11.0441	569.677	13.1084
11.04573	560.578	13.12793
11.0474	547.874	13.1475
11.0495	567.376	13.167
11.0518	569.449	13.1865
11.0526	550.081	13.2061
11.0533	566.614	13.2256
11.05545	573.63	13.2451
11.0574	555.645	13.2646
11.0597	563.517	13.28418
11.0598	578.5	13.3037
11.0616	558.413	13.3232
11.064	565.27	13.3428
11.0655	584.65	13.3623
11.0666	566.791	13.3818
11.0682	561.307	13.4014
11.0703	582.228	13.4209
11.07225	575.288	13.44043
11.0743	562.193	13.46
11.0745	584.621	13.4795
11.0769	579.3092	13.499
11.07797	564.398	13.5186
11.07998	583.403	13.5381
11.08129	588.583	13.5576
11.083	568.563	13.5771
11.0852	581.28	13.59668
11.0874	591.545	13.6162
11.0886	577.16	13.6357
11.0894	577.874	13.6553
11.09106	597.684	13.6748
11.0925	580.443	13.6943
11.0943	580.366	13.7139
11.0965	595.456	13.7334
11.0975	589.781	13.75293
11.0992	576.558	13.7725
11.1023	598.382	13.792
11.10281	598.186	13.8115
11.1046	579.738	13.8311
11.10661	593.633	13.8506
11.1074	604.3446	13.8701
11.1099	583.946	13.8896
11.1103	595.251	13.90918
11.1122	608.318	13.9287
11.11427	589.05	13.9482
11.1157	590.443	13.9678
11.11775	613.251	13.9873
11.1189	593.847	14.0068
11.1212	592.078	14.0264
11.1223	614.3158	14.0459
11.12458	602.576	14.06543
11.1256	589.857	14.085
11.1267	612.3371	14.1045
11.1285	610.536	14.124
11.1299	592.473	14.1436
11.1326	613.4046	14.1631
11.1325	615.372	14.1826
11.135	598.18	14.2021
11.1372	609.058	14.22168
11.139	622.83	14.2412
11.1401	602.368	14.2607
11.1418	608.428	14.2803
11.1427	622.6543	14.2998
11.1444	610.399	14.3193
11.14763	606.1759	14.3389
11.1487	626.323	14.3584
11.1504	616.886	14.37793
11.1514	607.391	14.3975
11.1547	625.453	14.417
11.1547	624.779	14.4365
11.1566	604.355	14.4561
11.1579	626.548	14.4756
11.15968	630.115	14.4951
11.1613	612.75	14.5146
11.16352	619.965	14.53418
11.1647	636.381	14.5537
11.1656	616.107	14.5732
11.1677	621.344	14.5928
11.1701	639.386	14.6123
11.1715	622.568	14.6318
11.1721	616.442	14.6514
11.1745	642.98	14.6709
11.17649	629.3457	14.69043
11.1774	618.916	14.71
11.17887	641.765	14.7295
11.1811	638.875	14.749
11.1818	620.13	14.7686
11.18508	638.231	14.7881
11.1861	643.901	14.8076
11.1874	623.955	14.8271
11.1886	638.734	14.84668
11.1908	649.394	14.8662
11.1924	629.398	14.8857
11.1933	635.255	14.9053
11.196	653.031	14.9248
11.1973	637.4632	14.9443
11.1989	633.54	14.9639
11.2003	651.293	14.9834
11.2022	645.537	15.00293
11.2035	632.255	15.0225
11.2052	654.512	15.042
11.20692	651.021	15.0615
11.2084	636.409	15.0811
11.2095	650.891	15.1006
11.2119	660.701	15.1201
11.2133	635.6203	15.1396
11.2158	650.149	15.15918
11.2167	663.987	15.1787
11.2174	647.115	15.1982
11.2191	645.812	15.2178
11.222	666.832	15.2373
11.2234	649.731	15.2568
11.22401	647.575	15.2764
11.2267	669.433	15.2959
11.2271	657.815	15.31543
11.22808	644.742	15.335
11.2323	670.148	15.3545
11.2335	666.621	15.374
11.23426	647.562	15.3936
11.2354	667.791	15.4131
11.2374	672.401	15.4326
11.2397	650.655	15.4521
11.2411	664.772	15.47168
11.243	676.604	15.4912
11.2437	656.842	15.5107
11.2464	664.031	15.5303
11.2475	681.12	15.5498
11.2497	664.505	15.5693
11.251	659.463	15.5889
11.25155	681.401	15.6084
11.25394	671.231	15.62793
11.2554	662.877	15.6475
11.2559	678.346	15.667
11.2587	679.115	15.6865
11.2608	662.04	15.7061
11.2617	681.876	15.7256
11.2637	684.451	15.7451
11.264	667.349	15.7646
11.2669	675.748	15.78418
11.2692	692.9259	15.8037
11.2696	669.373	15.8232
11.272	676.788	15.8428
11.274	694.802	15.8623
11.2755	679.5733	15.8818
11.276	671.997	15.9014
11.2785	696.664	15.9209
11.2805	683.997	15.94043
11.2832	674.957	15.96
11.2837	698.863	15.9795
11.2855	693.105	15.999
11.2862	673.259	16.0186
11.289	694.382	16.0381
11.2896	698.981	16.0576
11.2906	678.6095	16.0771
11.2931	692.346	16.09668
11.2947	703.5683	16.1162
11.2961	684.407	16.1357
11.2995	690.478	16.1553
11.2997	707.978	16.1748
11.3011	689.321	16.1943
11.302	689.686	16.2139
11.3047	708.894	16.2334
11.3054	697.522	16.25293
11.3081	686.403	16.2725
11.3091	709.015	16.292
11.3109	707.179	16.3115
11.3129	691.98	16.3311
11.3151	704.269	16.3506
11.3154	712.321	16.3701
11.3178	691.781	16.3896
11.3195	705.552	16.40918
11.3218	717.488	16.4287
11.3218	697.533	16.4482
11.3229	698.29	16.4678
11.3263	722.91	16.4873
11.3275	703.775	16.5068
11.32966	701.55	16.5264
11.3308	720.365	16.5459
11.3313	713.03	16.56543
11.3341	698.554	16.585
11.3351	722.328	16.6045
11.3375	715.8551	16.624
11.3385	701.157	16.6436
11.3405	720.238	16.6631
11.3417	726.793	16.6826
11.3428	701.646	16.7021
11.3454	718.027	16.72168
11.3469	728.7464	16.7412
11.3495	712.558	16.7607
11.3507	717.824	16.7803
11.3506	732.7616	16.7998
11.3529	716.2641	16.8193
11.3549	716.035	16.8389
11.3566	735.411	16.8584
11.35822	723.282	16.87793
11.3604	714.544	16.8975
11.362	733.721	16.917
11.3626	732.25	16.9365
11.364	715.862	16.9561
11.3662	732.226	16.9756
11.3679	737.109	16.9951
11.3696	722.103	17.0146
11.3715	730.049	17.03418
11.3722	743.273	17.0537
11.3739	722.055	17.0732
11.3754	729.164	17.0928
11.3778	747.757	17.1123
11.3793	731.977	17.1318
11.381	723.167	17.1514
11.3835	748.905	17.1709
11.3846	738.1347	17.19043
11.3856	726.642	17.21
11.3871	747.242	17.2295
11.389	745.33	17.249
11.3915	725.663	17.2686
11.3925	747.072	17.2881
11.3942	750.352	17.3076
11.3953	729.984	17.3271
11.3976	743.153	17.34668
11.3983	757.928	17.3662
11.4009	735.859	17.3857
11.40259	741.069	17.4053
11.4036	758.313	17.4248
11.4056	742.516	17.4443
11.4073	740.077	17.4639
11.4078	758.707	17.4834
11.4113	747.744	17.50293
11.4107	739.595	17.5225
11.4131	760.299	17.542
11.4162	753.302	17.5615
11.417	740.908	17.5811
11.4179	757.107	17.6006
11.4199	761.8941	17.6201
11.4217	744.344	17.6396
11.4226	755.546	17.65918
11.4243	766.396	17.6787
11.4269	751.188	17.6982
11.4287	752.004	17.7178
11.4295	771.898	17.7373
11.4312	753.5235	17.7568
11.4331	753.234	17.7764
11.4343	774.179	17.7959
11.4366	764.6001	17.81543
11.4381	748.489	17.835
11.4392	773.416	17.8545
11.4418	768.52	17.874
11.4431	753.965	17.8936
11.4448	772.457	17.9131
11.4451	775.423	17.9326
11.4489	754.301	17.9521
11.44902	771.485	17.97168
11.4505	779.922	17.9912
11.4521	761.654	18.0107
11.45425	769.137	18.0303
11.4558	786.355	18.0498
11.4572	765.5191	18.0693
11.4578	765.653	18.0889
11.4607	784.076	18.1084
11.462	774.498	18.12793
11.4641	766.194	18.1475
11.4651	784.718	18.167
11.467	778.893	18.1865
11.4689	765.325	18.2061
11.4699	783.878	18.2256
11.4727	787.21	18.2451
11.473	770.535	18.2646
11.4754	778.866	18.28418
11.4769	792.252	18.3037
11.4782	774.036	18.3232
11.4798	779.634	18.3428
11.4812	795.451	18.3623
11.4835	783.324	18.3818
11.485	776.187	18.4014
11.4863	799.508	18.4209
11.4892	785.975	18.44043
11.49104	776.476	18.46
11.4909	797.184	18.4795
11.4932	796.594	18.499
11.4948	775.576	18.5186
11.4971	796.489	18.5381
11.4983	797.129	18.5576
11.499	782.037	18.5771
11.5	793.804	18.59668
11.5033	805.435	18.6162
11.50462	783.144	18.6357
11.5062	793.575	18.6553
11.5076	808.263	18.6748
11.5097	791.912	18.6943
11.5111	788.13	18.7139
11.5123	809.222	18.7334
11.5143	796.247	18.75293
11.5159	791.177	18.7725
11.5178	806.352	18.792
11.5196	805.983	18.8115
11.5218	792.329	18.8311
11.523	808.601	18.8506
11.5245	807.989	18.8701
11.5255	792.749	18.8896
11.527	805.7298	18.90918
11.5293	815.8266	18.9287
11.5291	798.814	18.9482
11.5321	800.92	18.9678
11.5342	818.706	18.9873
11.5351	803.656	19.0068
11.5374	801.039	19.0264
11.5395	818.884	19.0459
11.541	811.716	19.06543
11.5404	798.171	19.085
11.5443	821.239	19.1045
11.5454	817.2605	19.124
11.5476	800.781	19.1436
11.5486	820.081	19.1631
11.5506	825.946	19.1826
11.551	801.2688	19.2021
11.5532	817.495	19.22168
11.5553	826.198	19.2412
11.5566	809.369	19.2607
11.5586	815.067	19.2803
11.5599	832.1933	19.2998
11.5613	810.645	19.3193
11.5639	815.823	19.3389
11.5642	832.934	19.3584
11.56623	822.527	19.37793
11.5684	811.926	19.3975
11.5688	832.528	19.417
11.571	826.991	19.4365
11.5727	814.856	19.4561
11.5747	830.9668	19.4756
11.5761	833.088	19.4951
11.5788	816.634	19.5146
11.5799	829.306	19.53418
11.5804	837	19.5537
11.5829	821.536	19.5732
11.5848	826.488	19.5928
11.5861	841.216	19.6123
11.5869	828.055	19.6318
11.58976	823.251	19.6514
11.59098	842.72	19.6709
11.59244	832.335	19.69043
11.5934	824.882	19.71
11.5967	844.995	19.7295
11.597	840.4223	19.749
11.5992	822.224	19.7686
11.6006	844.995	19.7881
11.6027	845.757	19.8076
11.6028	827.977	19.8271
11.6059	839.802	19.84668
11.6065	852.1311	19.8662
11.6088	828.711	19.8857
11.6109	839.305	19.9053
11.6115	851.6496	19.9248
11.61307	838.267	19.9443
11.6153	836.3042	19.9639
11.61636	858.298	19.9834
11.619	840.546	20.00293
11.61888	835.388	20.0127

Data Header:			0.254_solid_uprint_typei_4545_r0			Time:	40.0188	s	4/14/2019 4:25:47 AM
Data Acquisition:	Timed
Station Name:	ft40.cfg
Test File Name:	monotonic_0.2540_typei_solid_4545_uprint.tst
Displacement	Force	Running Time
mm	N	s
11.61939	835.9566	20.0225
11.6222	853.874	20.042
11.6222	852.592	20.0615
11.6248	836.176	20.0811
11.6263	852.823	20.1006
11.6282	854.054	20.1201
11.6297	839.269	20.1396
11.6315	851.323	20.15918
11.6332	859.854	20.1787
11.6348	841.787	20.1982
11.6365	848.251	20.2178
11.6378	865.5033	20.2373
11.6397	849.104	20.2568
11.6409	846.5769	20.2764
11.6427	866.04	20.2959
11.6449	855.9057	20.31543
11.6463	844.134	20.335
11.6474	865.558	20.3545
11.6487	859.828	20.374
11.6522	849.064	20.3936
11.6519	864.229	20.4131
11.6544	867.54	20.4326
11.6561	846.609	20.4521
11.6573	864.575	20.47168
11.6589	872.103	20.4912
11.6604	854.431	20.5107
11.6634	859.641	20.5303
11.6644	876.204	20.5498
11.6651	857.243	20.5693
11.6672	859.604	20.5889
11.669	874.973	20.6084
11.6707	865.34	20.62793
11.6724	857.105	20.6475
11.6738	880.413	20.667
11.674	868.866	20.6865
11.6767	858.185	20.7061
11.6786	874.683	20.7256
11.6804	878.1217	20.7451
11.6821	862.665	20.7646
11.6836	873.518	20.78418
11.68526	878.465	20.8037
11.686	865.2016	20.8232
11.6885	870.054	20.8428
11.6893	883.246	20.8623
11.6914	869.2215	20.8818
11.6944	868.303	20.9014
11.6945	885.256	20.9209
11.6964	876.87	20.94043
11.6983	867.138	20.96
11.70024	886.929	20.9795
11.7014	883.648	20.999
11.7023	865.638	21.0186
11.7048	885.311	21.0381
11.7065	885.648	21.0576
11.7075	869.255	21.0771
11.7095	882.873	21.09668
11.7113	893.219	21.1162
11.7137	870.547	21.1357
11.714	879.442	21.1553
11.7161	894.387	21.1748
11.7185	879.691	21.1943
11.71938	879.505	21.2139
11.7208	896.456	21.2334
11.72259	881.859	21.25293
11.7235	880.84	21.2725
11.7255	897.465	21.292
11.7274	891.962	21.3115
11.72831	878.468	21.3311
11.7311	896.541	21.3506
11.7326	897.156	21.3701
11.7338	882.034	21.3896
11.73518	891.749	21.40918
11.7378	902.288	21.4287
11.7385	885.2854	21.4482
11.74	892.775	21.4678
11.7425	903.499	21.4873
11.7438	890.19	21.5068
11.7453	888.209	21.5264
11.7476	906.5498	21.5459
11.7488	896.536	21.56543
11.75	885.821	21.585
11.7524	904.201	21.6045
11.7544	902.803	21.624
11.7551	887.276	21.6436
11.7559	902.304	21.6631
11.7589	905.369	21.6826
11.7595	887.469	21.7021
11.7604	902.563	21.72168
11.76397	910.831	21.7412
11.7649	892.781	21.7607
11.766	899.849	21.7803
11.7668	915.235	21.7998
11.77	896.244	21.8193
11.7709	897.042	21.8389
11.7733	914.856	21.8584
11.7752	904.809	21.87793
11.7757	896.71	21.8975
11.778	917.634	21.917
11.7797	907.293	21.9365
11.7807	900.011	21.9561
11.783	915.72	21.9756
11.7853	916.049	21.9951
11.7863	897.664	22.0146
11.7869	913.266	22.03418
11.789	919.1344	22.0537
11.7908	904.363	22.0732
11.7929	907.745	22.0928
11.7944	923.625	22.1123
11.7951	908.262	22.1318
11.7975	909.594	22.1514
11.7997	922.2702	22.1709
11.8012	913.516	22.19043
11.8023	904.172	22.21
11.80284	925.898	22.2295
11.8056	921.11	22.249
11.8067	904.298	22.2686
11.8087	920.665	22.2881
11.81059	925.359	22.3076
11.8119	908.543	22.3271
11.8125	920.869	22.34668
11.8158	929.02	22.3662
11.8169	909.033	22.3857
11.8183	918.622	22.4053
11.8203	932.938	22.4248
11.8211	914.83	22.4443
11.8234	916.582	22.4639
11.82532	936.562	22.4834
11.8271	921.4541	22.50293
11.8283	916.064	22.5225
11.8299	933.096	22.542
11.83178	927.436	22.5615
11.8334	917.451	22.5811
11.835	934.794	22.6006
11.8364	928.794	22.6201
11.8381	918.0827	22.6396
11.8391	931.127	22.65918
11.84	939.383	22.6787
11.8431	921.239	22.6982
11.8445	929.579	22.7178
11.8448	939.462	22.7373
11.8485	926.688	22.7568
11.8493	925.004	22.7764
11.8502	943.326	22.7959
11.8525	931.766	22.81543
11.8552	925.79	22.835
11.8557	941.55	22.8545
11.8572	938.796	22.874
11.86	922.978	22.8936
11.8609	941.063	22.9131
11.862	943.622	22.9326
11.86428	925.718	22.9521
11.8664	936.302	22.97168
11.86795	946.728	22.9912
11.8688	929.692	23.0107
11.8705	938.697	23.0303
11.8722	950.751	23.0498
11.8734	930.901	23.0693
11.87526	935.645	23.0889
11.8776	952.241	23.1084
11.8793	939.101	23.12793
11.8809	931.825	23.1475
11.8819	953.3222	23.167
11.88418	944.215	23.1865
11.8857	932.17	23.2061
11.88757	948.711	23.2256
11.8883	952.136	23.2451
11.89	935.617	23.2646
11.8914	950.271	23.28418
11.8927	952.602	23.3037
11.8943	938.357	23.3232
11.8962	945.097	23.3428
11.8972	959.496	23.3623
11.9003	942.146	23.3818
11.9018	943.022	23.4014
11.904	957.719	23.4209
11.9046	948.778	23.44043
11.9064	941.208	23.46
11.90828	958.055	23.4795
11.9095	952.554	23.499
11.9101	940.545	23.5186
11.9137	956.877	23.5381
11.9149	959.126	23.5576
11.9159	940.962	23.5771
11.9184	954.638	23.59668
11.9195	964.776	23.6162
11.9212	944.727	23.6357
11.9228	950.175	23.6553
11.9252	966.475	23.6748
11.9255	949.357	23.6943
11.9274	950.875	23.7139
11.9286	968.949	23.7334
11.9308	953.454	23.75293
11.9324	947.958	23.7725
11.93399	967.45	23.792
11.93552	961.246	23.8115
11.9373	947.82	23.8311
11.9388	966.724	23.8506
11.94	965.925	23.8701
11.9423	951.836	23.8896
11.944	963.894	23.90918
11.945	970.396	23.9287
11.9475	954.074	23.9482
11.94889	964.145	23.9678
11.951	971.014	23.9873
11.95172	957.739	24.0068
11.9536	957.14	24.0264
11.956	976.064	24.0459
11.9568	965.239	24.06543
11.9581	957.755	24.085
11.95964	972.475	24.1045
11.9613	970.004	24.124
11.9632	955.87	24.1436
11.965	974.626	24.1631
11.9663	973.527	24.1826
11.9681	958.107	24.2021
11.9704	970.662	24.22168
11.9709	978.9823	24.2412
11.972	958.096	24.2607
11.9754	966.891	24.2803
11.9758	981.591	24.2998
11.9788	963.574	24.3193
11.9794	964.004	24.3389
11.9809	981.711	24.3584
11.983	968.696	24.37793
11.9843	962.332	24.3975
11.9856	983.278	24.417
11.9868	973.995	24.4365
11.9899	962.195	24.4561
11.9911	980.766	24.4756
11.9926	981.709	24.4951
11.9949	962.999	24.5146
11.996	979.31	24.53418
11.9969	981.289	24.5537
11.9986	968.7724	24.5732
12.0008	974.117	24.5928
12.0027	986.198	24.6123
12.0039	970.655	24.6318
12.0053	975.176	24.6514
12.0078	987.688	24.6709
12.0084	976.468	24.69043
12.01147	968.783	24.71
12.0118	989.285	24.7295
12.0129	983.177	24.749
12.0153	972.261	24.7686
12.0171	984.427	24.7881
12.0188	987.871	24.8076
12.0213	971.207	24.8271
12.0225	985.845	24.84668
12.02354	989.72	24.8662
12.0251	971.641	24.8857
12.0264	978.278	24.9053
12.0281	995.905	24.9248
12.0308	975.509	24.9443
12.0313	976.969	24.9639
12.0335	993.672	24.9834
12.0347	981.7688	25.00293
12.0358	975.702	25.0225
12.0386	995.529	25.042
12.0406	986.795	25.0615
12.0416	974.613	25.0811
12.0435	995.6897	25.1006
12.0445	992.341	25.1201
12.0469	975.343	25.1396
12.048	990.18	25.15918
12.0503	996.499	25.1787
12.05037	978.637	25.1982
12.0529	989.059	25.2178
12.0533	996.033	25.2373
12.0557	984.76	25.2568
12.0575	983.365	25.2764
12.0589	999.651	25.2959
12.0603	988.039	25.31543
12.062	983.591	25.335
12.0635	998.653	25.3545
12.0662	996.031	25.374
12.0669	979.54	25.3936
12.0684	998.801	25.4131
12.0708	998.14	25.4326
12.0722	985.343	25.4521
12.074	994.303	25.47168
12.075	1004.1	25.4912
12.077	983.863	25.5107
12.0796	993.144	25.5303
12.0809	1006.08	25.5498
12.08195	988.1026	25.5693
12.08388	986.8147	25.5889
12.0853	1007.92	25.6084
12.08638	993.3252	25.62793
12.0894	987.351	25.6475
12.0894	1006.97	25.667
12.0918	998.496	25.6865
12.09349	986.531	25.7061
12.0946	1005.1	25.7256
12.0963	1003.18	25.7451
12.0996	987.201	25.7646
12.1	1004.65	25.78418
12.1018	1007.63	25.8037
12.1026	990.072	25.8232
12.1035	997.6012	25.8428
12.107	1013.49	25.8623
12.1082	994.535	25.8818
12.1092	998.12	25.9014
12.1119	1006.85	25.9209
12.11236	999.954	25.94043
12.115	994.801	25.96
12.1166	1013.59	25.9795
12.1185	1003.83	25.999
12.12	993.0025	26.0186
12.1207	1008.42	26.0381
12.1225	1009.95	26.0576
12.125	993.2392	26.0771
12.1267	1007.37	26.09668
12.1276	1012.01	26.1162
12.1296	995.746	26.1357
12.1304	1001.26	26.1553
12.13287	1015.56	26.1748
12.1335	997.055	26.1943
12.1364	1000.49	26.2139
12.1374	1017.62	26.2334
12.1396	1004.15	26.25293
12.1404	994.572	26.2725
12.1423	1017.32	26.292
12.1437	1007.91	26.3115
12.1446	997.052	26.3311
12.1478	1013.87	26.3506
12.1483	1010.16	26.3701
12.1509	996.001	26.3896
12.1517	1012.62	26.40918
12.15365	1016.47	26.4287
12.1545	997.201	26.4482
12.1576	1010.31	26.4678
12.1592	1019.174	26.4873
12.1593	1004.399	26.5068
12.1629	1004.38	26.5264
12.1639	1019.32	26.5459
12.1646	1007.15	26.56543
12.1665	1005.69	26.585
12.1683	1017.76	26.6045
12.1699	1011.11	26.624
12.1712	1001.67	26.6436
12.1737	1019.02	26.6631
12.1738	1019.07	26.6826
12.1764	1002.85	26.7021
12.178	1013.386	26.72168
12.1805	1024.17	26.7412
12.1811	1003.07	26.7607
12.1823	1012.87	26.7803
12.1847	1024.74	26.7998
12.1873	1007.78	26.8193
12.1871	1007.61	26.8389
12.1891	1026.556	26.8584
12.1907	1009.38	26.87793
12.1916	1006.66	26.8975
12.1949	1025.88	26.917
12.1961	1017.265	26.9365
12.1977	1004.06	26.9561
12.1987	1023.31	26.9756
12.2008	1020.63	26.9951
12.202	1006.17	27.0146
12.2033	1021.21	27.03418
12.206	1023.34	27.0537
12.2077	1005.98	27.0732
12.2095	1015.91	27.0928
12.2109	1027.74	27.1123
12.2118	1009.05	27.1318
12.2138	1014.37	27.1514
12.2148	1026.01	27.1709
12.2174	1015.7	27.19043
12.21826	1009.52	27.21
12.2197	1027.7	27.2295
12.2227	1019.44	27.249
12.224	1012.61	27.2686
12.2254	1024.43	27.2881
12.2265	1023.94	27.3076
12.2285	1008.96	27.3271
12.2307	1023.94	27.34668
12.231	1029.05	27.3662
12.2329	1012.22	27.3857
12.2346	1016.33	27.4053
12.2361	1031.11	27.4248
12.2384	1013.3	27.4443
12.2398	1018.14	27.4639
12.2411	1031.57	27.4834
12.2438	1018.56	27.50293
12.2453	1012.21	27.5225
12.2468	1032.87	27.542
12.2476	1021.12	27.5615
12.2508	1011.92	27.5811
12.2501	1030.81	27.6006
12.2524	1028.74	27.6201
12.255	1011.29	27.6396
12.2563	1028.75	27.65918
12.25813	1030.4	27.6787
12.2603	1014.11	27.6982
12.2613	1024.87	27.7178
12.2635	1033.59	27.7373
12.2647	1014.54	27.7568
12.2656	1019.647	27.7764
12.2666	1035.71	27.7959
12.2697	1020.98	27.81543
12.2706	1016.61	27.835
12.2717	1033.74	27.8545
12.274	1025.11	27.874
12.2758	1014.82	27.8936
12.2772	1032.66	27.9131
12.2794	1029.24	27.9326
12.2809	1017	27.9521
12.2819	1027.88	27.97168
12.2832	1035.15	27.9912
12.28604	1016.27	28.0107
12.2877	1025.92	28.0303
12.2887	1037.17	28.0498
12.2906	1022.96	28.0693
12.2926	1019.05	28.0889
12.2937	1038.93	28.1084
12.29524	1022.567	28.12793
12.296	1022.21	28.1475
12.2986	1038.55	28.167
12.30023	1028.73	28.1865
12.3027	1015.41	28.2061
12.3029	1037.72	28.2256
12.3045	1031.68	28.2451
12.30748	1018.37	28.2646
12.3092	1032.626	28.28418
12.3097	1036.48	28.3037
12.31144	1017.75	28.3232
12.3132	1029.17	28.3428
12.3147	1036.97	28.3623
12.31599	1020.93	28.3818
12.3182	1027.46	28.4014
12.3197	1040.75	28.4209
12.3215	1023.96	28.44043
12.3226	1021.407	28.46
12.3248	1040.13	28.4795
12.3257	1030.08	28.499
12.3267	1021.36	28.5186
12.3297	1035.54	28.5381
12.33093	1034.22	28.5576
12.3326	1022.08	28.5771
12.3341	1034.661	28.59668
12.33545	1038.651	28.6162
12.3372	1023.62	28.6357
12.3397	1030.57	28.6553
12.3404	1042.88	28.6748
12.34225	1022.68	28.6943
12.3446	1026.9	28.7139
12.3452	1041.71	28.7334
12.34709	1030.93	28.75293
12.3495	1022.4	28.7725
12.3502	1042.389	28.792
12.35301	1031.52	28.8115
12.3537	1023.127	28.8311
12.3556	1040.68	28.8506
12.35668	1037.51	28.8701
12.3572	1018.72	28.8896
12.3597	1039.42	28.90918
12.3629	1040.59	28.9287
12.3638	1023.73	28.9482
12.36473	1032.59	28.9678
12.3662	1042.85	28.9873
12.3693	1024.82	29.0068
12.3702	1032.66	29.0264
12.3711	1044.09	29.0459
12.3726	1029.42	29.06543
12.3752	1027.7	29.085
12.376	1045.3	29.1045
12.3787	1034.42	29.124
12.3803	1025.48	29.1436
12.3817	1041.54	29.1631
12.3828	1038.72	29.1826
12.3836	1025.96	29.2021
12.3858	1036.001	29.22168
12.3876	1041.82	29.2412
12.3899	1025.79	29.2607
12.3906	1035.64	29.2803
12.3929	1045.29	29.2998
12.3937	1029.07	29.3193
12.3961	1029.99	29.3389
12.3983	1048.34	29.3584
12.3989	1030.48	29.37793
12.40043	1027.03	29.3975
12.4026	1044.25	29.417
12.4043	1037.77	29.4365
12.40516	1023.09	29.4561
12.4078	1043.84	29.4756
12.4095	1036.1	29.4951
12.41009	1027.49	29.5146
12.4129	1041.44	29.53418
12.4138	1046.25	29.5537
12.4156	1022.03	29.5732
12.4171	1037.97	29.5928
12.4191	1044.2	29.6123
12.4204	1030.14	29.6318
12.4221	1032.88	29.6514
12.42435	1047.96	29.6709
12.4252	1030.4	29.69043
12.4277	1030.54	29.71
12.4288	1045.56	29.7295
12.43	1036.557	29.749
12.4319	1027.84	29.7686
12.434	1044.77	29.7881
12.436	1041.37	29.8076
12.4373	1026.499	29.8271
12.4388	1038.739	29.84668
12.4405	1044.32	29.8662
12.4408	1031.03	29.8857
12.4444	1035.42	29.9053
12.4447	1046.63	29.9248
12.4459	1029.67	29.9443
12.4485	1033.42	29.9639
12.4504	1048.37	29.9834
12.4517	1034.58	30.00293
12.4533	1026.36	30.0225
12.454	1047.67	30.042
12.4576	1037.63	30.0615
12.458	1029.373	30.0811
12.46	1044.71	30.1006
12.4602	1043.63	30.1201
12.4629	1025.82	30.1396
12.4645	1044.79	30.15918
12.4657	1044.16	30.1787
12.4677	1027.8	30.1982
12.4693	1039.7	30.2178
12.4709	1050.11	30.2373
12.4718	1027.95	30.2568
12.4743	1034.51	30.2764
12.4756	1048.75	30.2959
12.478	1037.43	30.31543
12.4792	1033.35	30.335
12.48053	1048.56	30.3545
12.4828	1036.2	30.374
12.48367	1030.94	30.3936
12.4865	1046.35	30.4131
12.4861	1043.5	30.4326
12.48916	1029.44	30.4521
12.4908	1042.29	30.47168
12.4928	1045.72	30.4912
12.4936	1030.6	30.5107
12.4962	1038.26	30.5303
12.4955	1047.72	30.5498
12.4985	1034.45	30.5693
12.5003	1035.226	30.5889
12.5014	1048.02	30.6084
12.5042	1033.38	30.62793
12.5048	1034.147	30.6475
12.5067	1049.6	30.667
12.508	1041.39	30.6865
12.5095	1026.27	30.7061
12.5121	1047.27	30.7256
12.5135	1043.04	30.7451
12.5152	1031.29	30.7646
12.5161	1042.77	30.78418
12.5189	1048.62	30.8037
12.5213	1028.8	30.8232
12.5214	1041.75	30.8428
12.5233	1050.19	30.8623
12.5251	1032.81	30.8818
12.5267	1037.67	30.9014
12.5276	1052	30.9209
12.5292	1035.21	30.94043
12.5313	1034.4	30.96
12.5333	1048.46	30.9795
12.5343	1040.59	30.999
12.5364	1032.56	31.0186
12.5368	1049.51	31.0381
12.5394	1043.36	31.0576
12.5413	1031.558	31.0771
12.5424	1044.48	31.09668
12.5446	1049.12	31.1162
12.5459	1031.7	31.1357
12.5481	1039.3	31.1553
12.549	1048.67	31.1748
12.5508	1035.49	31.1943
12.5527	1037	31.2139
12.5548	1048.98	31.2334
12.55582	1038.56	31.25293
12.55641	1032.3	31.2725
12.5591	1050.5	31.292
12.5603	1039.851	31.3115
12.562	1031.85	31.3311
12.5649	1047.51	31.3506
12.5649	1047.074	31.3701
12.5666	1028.16	31.3896
12.5682	1044.814	31.40918
12.5712	1048.385	31.4287
12.5706	1033.92	31.4482
12.5742	1043.13	31.4678
12.5753	1053.3	31.4873
12.57659	1031.2	31.5068
12.5792	1040.52	31.5264
12.5797	1051.709	31.5459
12.58182	1038.728	31.56543
12.5827	1034.968	31.585
12.585	1052.44	31.6045
12.5869	1039.21	31.624
12.5882	1033.82	31.6436
12.58969	1046.65	31.6631
12.5908	1045.333	31.6826
12.59387	1034.23	31.7021
12.5942	1047.49	31.72168
12.5969	1046.05	31.7412
12.59852	1033.55	31.7607
12.5994	1041.44	31.7803
12.6005	1053.74	31.7998
12.6029	1036.26	31.8193
12.6038	1035.71	31.8389
12.6072	1048.56	31.8584
12.6081	1040.24	31.87793
12.609	1034.73	31.8975
12.611	1048.5	31.917
12.613	1043.98	31.9365
12.6153	1032.89	31.9561
12.6162	1050.1	31.9756
12.6176	1046.16	31.9951
12.6194	1031.32	32.0146
12.62	1044.69	32.03418
12.6224	1051.1	32.0537
12.6242	1031.88	32.0732
12.6253	1040.9	32.0928
[...]
14.5463	1027.925	55.1396
14.547	1039.57	55.15918
14.5486	1041.52	55.1787
14.552	1024.54	55.1982
14.5522	1036.65	55.2178
14.5538	1044.27	55.2373
14.5559	1028.67	55.2568
14.5566	1033.93	55.2764
14.558	1045.89	55.2959
14.561	1031.11	55.31543
14.5629	1031.75	55.335
14.5637	1043.49	55.3545
14.5653	1034.94	55.374
14.5671	1030.317	55.3936
14.56846	1042.97	55.4131
14.5704	1036.1	55.4326
14.5718	1025.96	55.4521
14.5735	1040.4	55.47168
14.5749	1041.55	55.4912
14.5769	1028.65	55.5107
14.578	1033.44	55.5303
14.5797	1044.58	55.5498
14.5805	1029.51	55.5693
14.5834	1034.2	55.5889
14.584	1045.06	55.6084
14.5863	1031.89	55.62793
14.58765	1028.67	55.6475
14.5894	1046.87	55.667
14.5914	1034	55.6865
14.5926	1027.88	55.7061
14.5942	1043.29	55.7256
14.5968	1040.47	55.7451
14.5979	1023.1	55.7646
14.5989	1039.66	55.78418
14.6016	1040.66	55.8037
14.6027	1027.32	55.8232
14.60397	1038.05	55.8428
14.6064	1043.6	55.8623
14.6073	1024.428	55.8818
14.6091	1033.71	55.9014
14.6105	1044.38	55.9209
14.6128	1030.26	55.94043
14.6143	1029.03	55.96
14.6156	1044.41	55.9795
14.6184	1033.96	55.999
14.6189	1027.5	56.0186
14.6196	1041.59	56.0381
14.6223	1037.49	56.0576
14.6231	1028.99	56.0771
14.62617	1038.04	56.09668
14.6265	1041.582	56.1162
14.6283	1024.71	56.1357
14.6312	1035.25	56.1553
14.63018	1044.11	56.1748
14.63374	1029.35	56.1943
14.6342	1030.48	56.2139
14.6364	1044.25	56.2334
14.6381	1029.99	56.25293
14.6404	1030.52	56.2725
14.6413	1044.8	56.292
14.6432	1037.42	56.3115
14.6463	1024.43	56.3311
14.6469	1044.81	56.3506
14.6487	1037.844	56.3701
14.6487	1026.93	56.3896
14.65042	1040.28	56.40918
14.6534	1043.37	56.4287
14.65437	1024.22	56.4482
14.6563	1037.39	56.4678
14.6581	1041.76	56.4873
14.65947	1029.66	56.5068
14.66148	1034.72	56.5264
14.6623	1045.22	56.5459
14.66388	1027.75	56.56543
14.6659	1030.57	56.585
14.6671	1044.26	56.6045
14.6691	1033.19	56.624
14.6717	1027.95	56.6436
14.6723	1039.89	56.6631
14.6746	1037.6	56.6826
14.6763	1027.24	56.7021
14.6782	1039.39	56.72168
14.6788	1039.49	56.7412
14.6808	1026.932	56.7607
14.6825	1033.82	56.7803
14.6837	1044.53	56.7998
14.6861	1026.72	56.8193
14.6873	1031.11	56.8389
14.6885	1043.94	56.8584
14.6911	1032.17	56.87793
14.6925	1027.64	56.8975
14.694	1044.26	56.917
14.696	1031.94	56.9365
14.6971	1028.57	56.9561
14.6989	1042.17	56.9756
14.6996	1039.14	56.9951
14.7021	1023.91	57.0146
14.7037	1039.72	57.03418
14.70509	1041.56	57.0537
14.7066	1024.91	57.0732
14.7087	1035.52	57.0928
14.7096	1043.78	57.1123
14.7118	1026.51	57.1318
14.713	1033.69	57.1514
14.7148	1040.866	57.1709
14.7166	1029.692	57.19043
14.7178	1029.542	57.21
14.7193	1043.8	57.2295
14.72099	1031.36	57.249
14.7235	1027.196	57.2686
14.7249	1040.96	57.2881
14.7262	1037.83	57.3076
14.7273	1027.31	57.3271
14.7293	1036.79	57.34668
14.7297	1039.37	57.3662
14.7328	1027.18	57.3857
14.734	1035.9	57.4053
14.7359	1041.06	57.4248
14.7371	1029.14	57.4443
14.7391	1029.48	57.4639
14.7409	1044.92	57.4834
14.742	1030.24	57.50293
14.7443	1027.42	57.5225
14.7473	1043.17	57.542
14.7473	1035.27	57.5615
14.7498	1024.33	57.5811
14.7507	1041.174	57.6006
14.75151	1036.25	57.6201
14.7535	1026.47	57.6396
14.7565	1040.97	57.65918
14.7567	1041.707	57.6787
14.7586	1022.05	57.6982
14.7608	1037.11	57.7178
14.7619	1042.46	57.7373
14.7649	1028.39	57.7568
14.7649	1030.63	57.7764
14.7673	1043.27	57.7959
14.76902	1028.63	57.81543
14.7702	1029.87	57.835
14.7717	1041.75	57.8545
14.7733	1032.68	57.874
14.7734	1026.71	57.8936
14.7764	1042.01	57.9131
14.777	1035.14	57.9326
14.7796	1026.2	57.9521
14.7817	1036.77	57.97168
14.7832	1039.79	57.9912
14.7847	1027.58	58.0107
14.7872	1033.83	58.0303
14.78774	1040.7	58.0498
14.7901	1027.5	58.0693
14.7903	1033.32	58.0889
14.7933	1042.83	58.1084
14.79474	1029.72	58.12793
14.7961	1027	58.1475
14.7977	1043.75	58.167
14.7989	1032.98	58.1865
14.8005	1026.65	58.2061
14.8019	1040.21	58.2256
14.8053	1038.31	58.2451
14.8052	1023.53	58.2646
14.8079	1040.09	58.28418
14.809	1038.15	58.3037
14.8112	1026.29	58.3232
14.8122	1035.83	58.3428
14.8145	1043.64	58.3623
14.8173	1023.57	58.3818
14.8171	1032.64	58.4014
14.8183	1043.56	58.4209
14.82083	1031.93	58.44043
14.8233	1028.42	58.46
14.8244	1043.05	58.4795
14.8252	1029.59	58.499
14.82721	1028.13	58.5186
14.8288	1041.23	58.5381
14.8311	1034.14	58.5576
14.8326	1026.61	58.5771
14.8339	1039.31	58.59668
14.8351	1039.18	58.6162
14.83674	1025.86	58.6357
14.838	1033.81	58.6553
14.8403	1041.51	58.6748
14.8415	1029.36	58.6943
14.8432	1029.59	58.7139
14.8444	1043.18	58.7334
14.8467	1028.7	58.75293
14.8485	1028.1	58.7725
14.8501	1043.16	58.792
14.8514	1034.12	58.8115
14.8527	1023.29	58.8311
14.8557	1043.78	58.8506
14.8573	1036.108	58.8701
14.8582	1025.35	58.8896
14.8597	1037.83	58.90918
14.8618	1040.44	58.9287
14.8631	1022.6	58.9482
14.8645	1036.13	58.9678
14.8664	1039.38	58.9873
14.868	1027.22	59.0068
14.8698	1032.17	59.0264
14.8712	1044.46	59.0459
14.8726	1026.67	59.06543
14.8739	1027.89	59.085
14.8764	1041.23	59.1045
14.879	1034.07	59.124
14.8782	1026.27	59.1436
14.8802	1039.58	59.1631
14.8825	1033.42	59.1826
14.8838	1026.09	59.2021
14.8852	1038.09	59.22168
14.8884	1038.68	59.2412
14.8888	1025.34	59.2607
14.8912	1034.81	59.2803
14.8925	1041.92	59.2998
14.894	1026.93	59.3193
14.8948	1030.77	59.3389
14.8961	1041.79	59.3584
14.8991	1030.69	59.37793
14.90064	1025.772	59.3975
14.9014	1042.63	59.417
14.9033	1032.54	59.4365
14.905	1025.67	59.4561
14.907	1039.21	59.4756
14.9089	1036.78	59.4951
14.9099	1019.43	59.5146
14.9116	1039.83	59.53418
14.913	1038.31	59.5537
14.9146	1025.33	59.5732
14.9174	1034.35	59.5928
14.9196	1040.27	59.6123
14.9206	1023.4	59.6318
14.9207	1031.56	59.6514
14.9237	1040.7	59.6709
14.9249	1029.33	59.69043
14.9267	1028.71	59.71
14.9276	1043.75	59.7295
14.9303	1028.63	59.749
14.932	1025.34	59.7686
14.9335	1038.25	59.7881
14.934	1037.41	59.8076
14.9356	1025.54	59.8271
14.9387	1038.03	59.84668
14.93855	1035.43	59.8662
14.94083	1024.51	59.8857
14.9422	1034.57	59.9053
14.9431	1039.75	59.9248
14.9454	1025.33	59.9443
14.9475	1027.61	59.9639
14.9493	1041.386	59.9834
14.9503	1029.98	60.00293
14.95185	1024.74	60.0127

Data Header:			0.254_solid_uprint_typei_4545_r0			Time:	65.54541	s	4/14/2019 4:26:13 AM
Data Acquisition:	Timed
Station Name:	ft40.cfg
Test File Name:	monotonic_0.2540_typei_solid_4545_uprint.tst
Displacement	Force	Running Time
mm	N	s
14.9529	1025.46	60.0225
14.9536	1033.11	60.0322
14.954	1038.93	60.042
14.955	1040.95	60.0518
14.95573	1032.45	60.0615
14.9559	1022.53	60.0713
14.9576	1023.43	60.0811
14.9588	1031.3	60.09082
14.9594	1038.14	60.1006
14.9596	1042.9	60.1104
14.9604	1034.15	60.1201
14.961	1027.26	60.1299
14.9626	1023.54	60.1396
14.9629	1026.24	60.1494
14.9627	1037.26	60.15918
14.9649	1040.8	60.1689
14.9658	1041.11	60.1787
14.9665	1028.65	60.1885
14.9674	1020.44	60.1982
14.969	1026.53	60.208
14.9695	1035.51	60.2178
14.97	1040.94	60.2275
14.9704	1040.55	60.2373
14.9711	1032.58	60.24707
14.9719	1026.1	60.2568
14.9718	1021.27	60.2666
14.97377	1030.52	60.2764
14.9741	1039.21	60.2861
14.9755	1043.91	60.2959
14.9758	1038.23	60.3057
14.9772	1025.74	60.31543
14.9785	1022.94	60.3252
14.9771	1029.15	60.335
14.9801	1034.64	60.3447
14.98035	1041.77	60.3545
14.98054	1038.07	60.3643
14.9828	1032.81	60.374
14.9833	1025.46	60.3838
14.9822	1024.2	60.3936
14.9848	1030.07	60.40332
14.98466	1041.27	60.4131
14.9869	1040.861	60.4229
14.9863	1033.69	60.4326
14.9879	1025.23	60.4424
14.9876	1023.59	60.4521
14.9893	1029.826	60.4619
14.9903	1034.74	60.47168
14.9912	1039.75	60.4814
14.9911	1037.08	60.4912
14.9925	1030.91	60.501
14.9943	1024.437	60.5107
14.9946	1024.21	60.5205
14.995	1031.39	60.5303
14.9949	1041.21	60.54
14.9958	1037.235	60.5498
14.9975	1033.15	60.55957
14.9982	1024.608	60.5693
14.9981	1024.5	60.5791
14.9995	1031	60.5889
14.9998	1034.54	60.5986
15.001	1042.29	60.6084
15.002	1037.42	60.6182
15.0025	1029.27	60.62793
15.0043	1022.21	60.6377
15.0044	1023.89	60.6475
15.0055	1035.29	60.6572
15.006	1041.198	60.667
15.0072	1039.5	60.6768
15.0072	1033.17	60.6865
15.0088	1023.45	60.6963
15.0097	1024.94	60.7061
15.0101	1029.66	60.71582
15.0106	1036.72	60.7256
15.0115	1044.23	60.7354
15.0119	1037.4	60.7451
15.0139	1026.35	60.7549
15.0144	1020.58	60.7646
15.0144	1026.84	60.7744
15.0164	1037.65	60.78418
15.017	1041.11	60.7939
15.0178	1035.3	60.8037
15.0188	1030.02	60.8135
15.0199	1023.35	60.8232
15.0201	1023.04	60.833
15.0206	1033.71	60.8428
15.0206	1040.46	60.8525
15.022	1042.26	60.8623
15.0233	1032.401	60.87207
15.023	1022.87	60.8818
15.0252	1022.81	60.8916
15.0263	1030.432	60.9014
15.026	1039.68	60.9111
15.0274	1041.28	60.9209
15.0286	1035.11	60.9307
15.0283	1027.98	60.94043
15.02891	1021.54	60.9502
15.02993	1026.43	60.96
15.0311	1033.39	60.9697
15.032	1040.93	60.9795
15.0324	1039.91	60.9893
15.0339	1029.072	60.999
15.0346	1022.56	61.0088
15.0357	1026.62	61.0186
15.036	1029.81	61.02832
15.0378	1037.04	61.0381
15.0387	1037.4	61.0479
15.0387	1033.49	61.0576
15.0404	1026.29	61.0674
15.0414	1021.64	61.0771
15.0406	1027.24	61.0869
15.0424	1036.57	61.09668
15.0422	1040.97	61.1064
15.0441	1035.53	61.1162
15.0454	1029.03	61.126
15.0447	1025.24	61.1357
15.0456	1026.08	61.1455
15.0467	1030.811	61.1553
15.0475	1036.62	61.165
15.0482	1039.09	61.1748
15.0497	1034.21	61.18457
15.0498	1025.8	61.1943
15.0505	1019.86	61.2041
15.0516	1027.78	61.2139
15.0522	1037	61.2236
15.0531	1038.05	61.2334
15.0545	1036.71	61.2432
15.0545	1027.22	61.25293
15.0561	1024.109	61.2627
15.0558	1025.43	61.2725
15.0572	1029.786	61.2822
15.05883	1040.79	61.292
15.0582	1039.16	61.3018
15.0597	1032.43	61.3115
15.0607	1023.08	61.3213
15.061	1020.88	61.3311
15.0623	1030.64	61.34082
15.063	1036.319	61.3506
15.0644	1041.91	61.3604
15.065	1032.93	61.3701
15.0659	1024.71	61.3799
15.0675	1022.9	61.3896
15.0674	1025.46	61.3994
15.0675	1033.24	61.40918
15.0701	1043.24	61.4189
15.0696	1037.931	61.4287
15.0699	1027.918	61.4385
15.0708	1018.71	61.4482
15.073	1022.31	61.458
15.07209	1033.03	61.4678
15.0739	1039.36	61.4775
15.0747	1038.75	61.4873
15.0743	1032.27	61.49707
15.0763	1023.52	61.5068
15.0771	1021.31	61.5166
15.078	1028.74	61.5264
15.0777	1036.86	61.5361
15.07901	1042.55	61.5459
15.0805	1035.34	61.5557
15.08	1025.01	61.56543
15.08182	1020.967	61.5752
15.0828	1025.76	61.585
15.0831	1035.957	61.5947
15.0841	1037.149	61.6045
15.0854	1037.85	61.6143
15.08631	1032.11	61.624
15.0868	1020.23	61.6338
15.0873	1024.1	61.6436
15.0884	1028.938	61.65332
15.0894	1039.14	61.6631
15.0899	1039.56	61.6729
15.0895	1029.55	61.6826
15.0924	1025.26	61.6924
15.0922	1023.1	61.7021
15.0933	1027.16	61.7119
15.0941	1035.47	61.72168
15.0939	1038.19	61.7314
15.0955	1037.27	61.7412
15.0972	1029.26	61.751
15.09672	1020.65	61.7607
15.0973	1023.37	61.7705
15.0985	1031.06	61.7803
15.1002	1039.02	61.79
15.1007	1035.51	61.7998
15.1005	1029.66	61.80957
15.1017	1025.95	61.8193
15.1031	1023.728	61.8291
15.1037	1026.87	61.8389
15.104	1034.93	61.8486
15.1058	1037.8	61.8584
15.10598	1037.42	61.8682
15.1073	1027.8	61.87793
15.1073	1019.97	61.8877
15.1095	1023.2	61.8975
15.1094	1034.934	61.9072
15.1108	1038	61.917
15.1107	1038.53	61.9268
15.1123	1029.16	61.9365
15.1124	1025.02	61.9463
15.1131	1020.37	61.9561
15.1144	1025.23	61.96582
15.1153	1037.063	61.9756
15.1158	1039.71	61.9854
15.1162	1034.98	61.9951
15.1178	1024.02	62.0049
15.1187	1019.15	62.0146
15.1195	1026.82	62.0244
15.1201	1034.56	62.03418
15.1212	1040.28	62.0439
15.1222	1036.84	62.0537
15.122	1027.68	62.0635
15.1226	1023.02	62.0732
15.1248	1020.38	62.083
15.1253	1030.87	62.0928
15.1249	1039.77	62.1025
15.1259	1040.51	62.1123
15.1274	1031.4	62.12207
15.1287	1020.43	62.1318
15.1286	1021.86	62.1416
15.1301	1028.48	62.1514
15.1304	1036.82	62.1611
15.1304	1039.72	62.1709
15.1323	1035.81	62.1807
15.1329	1025.879	62.19043
15.134	1018.79	62.2002
15.13353	1023.7	62.21
15.1354	1032.55	62.2197
15.1357	1040.26	62.2295
15.1378	1037.51	62.2393
15.1382	1025.34	62.249
15.1384	1021.36	62.2588
15.139	1024.27	62.2686
15.1407	1031.1	62.27832
15.1408	1036.05	62.2881
15.1422	1038.68	62.2979
15.144	1033.13	62.3076
15.1425	1022.668	62.3174
15.1441	1022.45	62.3271
15.1451	1025.24	62.3369
15.1461	1035.5	62.34668
15.1455	1040.03	62.3564
15.1483	1032.9	62.3662
15.149	1026.74	62.376
15.1496	1021.68	62.3857
15.15	1024.81	62.3955
15.15097	1029.04	62.4053
15.1515	1035.58	62.415
15.1518	1039.03	62.4248
15.1539	1031.84	62.43457
15.1535	1023.73	62.4443
15.1557	1021.773	62.4541
15.1553	1024.58	62.4639
15.1568	1035.21	62.4736
15.1578	1037.4	62.4834
15.1585	1032.21	62.4932
15.1588	1025.546	62.50293
15.1605	1020.85	62.5127
15.1603	1024	62.5225
15.1613	1028.96	62.5322
15.1623	1037.48	62.542
15.163	1038.48	62.5518
15.1649	1029.65	62.5615
15.1646	1018.24	62.5713
15.16578	1021.37	62.5811
15.1671	1027.83	62.59082
15.1665	1034.93	62.6006
15.1675	1039.28	62.6104
15.1687	1031.76	62.6201
15.17	1025.017	62.6299
15.1698	1019.28	62.6396
15.1714	1022.09	62.6494
15.1721	1031.38	62.65918
15.1732	1038.13	62.6689
15.1739	1036.19	62.6787
15.17459	1025.09	62.6885
15.1759	1018.505	62.6982
15.1763	1021.5	62.708
15.1772	1027.48	62.7178
15.17723	1038.21	62.7275
15.1788	1035.26	62.7373
15.1796	1029.13	62.74707
15.1794	1022.32	62.7568
15.1806	1017.08	62.7666
15.1818	1025.38	62.7764
15.1825	1035.31	62.7861
15.1833	1038.8	62.7959
15.1843	1033.56	62.8057
15.1856	1021.45	62.81543
15.1858	1018.43	62.8252
15.188	1024.05	62.835
15.1871	1031.32	62.8447
15.1879	1037.5	62.8545
15.1896	1035.05	62.8643
15.1902	1028.46	62.874
15.191	1019.86	62.8838
15.1908	1019.338	62.8936
15.1923	1028.66	62.90332
15.19331	1036.71	62.9131
15.1933	1037.05	62.9229
15.1932	1030.95	62.9326
15.1964	1019.54	62.9424
15.1963	1021.04	62.9521
15.1974	1024.84	62.9619
15.1983	1029.51	62.97168
15.1984	1036.29	62.9814
15.19865	1032.97	62.9912
15.2011	1026.64	63.001
15.2011	1019.63	63.0107
15.2021	1019.02	63.0205
15.2036	1029.106	63.0303
15.2038	1035.6	63.04
15.2057	1033.89	63.0498
15.2058	1028.31	63.05957
15.2058	1021.4	63.0693
15.2066	1021.18	63.0791
15.208	1023.48	63.0889
15.2081	1030.11	63.0986
15.2102	1037.15	63.1084
15.2099	1031.49	63.1182
15.20982	1023.65	63.12793
15.212	1017.64	63.1377
15.2135	1020.463	63.1475
15.2128	1031.01	63.1572
15.2141	1033.79	63.167
15.2156	1035.8	63.1768
15.2163	1027.3	63.1865
15.2168	1018.8	63.1963
15.2175	1019.35	63.2061
15.2177	1022.01	63.21582
15.2187	1032.2	63.2256
15.2201	1037.62	63.2354
15.21989	1029.8	63.2451
15.2216	1020.41	63.2549
15.2225	1016.72	63.2646
15.2228	1020.83	63.2744
15.2245	1030.443	63.28418
15.2239	1035.32	63.2939
15.2258	1031.717	63.3037
15.22632	1023.44	63.3135
15.2273	1015.697	63.3232
15.2288	1016.5	63.333
15.2286	1026.47	63.3428
15.2296	1034.45	63.3525
15.231	1035.02	63.3623
15.231	1023.73	63.37207
15.2329	1016.61	63.3818
15.23374	1015.36	63.3916
15.2349	1021.87	63.4014
15.2353	1031.57	63.4111
15.2356	1032.67	63.4209
15.2362	1029.77	63.4307
15.2386	1019.32	63.44043
15.2382	1011.09	63.4502
15.2386	1018.34	63.46
15.24	1027.484	63.4697
15.24077	1032.55	63.4795
15.2414	1029.89	63.4893
15.2422	1018.49	63.499
15.2429	1014.067	63.5088
15.2442	1015.12	63.5186
15.2444	1022.37	63.52832
15.2455	1029.68	63.5381
15.2458	1030.4	63.5479
15.2465	1025.64	63.5576
15.2485	1014.14	63.5674
15.2491	1012.07	63.5771
15.2489	1017.43	63.5869
15.25016	1024.53	63.59668
15.2509	1029.88	63.6064
15.2526	1023.63	63.6162
15.25332	1016.04	63.626
15.2541	1013.73	63.6357
15.2545	1014.89	63.6455
15.25529	1019.32	63.6553
15.2551	1026.87	63.665
15.2576	1026.38	63.6748
15.2573	1020.13	63.68457
15.2582	1012.35	63.6943
15.259	1007.41	63.7041
15.2605	1017.25	63.7139
15.2602	1023.48	63.7236
15.2612	1024.45	63.7334
15.2622	1021.49	63.7432
15.2626	1012.87	63.75293
15.2632	1010.208	63.7627
15.2656	1009.34	63.7725
15.266	1017.03	63.7822
15.2667	1023.9	63.792
15.2667	1016.63	63.8018
15.2682	1004.85	63.8115
15.27763	-264.79	63.8213
15.2755	20.2599	63.8311
15.2774	-50.8939	63.84082
15.2769	-30.2593	63.8506
15.2771	-29.8199	63.8604
15.276	-32.7051	63.8701
15.2779	-47.8823	63.8799
15.2781	-48.6555	63.8896
15.2782	-48.8129	63.8994
15.27857	-37.9017	63.90918
15.2787	-24.1949	63.9189
15.2797	-32.0126	63.9287
15.2808	-39.9949	63.9385
15.28124	-52.1968	63.9482
15.2812	-49.87056	63.958
15.2822	-41.7008	63.9678
15.2834	-32.6618	63.9775
15.2837	-28.0901	63.9873
15.2853	-33.9091	63.99707
15.2848	-48.66193	64.0068
15.2852	-54.4828	64.0166
15.2866	-48.3992	64.0264
15.2872	-33.5356	64.0361
15.2887	-26.75351	64.0459
15.2893	-34.1591	64.0557
15.29	-44.8378	64.06543
15.2914	-51.5648	64.0752
15.2924	-47.3416	64.085
15.293	-38.5166	64.0947
15.2936	-31.0547	64.1045
15.2936	-27.8053	64.1143
15.2956	-39.1343	64.124
15.2947	-50.7331	64.1338
15.2968	-49.8226	64.1436
15.2976	-43.5735	64.15332
15.2975	-31.10788	64.1631
15.2992	-29.2167	64.1729
15.3004	-38.2916	64.1826
15.3011	-45.9891	64.1924
15.3012	-49.9895	64.2021
15.3034	-44.6649	64.2119
15.3037	-38.0406	64.22168
15.3044	-30.1256	64.2314
15.3051	-30.4844	64.2412
15.3063	-42.85759	64.251
15.3057	-49.2493	64.2607
15.3068	-48.6855	64.2705
15.3078	-41.2388	64.2803
15.3088	-32.5317	64.29
15.3102	-33.121	64.2998
15.3102	-38.3733	64.30957
15.3119	-45.2874	64.3193
15.31184	-50.4897	64.3291
15.3122	-45.8834	64.3389
15.3129	-35.6331	64.3486
15.3149	-30.6714	64.3584
15.3146	-34.3898	64.3682
15.3154	-43.28508	64.37793
15.3167	-50.0215	64.3877
15.3174	-46.8307	64.3975
15.3172	-39.5629	64.4072
15.3197	-32.56731	64.417
15.32	-33.1357	64.4268
15.3211	-40.7767	64.4365
15.3221	-45.7891	64.4463
15.3221	-50.47052	64.4561
15.3235	-44.7067	64.46582
15.3238	-34.6604	64.4756
15.3241	-30.4599	64.4854
15.3252	-34.3848	64.4951
15.3268	-47.6033	64.5049
15.3271	-49.4518	64.5146
15.3291	-44.2219	64.5244
15.3288	-40.0095	64.53418
15.3298	-29.1031	64.5439
15.33007	-33.79	64.5537
15.3317	-40.7855	64.5635
15.3316	-47.4832	64.5732
15.33275	-51.8299	64.583
15.3332	-40.1509	64.5928
15.335	-29.908	64.6025
15.3355	-30.77961	64.6123
15.3356	-37.8161	64.62207
15.3376	-48.4626	64.6318
15.3371	-47.6759	64.6416
15.3389	-43.42815	64.6514
15.341	-35.1459	64.6611
15.3403	-31.4486	64.6709
15.3405	-35.2875	64.6807
15.3405	-43.439	64.69043
15.3414	-51.4468	64.7002
15.3429	-48.1633	64.71
15.34311	-36.2058	64.7197
15.3453	-30.3444	64.7295
15.3456	-35.0912	64.7393
15.3463	-42.833	64.749
15.34819	-50.6613	64.7588
15.3476	-47.0896	64.7686
15.3489	-40.4314	64.77832
15.3498	-35.2145	64.7881
15.3509	-31.5838	64.7979
15.352	-37.6877	64.8076
15.3522	-49.0398	64.8174
15.3524	-49.8822	64.8271
15.3539	-46.4172	64.8369
15.3556	-31.9129	64.84668
15.3552	-32.7409	64.8564
15.3562	-37.1715	64.8662
15.3566	-43.6732	64.876
15.3575	-49.1185	64.8857
15.3584	-46.0189	64.8955
15.3594	-43.2665	64.9053
15.3607	-34.40601	64.915
15.3621	-31.7193	64.9248
15.3622	-41.5066	64.93457
15.3621	-46.7249	64.9443
15.3636	-49.1802	64.9541
15.3652	-43.2026	64.9639
15.3658	-34.8606	64.9736
15.3665	-33.5742	64.9834
15.3676	-36.2943	64.9932
15.3673	-41.3707	65.00293
15.3688	-48.5929	65.0127
15.3701	-47.0872	65.0225
15.3705	-40.2844	65.0322
15.3717	-32.4934	65.042
15.372	-32.0395	65.0518
15.3723	-40.9738	65.0615
15.3738	-47.6662	65.0713
15.3745	-47.388	65.0811
15.375	-42.835	65.09082
15.3762	-35.5852	65.1006
15.3761	-32.6539	65.1104
15.378	-35.3305	65.1201
15.3791	-43.9143	65.1299
15.3782	-49.80479	65.1396
15.3797	-46.1675	65.1494
15.3806	-38.3624	65.15918
15.3809	-30.61327	65.1689
15.3832	-31.7697	65.1787
15.383	-43.8348	65.1885
15.3845	-49.2436	65.1982
15.3846	-47.6137	65.208
15.3855	-42.38641	65.2178
15.38725	-32.2248	65.2275
15.3882	-32.4395	65.2373
15.3884	-38.6005	65.24707
15.3894	-47.5633	65.2568
15.3894	-52.6345	65.2666
15.3896	-43.4424	65.2764
15.3914	-35.7722	65.2861
15.3924	-29.9196	65.2959
15.3929	-36.80352	65.3057
15.3941	-46.9646	65.31543
15.3933	-47.7719	65.3252
15.396	-47.6497	65.335
15.3955	-37.087	65.3447
15.3971	-31.6175	65.3545
15.3969	-33.6613	65.3643
15.3981	-39.4369	65.374
15.4004	-50.07338	65.3838
15.3993	-51.1917	65.3936
15.4004	-39.5501	65.40332
15.4022	-33.64407	65.4131
15.4027	-32.33416	65.4229
15.4042	-38.9395	65.4326
15.4051	-46.5445	65.4424
15.405	-46.5224	65.4521
15.40589	-44.3617	65.4619
15.4072	-36.4569	65.47168
15.4079	-31.4445	65.4814
15.4089	-35.75	65.4912
15.4093	-42.8586	65.501
15.4104	-49.9061	65.5107
15.4107	-48.1631	65.5205
15.4119	-39.4778	65.5303
15.4122	-34.6438	65.54