File: data/processed_data_files/tensile/0.254_hd_uprint_typei_090_r(6).dat
MTS793|BTW|ENU|1|2|.|/|:|1|0|0|A

Data Header:			0.254_hd_uprint_typei_090_r0			Time:	20.0188	s	4/15/2019 4:00:09 PM
Data Acquisition:	Timed
Station Name:	ft40.cfg
Test File Name:	monotonic_0.2540_typei_hd_090_uprint.tst
Displacement	Force	Running Time
mm	N	s
9.98039	-125.7766	0.0227051
9.98041	-124.885	0.0422363
9.98106	-126.883	0.0617676
9.98124	-120.592	0.0812988
9.9807	-120.579	0.10083
9.98289	-130.207	0.120361
9.98528	-125.527	0.139893
9.985754	-116.819	0.159424
9.98819	-124.596	0.178955
9.98966	-124.768	0.198486
9.99171	-117.321	0.218018
9.99368	-123.897	0.237549
9.99509	-123.124	0.25708
9.99629	-115.663	0.276611
9.99732	-118.913	0.296143
9.99916	-122.11	0.315674
10.0023	-113.272	0.335205
10.0034	-118.982	0.354736
10.0047	-121.896	0.374268
10.0064	-115.299	0.393799
10.0076	-109.307	0.41333
10.0086	-116.796	0.432861
10.0118	-112.46	0.452393
10.0129	-112.338	0.471924
10.01368	-114.4948	0.491455
10.0159	-112.135	0.510986
10.0171	-104.249	0.530518
10.0189	-111.873	0.550049
10.0206	-112.865	0.56958
10.02144	-107.287	0.589111
10.0241	-105.984	0.608643
10.0252	-112.54	0.628174
10.0275	-102.933	0.647705
10.0291	-105.651	0.667236
10.0294	-111.409	0.686768
10.0322	-106.201	0.706299
10.0338	-101.644	0.72583
10.0355	-106.8483	0.745361
10.0361	-102.896	0.764893
10.0382	-97.4225	0.784424
10.0396	-108.415	0.803955
10.0424	-105.996	0.823486
10.04411	-94.8839	0.843018
10.0456	-98.9639	0.862549
10.0464	-101.926	0.88208
10.0481	-94.0073	0.901611
10.0493	-99.7042	0.921143
10.0522	-99.8939	0.940674
10.0541	-93.2844	0.960205
10.0538	-92.7145	0.979736
10.057	-101	0.999268
10.0579	-91.6523	1.0188
10.0611	-92.454	1.03833
10.0612	-96.0792	1.05786
10.0624	-92.7855	1.07739
10.0645	-85.1384	1.09692
10.0661	-91.8565	1.11646
10.0678	-90.6538	1.13599
10.0697	-88.44722	1.15552
10.0714	-89.3161	1.17505
10.0732	-89.0024	1.19458
10.0738	-81.98027	1.21411
10.0761	-86.0998	1.23364
10.077	-90.8951	1.25317
10.0797	-85.867	1.27271
10.0804	-81.4608	1.29224
10.0831	-87.8946	1.31177
10.0842	-82.6928	1.3313
10.0853	-79.497	1.35083
10.087	-87.253	1.37036
10.0889	-83.1462	1.38989
10.0903	-76.1244	1.40942
10.0927	-83.3772	1.42896
10.0932	-79.9923	1.44849
10.0956	-72.0123	1.46802
10.0973	-80.4462	1.48755
10.0986	-82.0823	1.50708
10.1004	-71.9307	1.52661
10.1021	-72.3583	1.54614
10.1036	-78.9459	1.56567
10.1053	-70.021	1.58521
10.1078	-74.8515	1.60474
10.1088	-75.1901	1.62427
10.1103	-68.5569	1.6438
10.112	-66.5192	1.66333
10.1133	-73.9961	1.68286
10.1141	-67.537	1.70239
10.117	-66.4917	1.72192
10.1179	-69.3078	1.74146
10.1189	-68.68557	1.76099
10.1222	-60.3527	1.78052
10.123	-66.3888	1.80005
10.1248	-64.6876	1.81958
10.1275	-63.0077	1.83911
10.128	-61.8386	1.85864
10.12993	-65.0429	1.87817
10.1301	-56.849	1.89771
10.1335	-58.8657	1.91724
10.1352	-66.325	1.93677
10.13586	-59.2996	1.9563
10.1382	-54.5889	1.97583
10.1394	-60.1903	1.99536
10.1412	-57.0753	2.01489
10.1429	-51.9649	2.03442
10.14465	-59.3935	2.05396
10.1459	-55.9694	2.07349
10.1477	-48.4427	2.09302
10.148	-53.4286	2.11255
10.1515	-56.0474	2.13208
10.1527	-45.6928	2.15161
10.1551	-52.3862	2.17114
10.156	-54.8274	2.19067
10.15624	-46.477	2.21021
10.1595	-44.2565	2.22974
10.1604	-50.7462	2.24927
10.1624	-42.0098	2.2688
10.1647	-45.2027	2.28833
10.1657	-46.9339	2.30786
10.16716	-42.5929	2.32739
10.1687	-37.5965	2.34692
10.1712	-46.0555	2.36646
10.1716	-44.1227	2.38599
10.1738	-38.6778	2.40552
10.1753	-39.699	2.42505
10.1773	-42.3858	2.44458
10.1792	-33.5758	2.46411
10.1799	-35.3489	2.48364
10.1817	-38.19117	2.50317
10.18377	-35.9902	2.52271
10.185	-32.20644	2.54224
10.1866	-38.5354	2.56177
10.1884	-31.09	2.5813
10.19	-27.7884	2.60083
10.19133	-38.0846	2.62036
10.1939	-33.2586	2.63989
10.1957	-25.66136	2.65942
10.1964	-31.69684	2.67896
10.1987	-30.5219	2.69849
10.1992	-23.0853	2.71802
10.2015	-32.2811	2.73755
10.2023	-28.462	2.75708
10.2043	-20.5726	2.77661
10.2063	-23.4942	2.79614
10.2081	-28.6794	2.81567
10.2094	-18.4375	2.83521
10.2116	-23.0328	2.85474
10.2123	-25.8128	2.87427
10.2145	-18.6701	2.8938
10.21593	-14.683	2.91333
10.2182	-21.0396	2.93286
10.21978	-16.1617	2.95239
10.2209	-16.7835	2.97192
10.22264	-18.4616	2.99146
10.2248	-19.1972	3.01099
10.2245	-9.40784	3.03052
10.2269	-17.1029	3.05005
10.2284	-16.1993	3.06958
10.231	-11.09681	3.08911
10.23243	-7.90982	3.10864
10.2331	-15.3117	3.12817
10.2357	-7.05051	3.14771
10.2368	-7.46396	3.16724
10.2394	-12.8327	3.18677
10.2405	-8.05965	3.2063
10.2424	-2.2458	3.22583
10.243	-10.064	3.24536
10.2452	-5.01641	3.26489
10.2463	0.373154	3.28442
10.2494	-10.7074	3.30396
10.2499	-6.09073	3.32349
10.2517	2.90866	3.34302
10.2535	-0.661544	3.36255
10.2559	-2.437211	3.38208
10.2574	5.79978	3.40161
10.2596	-0.580015	3.42114
10.2598	-0.1228651	3.44067
10.2613	8.103528	3.46021
10.2619	7.51953	3.47974
10.2651	0.434177	3.49927
10.2662	10.7408	3.5188
10.2684	8.13766	3.53833
10.26958	5.97675	3.55786
10.2705	7.35215	3.57739
10.2728	14.93581	3.59692
10.2747	8.62817	3.61646
10.2763	12.0759	3.63599
10.2769	12.3175	3.65552
10.2788	10.98287	3.67505
10.2806	12.1028	3.69458
10.2835	20.9823	3.71411
10.2847	16.3652	3.73364
10.2859	11.1296	3.75317
10.2879	19.4035	3.77271
10.2893	22.1279	3.79224
10.2908	17.112	3.81177
10.292	23.0533	3.8313
10.29402	24.5104	3.85083
10.2958	17.2141	3.87036
10.298	22.18611	3.88989
10.2988	29.0631	3.90942
10.3	21.4332	3.92896
10.3019	25.453	3.94849
10.304	33.0513	3.96802
10.3059	25.15929	3.98755
10.3069	24.8296	4.00708
10.3084	34.586	4.02661
10.3105	32.5042	4.04614
10.3108	28.4503	4.06567
10.3135	37.4535	4.08521
10.3158	30.7612	4.10474
10.3178	30.38077	4.12427
10.3178	37.3012	4.1438
10.3198	41.938	4.16333
10.3214	31.9471	4.18286
10.32307	38.9251	4.20239
10.32412	40.191	4.22192
10.3255	38.1439	4.24146
10.3278	38.4733	4.26099
10.3301	47.801	4.28052
10.3301	42.1025	4.30005
10.3336	43.1797	4.31958
10.3354	46.1773	4.33911
10.3361	46.8257	4.35864
10.33769	42.2901	4.37817
10.3392	50.93795	4.39771
10.3418	49.9639	4.41724
10.3433	41.233	4.43677
10.345	48.5645	4.4563
10.3463	56.6064	4.47583
10.3475	49.6136	4.49536
10.3501	50.9315	4.51489
10.3508	59.0703	4.53442
10.3532	48.7999	4.55396
10.3543	51.1948	4.57349
10.3563	61.318	4.59302
10.35818	56.464	4.61255
10.3587	53.8543	4.63208
10.3605	64.2717	4.65161
10.3622	58.6791	4.67114
10.3635	56.9865	4.69067
10.366	63.6735	4.71021
10.3695	66.1524	4.72974
10.3692	60.1132	4.74927
10.3709	66.2522	4.7688
10.3727	64.1868	4.78833
10.3732	63.2703	4.80786
10.3758	67.5591	4.82739
10.3768	73.4559	4.84692
10.3784	66.2718	4.86646
10.3806	68.6586	4.88599
10.3823	72.7047	4.90552
10.3833	73.6355	4.92505
10.385	70.0459	4.94458
10.3878	77.8181	4.96411
10.3876	73.9216	4.98364
10.39	73.7869	5.00317
10.3906	76.6937	5.02271
10.39355	79.6462	5.04224
10.3948	74.4891	5.06177
10.3959	80.8013	5.0813
10.3991	84.2015	5.10083
10.40038	74.3651	5.12036
10.4018	78.5695	5.13989
10.4023	88.86	5.15942
10.4052	82.4911	5.17896
10.4059	83.173	5.19849
10.4077	90.8673	5.21802
10.40845	81.2766	5.23755
10.411	84.72596	5.25708
10.413	93.3685	5.27661
10.4141	90.1099	5.29614
10.4161	85.0556	5.31567
10.4171	95.42395	5.33521
10.4194	91.4166	5.35474
10.421	88.8863	5.37427
10.42195	94.3992	5.3938
10.4236	99.525	5.41333
10.4262	92.3038	5.43286
10.4274	97.7637	5.45239
10.4299	98.3625	5.47192
10.4305	95.4801	5.49146
10.4331	98.6781	5.51099
10.4345	106.238	5.53052
10.4358	100.249	5.55005
10.4369	97.5264	5.56958
10.4393	104.175	5.58911
10.4404	107.8803	5.60864
10.4415	101.272	5.62817
10.4447	110.356	5.64771
10.4452	108.865	5.66724
10.446	102.705	5.68677
10.4484	109.416	5.7063
10.4508	114.13	5.72583
10.4523	107.165	5.74536
10.4523	110.848	5.76489
10.456	119.294	5.78442
10.4571	109.309	5.80396
10.459	110.6441	5.82349
10.4605	120.68	5.84302
10.46232	116.047	5.86255
10.4637	116.361	5.88208
10.4655	122.137	5.90161
10.4684	115.433	5.92114
10.4682	117.447	5.94067
10.4692	124.312	5.96021
10.47157	125.446	5.97974
10.4728	117.263	5.99927
10.4746	127.29	6.0188
10.4764	126.881	6.03833
10.4778	123.578	6.05786
10.4797	126.04	6.07739
10.4812	132.041	6.09692
10.4827	124.697	6.11646
10.4844	127.51	6.13599
10.48733	131.567	6.15552
10.48776	130.07	6.17505
10.4902	129.2236	6.19458
10.4915	138.084	6.21411
10.4922	134.551	6.23364
10.4936	129.516	6.25317
10.4945	134.987	6.27271
10.4971	141.158	6.29224
10.4987	134.872	6.31177
10.5007	140.942	6.3313
10.5018	143.612	6.35083
10.504	135.61	6.37036
10.5052	140.25	6.38989
10.5064	147.344	6.40942
10.5087	139.365	6.42896
10.5109	142.773	6.44849
10.5119	152.848	6.46802
10.5153	141.9971	6.48755
10.5152	144.14	6.50708
10.5172	150.246	6.52661
10.5196	148.956	6.54614
10.5206	146.538	6.56567
10.5222	154.132	6.58521
10.524	148.255	6.60474
10.5257	148.656	6.62427
10.5266	154.5997	6.6438
10.5281	159.449	6.66333
10.52989	150.741	6.68286
10.5313	156.317	6.70239
10.5335	157.855	6.72192
10.53437	157.329	6.74146
10.537	158.033	6.76099
10.5378	164.078	6.78052
10.54032	158.938	6.80005
10.5418	159.503	6.81958
10.5421	164.934	6.83911
10.5453	164.972	6.85864
10.5462	160.283	6.87817
10.5475	171.622	6.89771
10.5498	170.271	6.91724
10.55059	162.606	6.93677
10.5523	166.0549	6.9563
10.55508	173.753	6.97583
10.5556	167.462	6.99536
10.5579	170.501	7.01489
10.5591	176.311	7.03442
10.562	167.411	7.05396
10.5624	171.9	7.07349
10.56544	180.865	7.09302
10.5665	175.2603	7.11255
10.5668	172.067	7.13208
10.57	182.268	7.15161
10.5704	176.352	7.17114
10.5721	174.794	7.19067
10.5733	182.6879	7.21021
10.5757	185.79	7.22974
10.57642	178.419	7.24927
10.578	186.71	7.2688
10.5805	184.363	7.28833
10.5825	182.824	7.30786
10.5837	185.344	7.32739
10.5847	193.491	7.34692
10.5872	185.831	7.36646
10.5888	186.6281	7.38599
10.589	190.319	7.40552
10.5907	191.819	7.42505
10.5929	187.731	7.44458
10.595	198.526	7.46411
10.59672	193.213	7.48364
10.5987	190.068	7.50317
10.5996	195.665	7.52271
10.6015	199.3416	7.54224
10.6022	192.426	7.56177
10.6045	201.2916	7.5813
10.6067	204.639	7.60083
10.6081	194.225	7.62036
10.6096	198.3591	7.63989
10.6113	205.449	7.65942
10.6135	202.383	7.67896
10.6143	203.109	7.69849
10.6164	211.026	7.71802
10.6173	200.897	7.73755
10.619	201.673	7.75708
10.6223	212.232	7.77661
10.6225	210.531	7.79614
10.62433	205.002	7.81567
10.62621	215.119	7.83521
10.62849	212.2932	7.85474
10.6294	209.097	7.87427
10.6312	214.741	7.8938
10.6325	218.471	7.91333
10.63365	211.409	7.93286
10.6353	218.335	7.95239
10.6367	217.23	7.97192
10.6392	215.12	7.99146
10.641	216.559	8.01099
10.6429	227.343	8.03052
10.6449	220.085	8.05005
10.6455	219.555	8.06958
10.6457	222.5629	8.08911
10.648	224.872	8.10864
10.6495	219.781	8.12817
10.6532	229.455	8.14771
10.6538	229.16	8.16724
10.65506	221.552	8.18677
10.6576	228.79	8.2063
10.6594	234.291	8.22583
10.661	225.341	8.24536
10.6613	230.326	8.26489
10.6628	237.204	8.28442
10.665	228.33	8.30396
10.6667	231.093	8.32349
10.6681	240.239	8.34302
10.6691	234.922	8.36255
10.672	234.428	8.38208
10.673	244.499	8.40161
10.6752	235.706	8.42114
10.6764	236.665	8.44067
10.6781	244.201	8.46021
10.6797	245.456	8.47974
10.68171	236.866	8.49927
10.683	244.2634	8.5188
10.6842	243.921	8.53833
10.68567	243.95	8.55786
10.6877	244.861	8.57739
10.6914	252.604	8.59692
10.6911	245.301	8.61646
10.6928	247.928	8.63599
10.6936	252.254	8.65552
10.6965	249.323	8.67505
10.6971	248.097	8.69458
10.6987	257.668	8.71411
10.7008	255.399	8.73364
10.701	251.192	8.75317
10.7043	255.9796	8.77271
10.7052	258.9621	8.79224
10.7078	254.238	8.81177
10.70853	259.71	8.8313
10.7098	262.687	8.85083
10.7119	253.535	8.87036
10.71398	258.952	8.88989
10.7154	268.094	8.90942
10.7177	261.137	8.92896
10.7185	260.482	8.94849
10.7201	270.667	8.96802
10.7218	261.398	8.98755
10.723	263.068	9.00708
10.72576	271.829	9.02661
10.7267	271.415	9.04614
10.7281	263.337	9.06567
10.7304	275.992	9.08521
10.7327	269.825	9.10474
10.7338	268.909	9.12427
10.7359	272.89	9.1438
10.7375	280.997	9.16333
10.7374	270.91	9.18286
10.7396	277.0694	9.20239
10.742	278.471	9.22192
10.7433	277.349	9.24146
10.74518	276.897	9.26099
10.7467	285.228	9.28052
10.7484	279.051	9.30005
10.7506	280.111	9.31958
10.7516	286.252	9.33911
10.753	286.007	9.35864
10.7541	278.026	9.37817
10.7565	288.739	9.39771
10.7575	290.81	9.41724
10.7597	282.3779	9.43677
10.7605	287.757	9.4563
10.7633	294.808	9.47583
10.765	287.644	9.49536
10.7658	292.594	9.51489
10.7675	299.3017	9.53442
10.7691	287.609	9.55396
10.771	291.856	9.57349
10.7722	301.406	9.59302
10.7744	295.317	9.61255
10.775	293.235	9.63208
10.7775	303.351	9.65161
10.7796	296.98	9.67114
10.781	296.779	9.69067
10.78198	303.502	9.71021
10.7852	304.684	9.72974
10.7859	298.631	9.74927
10.787	308.795	9.7688
10.789	304.989	9.78833
10.7904	302.79	9.80786
10.7919	306.501	9.82739
10.7932	315.549	9.84692
10.7953	305.125	9.86646
10.7966	307.603	9.88599
10.7985	312.131	9.90552
10.7999	311.238	9.92505
10.8021	309.594	9.94458
10.8033	318.838	9.96411
10.8054	314.17	9.98364
10.8069	309.5137	10.0032
10.8081	316.503	10.0227
10.8098	319.789	10.0422
10.8115	312.217	10.0618
10.81185	320.21	10.0813
10.8142	325.04	10.10083
10.8169	315.583	10.1204
10.8187	319.928	10.1399
10.8192	327.966	10.1594
10.821	320.799	10.179
10.8219	322.663	10.1985
10.8239	333.087	10.218
10.82601	321.488	10.2375
10.8273	322.392	10.25708
10.8289	334.029	10.2766
10.8324	333.847	10.2961
10.8319	324.038	10.3157
10.8347	335.16	10.3352
10.8347	330.496	10.3547
10.8374	329.784	10.3743
10.8385	334.445	10.3938
10.8413	337.819	10.41333
10.8423	330.405	10.4329
10.8441	338.139	10.4524
10.8451	338.6626	10.4719
10.8482	336.125	10.4915
10.849	336.198	10.511
10.8502	346.531	10.5305
10.8527	340.51	10.55
10.8542	338.441	10.56958
10.856	344.628	10.5891
10.8569	343.855	10.6086
10.85929	341.295	10.6282
10.8593	350.026	10.6477
10.8623	347.321	10.6672
10.8627	341.276	10.6868
10.8659	349.673	10.7063
10.8668	354.772	10.72583
10.8691	345.045	10.7454
10.8703	350.539	10.7649
10.8723	357.204	10.7844
10.8722	346.486	10.804
10.8756	350.4072	10.8235
10.8763	359.048	10.843
10.8785	354.42	10.8625
10.8793	355.764	10.88208
10.8816	363.188	10.9016
10.8827	355.187	10.9211
10.8839	355.053	10.9407
10.8867	362.711	10.9602
10.8873	365.542	10.9797
10.8901	357.249	10.9993
10.8917	365.1871	11.0188
10.89234	365.191	11.03833
10.8945	362.298	11.0579
10.8957	365.252	11.0774
10.8983	371.425	11.0969
10.8992	364.3002	11.1165
10.9004	365.916	11.136
10.90324	372.967	11.1555
10.9041	370.321	11.175
10.906	366.794	11.19458
10.9071	376.542	11.2141
10.9096	374.034	11.2336
10.9103	367.679	11.2532
10.913	376.2	11.2727
10.9132	377.688	11.2922
10.9151	372.239	11.3118
10.9176	380.187	11.3313
10.919	383.5318	11.35083
10.92	372.1	11.3704
10.9212	378.9158	11.3899
10.923	387.342	11.4094
10.92537	379.648	11.429
10.9278	378.548	11.4485
10.9294	389.012	11.468
10.9309	378.646	11.4875
10.9323	381.149	11.50708
10.9342	389.992	11.5266
10.93461	389.048	11.5461
10.9364	383.243	11.5657
10.9387	395.465	11.5852
10.9404	390.576	11.6047
10.9421	385.507	11.6243
10.9433	393.9917	11.6438
10.9459	400.527	11.66333
10.9459	390.906	11.6829
10.9483	394.761	11.7024
10.9503	395.989	11.7219
10.9512	393.7543	11.7415
10.9529	395.872	11.761
10.9545	404.353	11.7805
10.956	397.737	11.8
10.9585	397.089	11.81958
10.9595	402.875	11.8391
10.9607	403.846	11.8586
10.9624	396.954	11.8782
10.9644	406.755	11.8977
10.9667	407.346	11.9172
10.9676	398.807	11.9368
10.96967	405.8732	11.9563
10.9706	411.7305	11.97583
10.9719	405.172	11.9954
10.9745	411.461	12.0149
10.9754	416.324	12.0344
10.9774	404.701	12.054
10.9793	409.342	12.0735
10.9793	418.547	12.093
10.9826	414.082	12.1125
10.98385	409.2807	12.13208
10.9856	421.055	12.1516
10.9874	413.049	12.1711
10.9894	413.304	12.1907
10.9903	421.006	12.2102
10.9921	421.874	12.2297
10.994	414.64	12.2493
10.9957	423.99	12.2688
10.9973	423.557	12.28833
10.9982	418.665	12.3079
11.0005	423.911	12.3274
11.0027	433.515	12.3469
11.0028	423.593	12.3665
11.0054	426.065	12.386
11.0075	429.068	12.4055
11.0076	428.613	12.425
11.0094	425.97	12.44458
11.0122	435.44	12.4641
11.0137	430.562	12.4836
11.01511	424.51	12.5032
11.0175	432.1637	12.5227
11.0181	437.33	12.5422
11.0199	428.626	12.5618
11.0207	436.663	12.5813
11.0236	440.24	12.60083
11.02485	430.8432	12.6204
11.0262	436.548	12.6399
11.0271	442.823	12.6594
11.0297	437.397	12.679
11.0311	439.407	12.6985
11.0326	448.047	12.718
11.0346	437.0498	12.7375
11.0355	437.955	12.75708
11.0375	448.62	12.7766
11.0398	448.67	12.7961
11.041	442.41	12.8157
11.0428	451.115	12.8352
11.04509	446.9	12.8547
11.0457	445.544	12.8743
11.0474	451.1553	12.8938
11.048	455.992	12.91333
11.0496	447.147	12.9329
11.0511	453.227	12.9524
11.05359	455.055	12.9719
11.0555	453.187	12.9915
11.0573	450.546	13.011
11.0579	462.13	13.0305
11.0605	456.472	13.05
11.0627	455.804	13.06958
11.0639	460.3446	13.0891
11.0648	460.17	13.1086
11.0669	455.305	13.1282
11.0692	466.625	13.1477
11.0704	464.856	13.1672
11.0717	455.175	13.1868
11.0737	465.493	13.2063
11.0755	470.097	13.22583
11.07661	462.765	13.2454
11.0785	463.766	13.2649
11.0804	472.435	13.2844
11.0812	462.115	13.304
11.0824	466.946	13.3235
11.0852	474.679	13.343
11.086	469.804	13.3625
11.0875	469.415	13.38208
11.09034	480.07	13.4016
11.0921	470.925	13.4211
11.0937	470.192	13.4407
11.0943	479.17	13.4602
11.0965	481.37	13.4797
11.0974	473.383	13.4993
11.0989	480.9848	13.5188
11.1004	479.058	13.53833
11.1024	477.483	13.5579
11.1044	481.701	13.5774
11.1054	487.996	13.5969
11.1075	478.932	13.6165
11.1089	479.556	13.636
11.1119	487.601	13.6555
11.1118	485.991	13.675
11.1144	481.882	13.69458
11.1146	491.903	13.7141
11.1173	488.86	13.7336
11.1193	482.563	13.7532
11.1204	489.736	13.7727
11.1219	492.385	13.7922
11.1233	486.95	13.8118
11.1256	494.4613	13.8313
11.1265	498.528	13.85083
11.12904	485.209	13.8704
11.1312	492.607	13.8899
11.1318	501.386	13.9094
11.1338	493.084	13.929
11.1355	495.055	13.9485
11.1357	502.596	13.968
11.1384	492.85	13.9875
11.1402	498.237	14.00708
11.1419	506.473	14.0266
11.1426	501.464	14.0461
11.1443	497.463	14.0657
11.14648	510.398	14.0852
11.1486	503.846	14.1047
11.14908	500.026	14.1243
11.1514	506.27	14.1438
11.1523	512.348	14.16333
11.1549	503.957	14.1829
11.1555	508.161	14.2024
11.15806	510.071	14.2219
11.1599	508.569	14.2415
11.1617	511.268	14.261
11.1631	520.068	14.2805
11.1656	511.086	14.3
11.1665	509.927	14.31958
11.1673	517.883	14.3391
11.16862	519.853	14.3586
11.1707	511.245	14.3782
11.1726	520.3811	14.3977
11.1739	521.21	14.4172
11.1758	512.707	14.4368
11.17687	520.357	14.4563
11.18	525.91	14.47583
11.1808	515.725	14.4954
11.1825	522.205	14.5149
11.1841	530.893	14.5344
11.1863	517.7973	14.554
11.187	522.272	14.5735
11.1881	532.072	14.593
11.191	526.971	14.6125
11.1924	525.508	14.63208
11.194	534.313	14.6516
11.1956	525.517	14.6711
11.1971	526.768	14.6907
11.19908	534.962	14.7102
11.2005	533.878	14.7297
11.2023	526.4071	14.7493
11.2028	536.436	14.7688
11.2055	535.338	14.78833
11.20719	531.095	14.8079
11.2082	535.504	14.8274
11.2091	542.793	14.8469
11.2122	534.415	14.8665
11.2134	538.384	14.886
11.2152	540.711	14.9055
11.2156	538.797	14.925
11.2183	537.18	14.94458
11.2202	549.666	14.9641
11.2201	543.936	14.9836
11.2233	536.7348	15.0032
11.2253	546.361	15.0227
11.22626	548.368	15.0422
11.2271	542.4826	15.0618
11.2291	548.877	15.0813
11.2314	550.77	15.10083
11.2317	543.085	15.1204
11.2347	548.031	15.1399
11.2357	555.955	15.1594
11.2375	546.9884	15.179
11.23982	549.722	15.1985
11.241	558.672	15.218
11.242	548.375	15.2375
11.24483	549.703	15.25708
11.2466	557.157	15.2766
11.2476	556.752	15.2961
11.24868	550.926	15.3157
11.2504	560.578	15.3352
11.2519	555.259	15.3547
11.2531	554.085	15.3743
11.256	562.073	15.3938
11.2563	564.639	15.41333
11.2582	555.377	15.4329
11.2611	562.036	15.4524
11.2607	565.398	15.4719
11.263	561.667	15.4915
11.2646	559.978	15.511
11.2681	568.333	15.5305
11.269	563.731	15.55
11.27	562.366	15.56958
11.2714	567.793	15.5891
11.2738	566.566	15.6086
11.2757	563.066	15.6282
11.27667	572.905	15.6477
11.2783	572.809	15.6672
11.2796	562.026	15.6868
11.2813	572.312	15.7063
11.28352	576.483	15.72583
11.285	570.597	15.7454
11.2872	573.746	15.7649
11.2875	580.271	15.7844
11.2894	569.208	15.804
11.2914	574.989	15.8235
11.2929	582.759	15.843
11.295	577.371	15.8625
11.2965	575.6922	15.88208
11.2983	584.962	15.9016
11.2994	577.571	15.9211
11.3007	577.995	15.9407
11.3029	584.953	15.9602
11.3045	586.942	15.9797
11.30732	579.023	15.9993
11.3068	588.534	16.0188
11.3098	585.672	16.03833
11.3096	581.711	16.0579
11.3124	587.8667	16.0774
11.3143	594.043	16.0969
11.3145	585.235	16.1165
11.3176	587.276	16.136
11.3183	592.92	16.1555
11.3207	591.794	16.175
11.3225	589.961	16.19458
11.3232	597.768	16.2141
11.3257	595.352	16.2336
11.3272	589.341	16.2532
11.3285	596.747	16.2727
11.3308	598.103	16.2922
11.3321	592.211	16.3118
11.3341	600.312	16.3313
11.3344	604.389	16.35083
11.337	592.061	16.3704
11.3388	598.39	16.3899
11.3404	608.193	16.4094
11.3414	600.411	16.429
11.3433	602.52	16.4485
11.3442	609.352	16.468
11.3462	598.995	16.4875
11.3487	602.696	16.50708
11.3504	610.6488	16.5266
11.3515	609.168	16.5461
11.3537	602.745	16.5657
11.3551	614.317	16.5852
11.3562	606.567	16.6047
11.3585	606.099	16.6243
11.36006	611.7475	16.6438
11.3618	615.55	16.66333
11.363	607.935	16.6829
11.364	613.421	16.7024
11.3667	614.988	16.7219
11.36734	611.861	16.7415
11.3697	613.411	16.761
11.3709	624.812	16.7805
11.3728	616.728	16.8
11.3743	613.891	16.81958
11.3766	620.898	16.8391
11.37639	621.5564	16.8586
11.3795	616.727	16.8782
11.3817	625.544	16.8977
11.3831	625.107	16.9172
11.3845	616.957	16.9368
11.385	625.9	16.9563
11.3881	628.143	16.97583
11.3892	619.79	16.9954
11.3914	624.988	17.0149
11.3932	632.938	17.0344
11.394	620.484	17.054
11.3948	624.605	17.0735
11.397	634.866	17.093
11.3988	630.987	17.1125
11.40061	629.477	17.13208
11.4031	637.708	17.1516
11.4036	630.317	17.1711
11.4053	630.996	17.1907
11.4065	639.062	17.2102
11.4088	638.27	17.2297
11.4102	631.227	17.2493
11.41316	639.258	17.2688
11.4124	638.99	17.28833
11.4155	635.246	17.3079
11.4164	636.792	17.3274
11.4178	645.689	17.3469
11.4192	637.157	17.3665
11.4216	641.63	17.386
11.4236	644.681	17.4055
11.4248	641.544	17.425
11.42671	639.668	17.44458
11.4281	649.394	17.4641
11.4293	648.4201	17.4836
11.4312	639.761	17.5032
11.4327	648.148	17.5227
11.4343	650.562	17.5422
11.4362	645.439	17.5618
11.4379	652.828	17.5813
11.4391	653.354	17.60083
11.4415	644.6203	17.6204
11.4432	652.071	17.6399
11.4441	658.706	17.6594
11.44631	649.767	17.679
11.4484	652.1347	17.6985
11.4492	660.973	17.718
11.4504	650.739	17.7375
11.4523	651.999	17.75708
11.4534	661.528	17.7766
11.4567	658.221	17.7961
11.4582	654.686	17.8157
11.459	664.758	17.8352
11.4602	658.863	17.8547
11.4617	656.427	17.8743
11.464	662.963	17.8938
11.4664	668.709	17.91333
11.467	659.402	17.9329
11.4687	662.159	17.9524
11.4708	666.57	17.9719
11.4722	663.5824	17.9915
11.4733	663.725	18.011
11.4765	671.295	18.0305
11.4769	666.831	18.05
11.4788	664.089	18.06958
11.4804	671.575	18.0891
11.4821	670.279	18.1086
11.48406	664.898	18.1282
11.4845	675.852	18.1477
11.4867	675.465	18.1672
11.4878	665.729	18.1868
11.4908	673.109	18.2063
11.4912	679.5235	18.22583
11.4924	672.927	18.2454
11.4938	677.614	18.2649
11.4965	684.178	18.2844
11.4988	671.047	18.304
11.4993	678.541	18.3235
11.5011	686.9151	18.343
11.5032	680.672	18.3625
11.5042	678.868	18.38208
11.5068	689.828	18.4016
11.5072	681.278	18.4211
11.5089	681.162	18.4407
11.5116	687.457	18.4602
11.5132	688.043	18.4797
11.51397	680.661	18.4993
11.5164	690.657	18.5188
11.5172	688.277	18.53833
11.5193	685.579	18.5579
11.5204	690.174	18.5774
11.5223	695.275	18.5969
11.5233	686.536	18.6165
11.5254	688.007	18.636
11.528	693.987	18.6555
11.5294	693.013	18.675
11.531	691.443	18.69458
11.5329	698.623	18.7141
11.53416	695.857	18.7336
11.5356	688.798	18.7532
11.5376	699.356	18.7727
11.5383	699.089	18.7922
11.541	693.438	18.8118
11.5416	700.714	18.8313
11.5429	704.342	18.85083
11.5453	693.418	18.8704
11.5469	700.046	18.8899
11.5481	707.056	18.9094
11.5508	699.247	18.929
11.5517	701.074	18.9485
11.5529	710.462	18.968
11.5554	698.066	18.9875
11.5564	702.281	19.00708
11.559	712.169	19.0266
11.5595	709.494	19.0461
11.56184	702.472	19.0657
11.5631	712.909	19.0852
11.5651	708.5788	19.1047
11.5659	707.91	19.1243
11.5674	712.652	19.1438
11.5696	714.5658	19.16333
11.5715	707.056	19.1829
11.5728	713.686	19.2024
11.5747	715.724	19.2219
11.5761	712.771	19.2415
11.5784	712.521	19.261
11.5789	722.984	19.2805
11.5807	715.128	19.3
11.5828	713.4563	19.31958
11.5836	720.56	19.3391
11.586	720.8728	19.3586
11.5872	715.549	19.3782
11.589	724.153	19.3977
11.5915	722.41	19.4172
11.5916	713.848	19.4368
11.5943	724.013	19.4563
11.595	726.685	19.47583
11.5971	719.02	19.4954
11.5995	723.538	19.5149
11.6006	731.557	19.5344
11.6022	720.3241	19.554
11.6041	723.011	19.5735
11.6045	732.195	19.593
11.60762	725.549	19.6125
11.6089	724.479	19.63208
11.61	736.112	19.6516
11.6123	726.45	19.6711
11.6136	728.076	19.6907
11.61508	735.51	19.7102
11.6168	737.945	19.7297
11.6181	728.789	19.7493
11.62	736.357	19.7688
11.6218	734.651	19.78833
11.6241	733.855	19.8079
11.6258	735.299	19.8274
11.6262	740.281	19.8469
11.6278	734.132	19.8665
11.6293	736.46	19.886
11.632	742.559	19.9055
11.6336	738.365	19.925
11.6351	734.267	19.94458
11.6375	747.031	19.9641
11.6374	742.091	19.9836
11.6401	735.777	20.0032
11.6408	743.24	20.0129

Data Header:			0.254_hd_uprint_typei_090_r0			Time:	40.0195	s	4/15/2019 4:00:29 PM
Data Acquisition:	Timed
Station Name:	ft40.cfg
Test File Name:	monotonic_0.2540_typei_hd_090_uprint.tst
Displacement	Force	Running Time
mm	N	s
11.641	744.14	20.0227
11.64241	746.495	20.0422
11.64353	741.802	20.0618
11.645	748.39	20.0813
11.64739	750.5733	20.10083
11.6507	738.275	20.1204
11.6519	746.7464	20.1399
11.6519	755.436	20.1594
11.6541	746.6413	20.179
11.6552	747.079	20.1985
11.657	757.245	20.218
11.658	746.295	20.2375
11.6614	750.08	20.25708
11.6633	756.142	20.2766
11.6632	752.917	20.2961
11.6651	750.271	20.3157
11.6664	759.488	20.3352
11.6691	753.06	20.3547
11.6708	750.806	20.3743
11.6726	758.7	20.3938
11.6728	762.391	20.41333
11.6756	753.87	20.4329
11.6764	758.623	20.4524
11.6779	760.134	20.4719
11.6802	758.394	20.4915
11.6826	760.547	20.511
11.6828	765.948	20.5305
11.6847	761.265	20.55
11.6856	758.644	20.56958
11.6882	768.252	20.5891
11.6895	766.309	20.6086
11.6916	758.599	20.6282
11.6931	768.591	20.6477
11.6952	769.387	20.6672
11.69609	760.551	20.6868
11.6984	767.698	20.7063
11.6996	771.319	20.72583
11.7019	765.979	20.7454
11.7029	770.6015	20.7649
11.705	774.819	20.7844
11.7057	764.709	20.804
11.7082	769.371	20.8235
11.7098	777.637	20.843
11.71042	772.977	20.8625
11.7129	768.31	20.88208
11.7144	780.428	20.9016
11.7167	771.004	20.9211
11.7178	772.172	20.9407
11.719	779.89	20.9602
11.7208	779.199	20.9797
11.7225	772.6239	20.9993
11.7236	781.667	21.0188
11.72611	778.617	21.03833
11.727	775.619	21.0579
11.7292	779.617	21.0774
11.7311	787.215	21.0969
11.7332	778.868	21.1165
11.73397	779.987	21.136
11.7359	784.351	21.1555
11.7376	782.972	21.175
11.7395	779.345	21.19458
11.7401	789.223	21.2141
11.742	785.45	21.2336
11.7432	779.3443	21.2532
11.7453	788.219	21.2727
11.7477	790.783	21.2922
11.74735	780.819	21.3118
11.7509	789.884	21.3313
11.7517	793.545	21.35083
11.7537	781.7608	21.3704
11.7553	786.881	21.3899
11.7574	794.163	21.4094
11.7585	788.005	21.429
11.7604	790.26	21.4485
11.7623	799.793	21.468
11.7631	787.1319	21.4875
11.7643	790.386	21.50708
11.7663	798.045	21.5266
11.7674	796.809	21.5461
11.7693	788.4765	21.5657
11.771	800.218	21.5852
11.7737	794.618	21.6047
11.7738	794.548	21.6243
11.7758	799.038	21.6438
11.7783	803.285	21.66333
11.7794	794.008	21.6829
11.7813	799.932	21.7024
11.78273	801.947	21.7219
11.78519	798.5423	21.7415
11.7855	799.62	21.761
11.78769	808.408	21.7805
11.79	802.42	21.8
11.7914	799.582	21.81958
11.7934	805.664	21.8391
11.7935	805.5058	21.8586
11.7963	801.3139	21.8782
11.7972	810.264	21.8977
11.7994	809.589	21.9172
11.8008	800.497	21.9368
11.8021	808.144	21.9563
11.8042	813.997	21.97583
11.8053	805.747	21.9954
11.8059	808.144	22.0149
11.8094	816.112	22.0344
11.8112	803.243	22.054
11.8117	808.336	22.0735
11.8133	814.856	22.093
11.8163	810.909	22.1125
11.8165	807.585	22.13208
11.8192	819.355	22.1516
11.81992	810.573	22.1711
11.821	808.247	22.1907
11.8235	820.3172	22.2102
11.8262	820.5799	22.2297
11.8265	811.036	22.2493
11.8278	818.614	22.2688
11.8308	817.944	22.28833
11.8314	815.4082	22.3079
11.8323	819.632	22.3274
11.83434	823.951	22.3469
11.83628	816.523	22.3665
11.83823	818.601	22.386
11.8387	822.528	22.4055
11.8417	820.68	22.425
11.8434	818.0827	22.44458
11.8448	825.568	22.4641
11.8463	821.519	22.4836
11.8473	815.849	22.5032
11.8486	824.159	22.5227
11.8509	824.991	22.5422
11.85196	820.06	22.5618
11.8551	828.589	22.5813
11.8567	830.45	22.60083
11.8577	817.496	22.6204
11.8588	825.621	22.6399
11.861	831.793	22.6594
11.8623	826.824	22.679
11.8647	825.781	22.6985
11.8661	834.203	22.718
11.8672	824.396	22.7375
11.8695	825.906	22.75708
11.8708	833.534	22.7766
11.8731	830.984	22.7961
11.8742	825.893	22.8157
11.8766	837.051	22.8352
11.8764	830.852	22.8547
11.87878	828.007	22.8743
11.88	832.517	22.8938
11.88155	837.1637	22.91333
11.8836	829.868	22.9329
11.8842	834.486	22.9524
11.8863	836.263	22.9719
11.8891	832.584	22.9915
11.8909	833.431	23.011
11.8917	842.848	23.0305
11.8925	836.262	23.05
11.8943	833.228	23.06958
11.8975	840.107	23.0891
11.8982	840.51	23.1086
11.9003	834.872	23.1282
11.9016	840.784	23.1477
11.9038	841.493	23.1672
11.905	834.127	23.1868
11.9056	840.664	23.2063
11.9084	844.729	23.22583
11.9089	837.812	23.2454
11.9116	841.392	23.2649
11.9122	849.272	23.2844
11.9147	836.107	23.304
11.9163	842.474	23.3235
11.9179	849.673	23.343
11.919	844.79	23.3625
11.92154	841.991	23.38208
11.9232	851.582	23.4016
11.925	841.957	23.4211
11.9257	843.616	23.4407
11.9278	851.349	23.4602
11.9302	850.059	23.4797
11.9312	841.8092	23.4993
11.9314	850.264	23.5188
11.9348	850.672	23.53833
11.9358	844.969	23.5579
11.938	847.356	23.5774
11.9388	854.374	23.5969
11.9399	845.889	23.6165
11.9425	849.3418	23.636
11.9442	851.617	23.6555
11.9457	849.697	23.675
11.9472	849.309	23.69458
11.9483	857.03	23.7141
11.9498	853.229	23.7336
11.9521	846.282	23.7532
11.9535	853.688	23.7727
11.9561	856.952	23.7922
11.9562	849.573	23.8118
11.9589	856.069	23.8313
11.9593	858.694	23.85083
11.9623	847.92	23.8704
11.9639	856.083	23.8899
11.965	860.193	23.9094
11.9665	852.28	23.929
11.9676	855.37	23.9485
11.9693	863.73	23.968
11.9716	851.2688	23.9875
11.9721	854.149	24.00708
11.9751	861.83	24.0266
11.9767	860.5224	24.0461
11.9772	854.48	24.0657
11.9792	863.164	24.0852
11.9805	858.318	24.1047
11.9826	855.443	24.1243
11.9844	862.447	24.1438
11.9863	865.057	24.16333
11.9883	855.569	24.1829
11.9899	858.874	24.2024
11.9901	862.116	24.2219
11.9926	859.976	24.2415
11.9945	858.286	24.261
11.99604	867.6106	24.2805
11.9977	861.085	24.3
11.9986	858.303	24.31958
12.0003	864.284	24.3391
12.0015	863.316	24.3586
12.0039	858.708	24.3782
12.0059	868.457	24.3977
12.0071	867.51	24.4172
12.0098	857.496	24.4368
12.0105	864.336	24.4563
12.01192	870.721	24.47583
12.0134	860.74	24.4954
12.0158	864.584	24.5149
12.0166	871.627	24.5344
12.01847	859.34	24.554
12.0209	866.572	24.5735
12.0216	872.79	24.593
12.02313	865.179	24.6125
12.0264	862.618	24.63208
12.0264	873.229	24.6516
12.0289	864.951	24.6711
12.0299	863.098	24.6907
12.0305	869.624	24.7102
12.0332	871.89	24.7297
12.0346	864.853	24.7493
12.0373	872.263	24.7688
12.0374	868.668	24.78833
12.0394	865.756	24.8079
12.042	868.839	24.8274
12.0424	876.853	24.8469
12.0453	866.417	24.8665
12.046	866.7	24.886
12.0477	871.819	24.9055
12.0496	870.6402	24.925
12.0508	865.905	24.94458
12.0531	874.586	24.9641
12.0547	870.616	24.9836
12.0552	865.222	25.0032
12.0582	873.097	25.0227
12.06	873.16	25.0422
12.0608	866.729	25.0618
12.0616	874.714	25.0813
12.0646	877.784	25.10083
12.0661	864.032	25.1204
12.0681	870.722	25.1399
12.0692	877.649	25.1594
12.0712	870.894	25.179
12.0722	871.3299	25.1985
12.0745	879.6803	25.218
12.0761	868.186	25.2375
12.0777	869.647	25.25708
12.07931	877.772	25.2766
12.0803	873.72	25.2961
12.0825	868.422	25.3157
12.0846	878.76	25.3352
12.0849	874.339	25.3547
12.0866	870.571	25.3743
12.0881	873.768	25.3938
12.0891	879.418	25.41333
12.0915	870.49	25.4329
12.0922	877.453	25.4524
12.0949	875.673	25.4719
12.096	872.287	25.4915
12.0978	871.88	25.511
12.0996	880.643	25.5305
12.1021	874.4	25.55
12.1022	868.934	25.56958
12.1045	876.972	25.5891
12.1074	876.819	25.6086
12.1083	869.501	25.6282
12.11	876.893	25.6477
12.111	877.207	25.6672
12.1133	869.677	25.6868
12.1147	875.792	25.7063
12.11721	880.18	25.72583
12.1179	870.631	25.7454
12.11968	875.973	25.7649
12.1212	882.147	25.7844
12.1217	869.806	25.804
12.124	873.865	25.8235
12.1264	879.256	25.843
12.1276	875.243	25.8625
12.1289	871.172	25.88208
12.1304	881.366	25.9016
12.1335	870.948	25.9211
12.1346	872.226	25.9407
12.13633	880	25.9602
12.1377	880.886	25.9797
12.1385	869.042	25.9993
12.1417	878.776	26.0188
12.1422	877.798	26.03833
12.1427	872.994	26.0579
12.1456	874.956	26.0774
12.1475	881.754	26.0969
12.1489	872.183	26.1165
12.1501	874.92	26.136
12.1515	877.8869	26.1555
12.1541	874.225	26.175
12.155	871.23	26.19458
12.1579	880.8598	26.2141
12.1596	876.613	26.2336
12.1595	868.937	26.2532
12.1623	877.393	26.2727
12.1632	879.575	26.2922
12.1645	872.35	26.3118
12.1675	877.55	26.3313
12.1677	879.72	26.35083
12.1702	868.396	26.3704
12.1719	873.718	26.3899
12.1734	882.8349	26.4094
12.1751	872.873	26.429
12.1768	872.595	26.4485
12.1771	883.428	26.468
12.1794	871.8493	26.4875
12.1806	872.072	26.50708
12.1827	879.006	26.5266
12.1849	876.949	26.5461
12.1872	873.971	26.5657
12.188	879.389	26.5852
12.1891	873.081	26.6047
12.1909	870.953	26.6243
12.1924	877.66	26.6438
12.194	882.233	26.66333
12.1954	870.649	26.6829
12.1976	875.551	26.7024
12.1996	875.697	26.7219
12.2013	874.256	26.7415
12.2025	872.5542	26.761
12.20329	879.008	26.7805
12.2065	873.093	26.8
12.2076	873.058	26.81958
12.2098	876.36	26.8391
12.2108	875.0473	26.8586
12.2124	869.1	26.8782
12.2138	878.045	26.8977
12.2154	878.213	26.9172
12.217	866.242	26.9368
12.2171	872.782	26.9563
12.2203	878.9718	26.97583
12.2222	870.304	26.9954
12.2233	874.359	27.0149
12.2248	877.872	27.0344
12.2262	866.175	27.054
12.2291	868.857	27.0735
12.23104	878.852	27.093
12.2314	871.087	27.1125
12.2335	868.867	27.13208
12.2353	878.781	27.1516
12.2375	870.608	27.1711
12.2387	868.031	27.1907
12.2402	875.654	27.2102
12.242	875.858	27.2297
12.2443	867.553	27.2493
12.2452	875.417	27.2688
12.246	871.807	27.28833
12.2489	866.263	27.3079
12.2499	871.149	27.3274
12.2526	878.826	27.3469
12.2526	868.103	27.3665
12.2549	868.934	27.386
12.2573	873.675	27.4055
12.25842	873.053	27.425
12.2585	868.44	27.44458
12.261	876.321	27.4641
12.2629	870.57	27.4836
12.2647	865.248	27.5032
12.2658	872.1673	27.5227
12.2667	872.5639	27.5422
12.2686	863.669	27.5618
12.2714	872.341	27.5813
12.2729	876.098	27.60083
12.2733	863.285	27.6204
12.2764	867.537	27.6399
12.2777	875.478	27.6594
12.279	868.129	27.679
12.2802	867.619	27.6985
12.2821	875.725	27.718
12.2847	863.418	27.7375
12.2863	865.759	27.75708
12.2878	873.558	27.7766
12.2887	872.523	27.7961
12.2905	863.393	27.8157
12.2924	872.113	27.8352
12.2936	868.296	27.8547
12.29587	865.596	27.8743
12.29703	871.94	27.8938
12.2982	874.275	27.91333
12.3001	863.803	27.9329
12.3025	870.177	27.9524
12.3037	871.152	27.9719
12.3052	865.975	27.9915
12.3059	864.88	28.011
12.3087	874.249	28.0305
12.3101	866.634	28.05
12.3115	862.717	28.06958
12.3136	868.888	28.0891
12.3147	869.676	28.1086
12.3172	862.889	28.1282
12.31834	870.6944	28.1477
12.31941	870.162	28.1672
12.3216	860.011	28.1868
12.323	868.148	28.2063
12.3252	872.252	28.22583
12.3262	860.592	28.2454
12.328	865.604	28.2649
12.3291	873.002	28.2844
12.3307	860.353	28.304
12.3315	863.221	28.3235
12.33433	870.523	28.343
12.3353	864.3562	28.3625
12.3377	863.377	28.38208
12.339	872.411	28.4016
12.3411	862.364	28.4211
12.3428	859.483	28.4407
12.3435	868.5741	28.4602
12.3464	868.015	28.4797
12.3463	859.946	28.4993
12.34982	866.038	28.5188
12.3502	863.618	28.53833
12.3523	861.136	28.5579
12.3545	865.659	28.5774
12.3562	870.387	28.5969
12.3571	859.429	28.6165
12.3583	862.972	28.636
12.3619	866.443	28.6555
12.3618	863.377	28.675
12.3642	860.378	28.69458
12.3643	868.568	28.7141
12.367	865.419	28.7336
12.3694	857.5705	28.7532
12.37002	863.022	28.7727
12.3714	865.664	28.7922
12.3728	857.997	28.8118
12.3762	865.493	28.8313
12.3762	868.73	28.85083
12.3789	854.333	28.8704
12.3802	860.707	28.8899
12.38188	868.806	28.9094
12.3832	859.716	28.929
12.3841	860.0249	28.9485
12.3862	868.785	28.968
12.388	858.42	28.9875
12.389	859.572	29.00708
12.392	866.681	29.0266
12.39326	861.936	29.0461
12.3954	855.9	29.0657
12.39657	866.037	29.0852
12.3982	860.138	29.1047
12.39931	856.7771	29.1243
12.4006	861.851	29.1438
12.4033	866.509	29.16333
12.4053	856.209	29.1829
12.4059	861.386	29.2024
12.4081	862.238	29.2219
12.409	860.311	29.2415
12.4104	860.108	29.261
12.41239	865.81	29.2805
12.4142	857.997	29.3
12.4159	856.191	29.31958
12.4174	861.1817	29.3391
12.4191	860.71	29.3586
12.4202	853.665	29.3782
12.4223	864.125	29.3977
12.424	862.907	29.4172
12.426	853.649	29.4368
12.4274	857.846	29.4563
12.4288	862.734	29.47583
12.4298	853.676	29.4954
12.4317	858.483	29.5149
12.434	864.779	29.5344
12.4357	851.785	29.554
12.4365	855.669	29.5735
12.4391	861.9198	29.593
12.439	858.729	29.6125
12.4417	853.905	29.63208
12.443	863.262	29.6516
12.4454	854.192	29.6711
12.4468	852.897	29.6907
12.44797	862.052	29.7102
12.4515	860.455	29.7297
12.4502	852.017	29.7493
12.454	860.676	29.7688
12.4545	855.428	29.78833
12.4554	853.4397	29.8079
12.4576	856.186	29.8274
12.4595	863.415	29.8469
12.4621	854.799	29.8665
12.4624	855.268	29.886
12.4658	857.856	29.9055
12.4671	854.403	29.925
12.4673	854.277	29.94458
12.4687	861.606	29.9641
12.4705	856.575	29.9836
12.4725	849.236	30.0032
12.4736	857.235	30.0227
12.4768	860.298	30.0422
12.4777	851.311	30.0618
12.4787	856.891	30.0813
12.4805	859.491	30.10083
12.4826	850.033	30.1204
12.4842	853.1767	30.1399
12.48517	859.978	30.1594
12.4871	851.775	30.179
12.4897	852.346	30.1985
12.4905	861.647	30.218
12.493	849.998	30.2375
12.4942	850.617	30.25708
12.4954	859.4	30.2766
12.4987	857.95	30.2961
12.4981	849.822	30.3157
12.50084	858.891	30.3352
12.5019	851.772	30.3547
12.5036	851.317	30.3743
12.5051	856.814	30.3938
12.50667	859.7442	30.41333
12.5082	848.354	30.4329
12.5095	856.672	30.4524
12.512	856.903	30.4719
12.5131	852.555	30.4915
12.5144	851.812	30.511
12.51666	860.076	30.5305
12.5181	852.21	30.55
12.5191	850.382	30.56958
12.5223	855.2984	30.5891
12.5223	854.225	30.6086
12.5249	849.07	30.6282
12.526	858.334	30.6477
12.528	856.567	30.6672
12.52934	846.096	30.6868
12.5304	853.034	30.7063
12.5335	858.927	30.72583
12.5351	849.666	30.7454
12.5357	851.681	30.7649
12.53739	858.48	30.7844
12.5387	845.716	30.804
12.541	851.506	30.8235
12.5431	858.55	30.843
12.5448	851.656	30.8625
12.5458	848.5946	30.88208
12.5478	859.513	30.9016
12.5491	849.646	30.9211
12.5512	847.654	30.9407
12.5526	855.1507	30.9602
12.5544	855.803	30.9797
12.5548	848.288	30.9993
12.558	855.214	31.0188
12.5591	851.241	31.03833
12.5609	848.753	31.0579
12.562	851.414	31.0774
12.5643	858.918	31.0969
12.566	847.513	31.1165
12.5664	848.751	31.136
12.5682	853.631	31.1555
12.5694	852.365	31.175
12.5719	847.513	31.19458
12.5739	856.893	31.2141
12.5752	851.0011	31.2336
12.5776	846.3963	31.2532
12.5775	852.871	31.2727
12.5799	854.571	31.2922
12.581	846.027	31.3118
12.5833	856.819	31.3313
12.58459	855.862	31.35083
12.5863	844.975	31.3704
12.5883	846.853	31.3899
12.5897	855.3739	31.4094
12.5917	849.195	31.429
12.593	848.597	31.4485
12.5946	856.756	31.468
12.5969	844.755	31.4875
12.5983	847.478	31.50708
12.6	857.047	31.5266
12.6013	852.667	31.5461
12.6029	845.136	31.5657
12.6044	855.044	31.5852
12.6078	850.5517	31.6047
12.6082	845.045	31.6243
12.6105	851.4245	31.6438
12.6102	857.216	31.66333
12.6129	845.783	31.6829
12.6146	849.371	31.7024
12.6148	849.727	31.7219
12.6178	847.485	31.7415
12.619	847.934	31.761
12.6198	857.7627	31.7805
12.6229	847.7962	31.8
12.6236	845.5896	31.81958
12.62561	851.481	31.8391
12.628	853.979	31.8586
12.6289	846.172	31.8782
12.6309	852.974	31.8977
12.6316	852.6084	31.9172
12.6349	843.407	31.9368
12.6361	847.789	31.9563
12.6371	853.386	31.97583
12.6393	843.587	31.9954
12.6401	848.62	32.0149
12.6422	855.79	32.0344
12.6429	843.025	32.054
12.6459	843.531	32.0735
12.6466	854.278	32.093
12.6488	849.238	32.1125
12.6498	845.522	32.13208
12.6519	853.903	32.1516
12.6534	845.284	32.1711
12.6557	843.245	32.1907
12.6572	852.416	32.2102
12.6591	851.981	32.2297
12.6602	842.147	32.2493
12.6617	850.622	32.2688
12.664	849.2121	32.28833
12.6642	845.26	32.3079
12.66585	847.259	32.3274
12.6685	852.597	32.3469
12.6688	844.605	32.3665
12.671	848.467	32.386
12.6729	849.995	32.4055
12.6747	848.898	32.425
12.6769	843.159	32.44458
12.677	852.682	32.4641
12.6793	848.895	32.4836
12.681	841.924	32.5032
12.68369	847.192	32.5227
12.6839	850.076	32.5422
12.6857	842.703	32.5618
12.6883	847.5188	32.5813
12.68916	851.847	32.60083
12.6903	840.783	32.6204
12.6931	846.262	32.6399
12.694	852.835	32.6594
12.6952	843.13	32.679
12.6984	843.777	32.6985
12.6986	853.2829	32.718
12.7	843.846	32.7375
12.7028	843.053	32.75708
12.7036	850.108	32.7766
12.7063	847.7821	32.7961
12.7068	841.223	32.8157
12.70869	852.342	32.8352
12.7103	845.753	32.8547
12.7122	840.382	32.8743
12.714	849.033	32.8938
12.7156	852.401	32.91333
12.7158	841.488	32.9329
12.7188	846.998	32.9524
12.7195	847.803	32.9719
12.7225	844.644	32.9915
12.7237	844.266	33.011
12.7252	854.2113	33.0305
12.7268	843.654	33.05
12.7283	843.6109	33.06958
12.729	849.564	33.0891
12.7319	848.55	33.1086
12.7327	840.64	33.1282
12.734	850.47	33.1477
12.73664	850.05	33.1672
12.7381	840.534	33.1868
12.7398	844.5683	33.2063
12.7415	850.359	33.22583
12.7433	843.072	33.2454
12.7453	845.276	33.2649
12.7463	850.817	33.2844
12.7478	838.834	33.304
12.7499	841.771	33.3235
12.751	854.208	33.343
12.753	843.769	33.3625
12.7556	838.023	33.38208
12.7558	850.297	33.4016
12.7592	843.723	33.4211
12.7598	840.133	33.4407
12.7601	847.536	33.4602
12.7618	849.023	33.4797
12.7642	839.262	33.4993
12.7659	849.225	33.5188
12.7676	846.442	33.53833
12.7691	840.459	33.5579
12.7704	843.625	33.5774
12.7726	852.191	33.5969
12.7737	842.302	33.6165
12.77481	842.755	33.636
12.7763	846.935	33.6555
12.7789	845.479	33.675
12.7798	841.495	33.69458
12.7817	851.559	33.7141
12.78388	844.04	33.7336
12.7853	841.1684	33.7532
12.7871	846.313	33.7727
12.7884	849.682	33.7922
12.7905	838.671	33.8118
12.791	846.808	33.8313
12.795	849.495	33.85083
12.7948	839.024	33.8704
12.7961	842.04	33.8899
12.79831	851.001	33.9094
12.8003	841.498	33.929
12.80125	843.424	33.9485
12.8024	850.875	33.968
12.8051	839.215	33.9875
12.8066	839.826	34.00708
12.8084	850.351	34.0266
12.809	847.265	34.0461
12.8114	838.8429	34.0657
12.8133	848.758	34.0852
12.8145	844.042	34.1047
12.816	839.198	34.1243
12.818	846.78	34.1438
12.8191	849.522	34.16333
12.8209	839.7182	34.1829
12.8235	846.746	34.2024
12.8231	846.587	34.2219
12.82574	840.794	34.2415
12.8279	841.715	34.261
12.82989	851.592	34.2805
12.83081	844.823	34.3
12.8317	842.576	34.31958
12.8337	844.098	34.3391
12.836	844.801	34.3586
12.8378	840.216	34.3782
12.8391	848.617	34.3977
12.8413	845.698	34.4172
12.8419	837.539	34.4368
12.8431	842.462	34.4563
12.8463	849.722	34.47583
12.8469	837.461	34.4954
12.8484	842.748	34.5149
12.8509	848.495	34.5344
12.8533	837.947	34.554
12.8532	839.123	34.5735
12.8559	848.973	34.593
12.8574	841.8205	34.6125
12.8582	840.234	34.63208
12.8603	849.92	34.6516
12.862	838.656	34.6711
12.863	835.708	34.6907
12.8651	846.86	34.7102
12.867	846.035	34.7297
12.8678	837.4397	34.7493
12.8702	844.758	34.7688
12.8725	844.589	34.78833
12.8741	839.009	34.8079
12.87388	843.02	34.8274
12.8758	848.694	34.8469
12.8783	839.564	34.8665
12.8802	841.6897	34.886
12.8814	847.026	34.9055
12.8832	843.245	34.925
12.8848	838.426	34.94458
12.8859	848.878	34.9641
12.8882	844.863	34.9836
12.8899	837.905	35.0032
12.8912	842.724	35.0227
12.8924	846.113	35.0422
12.8937	838.042	35.0618
12.8956	847.032	35.0813
12.8971	848.662	35.10083
12.8994	835.139	35.1204
12.9013	838.862	35.1399
12.9021	849.41	35.1594
12.9041	839.53	35.179
12.9051	840.998	35.1985
12.9079	847.942	35.218
12.9098	838.596	35.2375
12.9105	837.047	35.25708
12.9117	846.996	35.2766
12.9139	842.929	35.2961
12.9161	837.82	35.3157
12.9174	848.078	35.3352
12.9192	843.037	35.3547
12.9202	836.088	35.3743
12.92207	843.941	35.3938
12.92395	846.696	35.41333
12.9243	836.186	35.4329
12.9268	843.636	35.4524
12.9269	843.0603	35.4719
12.9296	839.2561	35.4915
12.9311	840.485	35.511
12.9331	849.352	35.5305
12.9345	838.988	35.55
12.9365	838.397	35.56958
12.9378	843.932	35.5891
12.9393	845.388	35.6086
12.94197	835.627	35.6282
12.9437	846.5329	35.6477
12.945	843.518	35.6672
12.946	838.864	35.6868
12.9473	841.702	35.7063
12.9497	846.489	35.72583
12.95133	835.5824	35.7454
12.9534	842.605	35.7649
12.9539	845.443	35.7844
12.9564	836.284	35.804
12.9571	834.9469	35.8235
12.9596	849.141	35.843
12.9606	840.371	35.8625
12.9634	836.7085	35.88208
12.96438	846.328	35.9016
12.966	838.099	35.9211
12.9671	835.833	35.9407
12.9684	846.618	35.9602
12.97	845.056	35.9797
12.9719	834.173	35.9993
12.974	845.835	36.0188
12.9768	841.671	36.03833
12.9769	835.946	36.0579
12.9795	840.722	36.0774
12.9798	846.969	36.0969
12.9823	836.728	36.1165
12.9836	839.359	36.136
12.9858	842.78	36.1555
12.987	838.979	36.175
12.989	837.85	36.19458
12.9906	848.143	36.2141
12.992	840.861	36.2336
12.9941	834.473	36.2532
12.99582	841.914	36.2727
12.9974	845.293	36.2922
12.9977	835.237	36.3118
12.9996	843.587	36.3313
13.0008	845.868	36.35083
13.0031	835.618	36.3704
13.0039	837.966	36.3899
13.007	846.178	36.4094
13.0092	837.01	36.429
13.0085	838.108	36.4485
13.0117	847.101	36.468
13.0124	836.302	36.4875
13.014	835.144	36.50708
13.0159	845.731	36.5266
13.01932	840.946	36.5461
13.0195	836.489	36.5657
13.0213	845.752	36.5852
13.0221	839.612	36.6047
13.0242	832.121	36.6243
13.0266	844.066	36.6438
13.0278	846.004	36.66333
13.0295	834.595	36.6829
13.031	840.837	36.7024
13.0321	843.118	36.7219
13.0342	838.437	36.7415
13.0364	838.184	36.761
13.038	846.6	36.7805
13.0389	838.356	36.8
13.0413	838.523	36.81958
13.0414	841.485	36.8391
13.0444	841.703	36.8586
13.0452	834.957	36.8782
13.0471	844.936	36.8977
13.0498	842.583	36.9172
13.0499	835.971	36.9368
13.0524	837.994	36.9563
13.0539	845.698	36.97583
13.0559	836.439	36.9954
13.0575	840.95	37.0149
13.058	844.813	37.0344
13.0594	835.596	37.054
13.0614	836.703	37.0735
13.0642	846.95	37.093
13.0659	837.971	37.1125
13.0667	835.084	37.13208
13.0684	845.941	37.1516
13.07002	839.023	37.1711
13.0711	833.044	37.1907
13.0728	842.402	37.2102
13.07492	841.969	37.2297
13.0753	834.296	37.2493
13.0781	841.669	37.2688
13.0795	840.951	37.28833
13.0816	832.1814	37.3079
13.083	840.04	37.3274
13.08539	845.499	37.3469
13.0865	834.248	37.3665
13.0879	837.204	37.386
13.0897	843.135	37.4055
13.0908	838.021	37.425
13.0919	834.691	37.44458
13.0951	845.81	37.4641
13.0956	838.377	37.4836
13.097	835.6687	37.5032
13.0986	840.685	37.5227
13.1007	842.338	37.5422
13.1029	832.566	37.5618
13.1039	843.0824	37.5813
13.1066	844.401	37.60083
13.10771	833.704	37.6204
13.1082	834.222	37.6399
13.111	844.092	37.6594
13.1133	836.646	37.679
13.1138	835.887	37.6985
13.1155	844.495	37.718
13.1173	836.457	37.7375
13.1191	830.7121	37.75708
13.1205	846.7265	37.7766
13.1216	839.655	37.7961
13.1239	833.194	37.8157
13.1253	843.016	37.8352
13.1271	839.594	37.8547
13.1285	831.6532	37.8743
13.1308	840.003	37.8938
13.1323	842.154	37.91333
13.1328	833.3327	37.9329
13.1355	841.119	37.9524
13.1374	840.269	37.9719
13.1384	833.4801	37.9915
13.1397	834.7995	38.011
13.1411	845.438	38.0305
13.14312	836.671	38.05
13.145	834.432	38.06958
13.1469	839.82	38.0891
13.1491	840.35	38.1086
13.14911	832.9632	38.1282
13.1511	842.937	38.1477
13.1533	839.571	38.1672
13.1551	834.3017	38.1868
13.15743	836.239	38.2063
13.1574	843.181	38.22583
13.1599	831.411	38.2454
13.1614	840.571	38.2649
13.1633	843.214	38.2844
13.1635	835.123	38.304
13.16581	833.3349	38.3235
13.1671	845.33	38.343
13.1695	837.204	38.3625
13.1706	835.365	38.38208
13.1721	843.702	38.4016
13.1747	834.81	38.4211
13.1746	829.835	38.4407
13.1769	844.144	38.4602
13.17872	840.906	38.4797
13.1804	831.694	38.4993
13.1829	838.415	38.5188
13.1834	838.535	38.53833
13.1869	830.605	38.5579
13.1871	837.448	38.5774
13.19036	842.965	38.5969
13.1918	832.741	38.6165
13.19262	837.605	38.636
13.1946	839.284	38.6555
13.1954	834.062	38.675
13.1961	832.25	38.69458
13.19954	843.506	38.7141
13.2009	839.07	38.7336
13.20172	832.44	38.7532
13.2041	835.648	38.7727
13.2062	840.924	38.7922
13.2079	831.6424	38.8118
13.2083	840.597	38.8313
13.2109	839.14	38.85083
13.21248	831.3233	38.8704
13.2138	833.336	38.8899
13.215	843.556	38.9094
13.217	832.5191	38.929
13.2183	832.562	38.9485
13.2205	841.5014	38.968
13.2213	834.843	38.9875
13.223	829.671	39.00708
13.2254	842.394	39.0266
13.2267	836.578	39.0461
13.2287	833.658	39.0657
13.2288	840.271	39.0852
13.2311	836.73	39.1047
13.234	827.218	39.1243
13.23476	837.872	39.1438
13.236	841.487	39.16333
13.23788	831.873	39.1829
13.239	836.493	39.2024
13.2411	838.88	39.2219
13.2426	832.009	39.2415
13.244	834.046	39.261
13.2461	842.737	39.2805
13.247	832.808	39.3
13.2487	831.715	39.31958
13.2502	838.2948	39.3391
13.252	836.073	39.3586
13.254	830.301	39.3782
13.255	840.564	39.3977
13.2573	836.5824	39.4172
13.2585	830.3042	39.4368
13.2598	833.17	39.4563
13.2624	840.381	39.47583
13.2641	829.344	39.4954
13.2654	837.59	39.5149
13.2664	841.781	39.5344
13.269	831.555	39.554
13.2703	830.06	39.5735
13.2719	843.092	39.593
13.2734	834.645	39.6125
13.2755	830.927	39.63208
13.2759	839.846	39.6516
13.2781	834.839	39.6711
13.2796	827.561	39.6907
13.2816	839.059	39.7102
13.2831	836.961	39.7297
13.2853	829.454	39.7493
13.2863	837.328	39.7688
13.2876	836.557	39.78833
13.2889	827.679	39.8079
13.2912	835.342	39.8274
13.2929	842.38	39.8469
13.2955	829.475	39.8665
13.2972	832.641	39.886
13.2986	835.599	39.9055
13.3007	830.834	39.925
13.3013	831.459	39.94458
13.3031	839.906	39.9641
13.3042	833.857	39.9836
13.3068	829.623	40.0032
13.307	832.167	40.0129

Data Header:			0.254_hd_uprint_typei_090_r0			Time:	43.4502	s	4/15/2019 4:00:33 PM
Data Acquisition:	Timed
Station Name:	ft40.cfg
Test File Name:	monotonic_0.2540_typei_hd_090_uprint.tst
Displacement	Force	Running Time
mm	N	s
13.3076	835.2	40.0227
13.3079	837.62	40.0325
13.30842	837.61	40.0422
13.3101	830.982	40.052
13.3109	827.306	40.0618
13.3114	829.8728	40.0715
13.3129	836.418	40.0813
13.3129	837.689	40.0911
13.31459	838.486	40.10083
13.3147	832.358	40.1106
13.3159	831.066	40.1204
13.31643	828.715	40.1301
13.3188	830.785	40.1399
13.318	838.028	40.1497
13.31881	839.626	40.1594
13.3206	836.758	40.1692
13.3201	828.242	40.179
13.3217	826.146	40.1887
13.323	832.9198	40.1985
13.3235	835.111	40.2083
13.3237	838.103	40.218
13.3246	834.864	40.2278
13.3256	831.157	40.2375
13.326	830.349	40.2473
13.327	825.498	40.25708
13.328	833.889	40.2668
13.3288	839.472	40.2766
13.33	839.178	40.2864
13.3302	835.214	40.2961
13.3311	824.129	40.3059
13.332	829.198	40.3157
13.3336	833.942	40.3254
13.3335	836.855	40.3352
13.3349	838.665	40.345
13.3357	833.158	40.3547
13.33555	830.98	40.3645
13.3363	825.419	40.3743
13.3388	828.985	40.384
13.3384	836.043	40.3938
13.3399	839.1499	40.4036
13.3401	837.957	40.41333
13.3419	828.758	40.4231
13.3411	826.454	40.4329
13.3433	830.618	40.4426
13.3438	834.718	40.4524
13.3434	836.612	40.4622
13.3449	837.219	40.4719
13.3464	835.359	40.4817
13.34671	828.155	40.4915
13.3476	827.546	40.5012
13.3479	830.461	40.511
13.3484	837.448	40.5208
13.3507	839.311	40.5305
13.3519	831.539	40.5403
13.3512	831.304	40.55
13.3533	827.799	40.5598
13.3535	830.667	40.56958
13.3548	835.122	40.5793
13.3547	833.343	40.5891
13.3561	837.791	40.5989
13.3567	832.607	40.6086
13.3575	827.77	40.6184
13.3585	826.629	40.6282
13.3602	830.666	40.6379
13.3603	837.778	40.6477
13.3599	832.965	40.6575
13.3612	834.109	40.6672
13.3633	831.474	40.677
13.3643	826.362	40.6868
13.3638	830.612	40.6965
13.36521	828.388	40.7063
13.3657	836.675	40.7161
13.366	836.62	40.72583
13.36706	829.623	40.7356
13.3672	826.179	40.7454
13.3691	824.589	40.7551
13.36892	832.744	40.7649
13.3706	834.715	40.7747
13.3706	834.668	40.7844
13.3713	830.679	40.7942
13.374	828.8031	40.804
13.3731	826.81	40.8137
13.3737	826.544	40.8235
13.3755	832.795	40.8333
13.3762	838.168	40.843
13.3777	833.84	40.8528
13.3777	827.654	40.8625
13.3788	822.096	40.8723
13.38019	826.687	40.88208
13.37961	828.745	40.8918
13.3803	835.446	40.9016
13.3826	832.05	40.9114
13.3832	829.058	40.9211
13.3837	825.635	40.9309
13.3845	818.81	40.9407
13.3839	828.538	40.9504
13.3859	832.505	40.9602
13.3867	833.629	40.97
13.3869	830.2995	40.9797
13.3879	820.164	40.9895
13.3886	820.734	40.9993
13.3963	-84.5714	41.009
13.3969	3.08957	41.0188
13.39646	-43.8899	41.0286
13.3969	-45.4358	41.03833
13.3969	-60.1643	41.0481
13.3962	-52.4156	41.0579
13.3969	-49.3722	41.0676
13.3972	-45.1202	41.0774
13.3982	-43.091	41.0872
13.3981	-43.1288	41.0969
13.3994	-50.6257	41.1067
13.4002	-54.7551	41.1165
13.4	-50.3787	41.1262
13.4015	-49.1194	41.136
13.4014	-46.6328	41.1458
13.4023	-44.3677	41.1555
13.4044	-44.3303	41.1653
13.4041	-52.4949	41.175
13.4057	-53.7938	41.1848
13.4063	-52.77306	41.19458
13.4067	-46.1594	41.2043
13.407	-45.0048	41.2141
13.4092	-47.6631	41.2239
13.4103	-48.49	41.2336
13.41094	-51.8731	41.2434
13.4113	-51.4724	41.2532
13.4122	-50.2084	41.2629
13.4121	-48.4786	41.2727
13.4131	-43.3075	41.2825
13.4138	-48.0354	41.2922
13.4156	-49.904	41.302
13.4166	-54.7091	41.3118
13.4159	-54.2149	41.3215
13.41761	-43.6993	41.3313
13.4172	-46.9019	41.3411
13.4191	-44.4363	41.35083
13.4204	-49.5316	41.3606
13.4207	-51.5683	41.3704
13.4213	-51.7342	41.3801
13.4226	-52.8233	41.3899
13.4226	-43.767	41.3997
13.4239	-41.951	41.4094
13.4246	-47.0675	41.4192
13.42589	-54.1119	41.429
13.4256	-56.2624	41.4387
13.4268	-48.9555	41.4485
13.4285	-46.1472	41.4583
13.4283	-43.5278	41.468
13.4291	-43.5	41.4778
13.43063	-47.8932	41.4875
13.4313	-53.2217	41.4973
13.4331	-55.2071	41.50708
13.4319	-48.2752	41.5168
13.4343	-41.5467	41.5266
13.4348	-42.4795	41.5364
13.4339	-48.436	41.5461
13.4357	-55.1046	41.5559
13.4365	-53.5579	41.5657
13.4372	-49.1753	41.5754
13.4383	-42.5348	41.5852
13.43909	-44.5974	41.595
13.4404	-45.6712	41.6047
13.4404	-50.2016	41.6145
13.4417	-56.1814	41.6243
13.4434	-49.5065	41.634
13.443	-45.7736	41.6438
13.4443	-42.9555	41.6536
13.4449	-43.7011	41.66333
13.4464	-54.7562	41.6731
13.4466	-50.4501	41.6829
13.4477	-52.0535	41.6926
13.4473	-48.1982	41.7024
13.449	-45.74955	41.7122
13.44924	-45.7167	41.7219
13.4504	-46.0928	41.7317
13.45188	-54.5099	41.7415
13.4526	-53.418	41.7512
13.45289	-49.9425	41.761
13.4538	-47.0023	41.7708
13.4542	-40.2886	41.7805
13.4567	-49.1053	41.7903
13.4563	-51.11919	41.8
13.457	-51.0684	41.8098
13.4572	-52.4088	41.81958
13.4593	-47.4495	41.8293
13.4591	-46.8	41.8391
13.4602	-44.145	41.8489
13.4603	-47.3824	41.8586
13.4624	-52.70982	41.8684
13.4623	-52.7099	41.8782
13.4622	-48.6194	41.8879
13.4646	-43.9634	41.8977
13.4643	-45.9616	41.9075
13.4657	-44.9554	41.9172
13.467	-49.20126	41.927
13.4676	-51.8294	41.9368
13.4686	-51.9611	41.9465
13.4692	-47.4492	41.9563
13.47049	-41.8345	41.9661
13.46964	-45.3241	41.97583
13.4708	-48.009	41.9856
13.4721	-55.3675	41.9954
13.4734	-53.501	42.0051
13.473	-47.9504	42.0149
13.4755	-46.4137	42.0247
13.476	-44.2316	42.0344
13.476	-47.1554	42.0442
13.4781	-50.7902	42.054
13.4784	-53.4677	42.0637
13.47852	-54.5395	42.0735
13.4798	-47.1145	42.0833
13.481	-41.5813	42.093
13.4816	-45.8119	42.1028
13.4814	-49.4371	42.1125
13.4837	-55.3931	42.1223
13.4839	-50.3637	42.13208
13.4846	-48.7458	42.1418
13.4848	-43.2154	42.1516
13.4864	-42.5829	42.1614
13.4865	-47.7095	42.1711
13.4878	-52.0402	42.1809
13.4887	-56.0595	42.1907
13.4891	-50.783	42.2004
13.4904	-42.8915	42.2102
13.4915	-42.56292	42.22
13.4921	-48.2152	42.2297
13.4927	-52.8462	42.2395
13.4939	-54.4628	42.2493
13.494	-49.0896	42.259
13.4955	-45.9639	42.2688
13.4964	-42.80677	42.2786
13.4963	-46.0927	42.28833
13.498	-47.9847	42.2981
13.499	-56.0185	42.3079
13.4986	-51.6499	42.3176
13.5004	-48.5925	42.3274
13.5016	-41.2211	42.3372
13.50121	-43.8855	42.3469
13.5032	-51.9928	42.3567
13.5032	-51.4196	42.3665
13.5047	-52.7371	42.3762
13.50574	-49.2773	42.386
13.5057	-46.4893	42.3958
13.5057	-45.84547	42.4055
13.5081	-43.3281	42.4153
13.5082	-53.4203	42.425
13.509	-52.7341	42.4348
13.5099	-51.5765	42.44458
13.5109	-47.2484	42.4543
13.5114	-42.7658	42.4641
13.51271	-47.6173	42.4739
13.5124	-47.7304	42.4836
13.51397	-50.4079	42.4934
13.5152	-52.6502	42.5032
13.5149	-48.524	42.5129
13.5153	-47.9992	42.5227
13.5176	-42.4787	42.5325
13.5182	-47.9444	42.5422
13.5189	-52.5213	42.552
13.5185	-52.7512	42.5618
13.5199	-53.4365	42.5715
13.5211	-45.4821	42.5813
13.5212	-46.6656	42.5911
13.5233	-46.3804	42.60083
13.5234	-47.8671	42.6106
13.5239	-52.374	42.6204
13.5252	-53.9928	42.6301
13.5272	-52.7273	42.6399
13.5262	-45.2429	42.6497
13.5269	-42.003	42.6594
13.5275	-45.9497	42.6692
13.5292	-54.5951	42.679
13.53	-55.1554	42.6887
13.5308	-49.1454	42.6985
13.53256	-48.7822	42.7083
13.5328	-41.9622	42.718
13.5327	-46.9667	42.7278
13.5339	-49.8059	42.7375
13.5342	-53.3062	42.7473
13.5358	-55.4089	42.75708
13.5362	-46.8759	42.7668
13.53775	-42.9723	42.7766
13.5378	-41.955	42.7864
13.5392	-48.371	42.7961
13.5402	-54.7823	42.8059
13.5418	-50.9779	42.8157
13.542	-50.2101	42.8254
13.5433	-44.3272	42.8352
13.5428	-43.31414	42.845
13.5438	-46.4334	42.8547
13.545	-48.4085	42.8645
13.5475	-56.5554	42.8743
13.5456	-51.7309	42.884
13.54659	-45.0215	42.8938
13.5483	-43.34457	42.9036
13.5499	-43.83	42.91333
13.5493	-53.3446	42.9231
13.5501	-51.078	42.9329
13.5507	-51.1971	42.9426
13.5524	-48.30349	42.9524
13.5535	-42.6474	42.9622
13.5531	-44.4242	42.9719
13.5539	-46.4355	42.9817
13.555	-52.4933	42.9915
13.5553	-53.93911	43.0012
13.5572	-51.1398	43.011
13.55792	-44.0276	43.0208
13.5589	-43.9724	43.0305
13.5585	-47.7349	43.0403
13.5596	-50.7466	43.05
13.5613	-52.71244	43.0598
13.5623	-51.0606	43.06958
13.5628	-50.5567	43.0793
13.5636	-46.8225	43.0891
13.5654	-43.99297	43.0989
13.5653	-50.0096	43.1086
13.5656	-51.5859	43.1184
13.5663	-53.5416	43.1282
13.5676	-50.9011	43.1379
13.569	-42.8351	43.1477
13.5689	-48.0247	43.1575
13.57	-46.0102	43.1672
13.572	-50.2263	43.177
13.5714	-52.9025	43.1868
13.5715	-51.1681	43.1965
13.5734	-51.1541	43.2063
13.5739	-43.351	43.2161
13.5744	-44.96035	43.22583
13.5758	-47.9408	43.2356
13.5767	-52.7868	43.2454
13.57709	-56.3724	43.2551
13.5787	-46.8389	43.2649
13.5786	-47.199	43.2747
13.5798	-44.5071	43.2844
13.58	-45.4279	43.2942
13.5815	-51.5146	43.304
13.5821	-52.8843	43.3137
13.5832	-52.8679	43.3235
13.5841	-47.5628	43.3333
13.5852	-40.9617	43.343
13.5852	-46.236	43.3528
13.5861	-50.8669	43.3625
13.5871	-55.7228	43.3723
13.5878	-52.6042	43.38208
13.5882	-49.9771	43.3918
13.5904	-43.7378	43.4016
13.59096	-44.5659	43.4114
13.59141	-48.4161	43.4211
13.5928	-52.7411	43.4309
13.5936	-55.7946	43.4407