File: data/processed_data_files/tensile/0.254_hd_dimension_typei_090_r(2).dat
MTS793|BTW|ENU|1|2|.|/|:|1|0|0|A

Data Header:			0.254_hd_dimension_typei_090_r0			Time:	20.0176	s	4/15/2019 3:34:19 PM
Data Acquisition:	Timed
Station Name:	ft40.cfg
Test File Name:	monotonic_0.2540_typei_hd_090_dimension.tst
Displacement	Force	Running Time
mm	N	s
9.98021	-160.049	0.0222168
9.98041	-166.695	0.041748
9.98084	-158.839	0.0612793
9.98148	-157.421	0.0808105
9.98384	-164.764	0.1003418
9.98418	-163.7821	0.119873
9.98613	-152.153	0.1394043
9.98684	-160.789	0.158936
9.9893	-162.663	0.1784668
9.99174	-152.237	0.197998
9.992034	-155.9346	0.2175293
9.99406	-160.652	0.237061
9.99565	-151.6692	0.2565918
9.9966	-152.8876	0.276123
9.99863	-160.051	0.2956543
10.0006	-149.404	0.315186
10.0007	-148.704	0.3347168
10.003	-155.411	0.354248
10.0065	-152.817	0.3737793
10.007	-143.824	0.393311
10.0094	-151.077	0.4128418
10.0099	-149.547	0.432373
10.01089	-146.349	0.4519043
10.0133	-147.518	0.471436
10.0145	-149.869	0.4909668
10.0163	-139.65	0.510498
10.0186	-142.412	0.5300293
10.0203	-149.394	0.549561
10.0208	-143.393	0.5690918
10.0229	-136.678	0.588623
10.0255	-149.11	0.6081543
10.0266	-140.705	0.627686
10.0283	-136.346	0.6472168
10.0288	-142.384	0.666748
10.0317	-141.557	0.6862793
10.0326	-132.336	0.705811
10.0339	-142.009	0.7253418
10.0356	-140.25	0.744873
10.0375	-129.4491	0.7644043
10.0402	-135.605	0.783936
10.0411	-141.266	0.8034668
10.0421	-129.575	0.822998
10.0447	-133.246	0.8425293
10.0467	-138.902	0.862061
10.0467	-126.691	0.8815918
10.0502	-128.084	0.901123
10.0509	-135.078	0.9206543
10.0525	-127.692	0.940186
10.0539	-124.029	0.9597168
10.0561	-133.147	0.979248
10.0568	-124.128	0.9987793
10.0586	-120.107	1.01831
10.0602	-127.137	1.03784
10.062	-129.134	1.057373
10.0637	-117.254	1.0769
10.0652	-122.719	1.09644
10.067	-121.733	1.11597
10.0682	-119.073	1.135498
10.07	-117.08	1.15503
10.0718	-126.097	1.17456
10.073	-112.987	1.19409
10.07635	-112.125	1.213623
10.077	-120.018	1.23315
10.0787	-118.093	1.25269
10.0803	-107.986	1.27222
10.0806	-119.765	1.291748
10.0822	-113.994	1.31128
10.0855	-106.842	1.33081
10.0865	-111.572	1.35034
10.0887	-114.614	1.369873
10.0912	-102.712	1.3894
10.0917	-110.91	1.40894
10.0928	-114.397	1.42847
10.0949	-101.5179	1.447998
10.0958	-104.798	1.46753
10.0984	-112.035	1.48706
10.0989	-102.109	1.50659
10.1013	-100.471	1.526123
10.1037	-107.294	1.54565
10.1042	-99.0238	1.56519
10.1051	-97.1537	1.58472
10.1071	-105.719	1.604248
10.1087	-98.9416	1.62378
10.1103	-92.1414	1.64331
10.1123	-101.543	1.66284
10.114	-97.30883	1.682373
10.1166	-92.3342	1.7019
10.1174	-94.9594	1.72144
10.12	-98.7105	1.74097
10.1209	-89.0059	1.760498
10.1222	-90.413	1.78003
10.12382	-95.0973	1.79956
10.1249	-88.2564	1.81909
10.127	-85.3983	1.838623
10.129	-95.5374	1.85815
10.13017	-86.5624	1.87769
10.1324	-81.9472	1.89722
10.1333	-88.2557	1.916748
10.1355	-91.1462	1.93628
10.1374	-76.91272	1.95581
10.1395	-87.7663	1.97534
10.13968	-84.1149	1.994873
10.1418	-76.1752	2.0144
10.1431	-79.1993	2.03394
10.1451	-87.4872	2.05347
10.1469	-73.7157	2.072998
10.1484	-77.6151	2.09253
10.1505	-81.9281	2.11206
10.151	-74.00061	2.13159
10.15364	-70.5261	2.151123
10.1547	-79.4397	2.17065
10.1566	-71.9795	2.19019
10.1582	-69.2588	2.20972
10.1608	-77.2964	2.229248
10.161	-68.1853	2.24878
10.163	-65.1855	2.26831
10.1647	-73.4789	2.28784
10.1661	-70.52034	2.307373
10.1678	-60.705	2.3269
10.1688	-66.956	2.34644
10.1703	-67.313	2.36597
10.1716	-60.3399	2.385498
10.1734	-61.9253	2.40503
10.17557	-67.8512	2.42456
10.1767	-56.50951	2.44409
10.17917	-59.3121	2.463623
10.1808	-62.8827	2.48315
10.1833	-58.2608	2.50269
10.1826	-50.1367	2.52222
10.1864	-61.6259	2.541748
10.18779	-55.627	2.56128
10.1888	-49.42942	2.58081
10.191	-54.9706	2.60034
10.1923	-57.9478	2.619873
10.1946	-45.6662	2.6394
10.1953	-53.4872	2.65894
10.1976	-51.59145	2.67847
10.199	-43.5734	2.697998
10.2	-46.70713	2.71753
10.2022	-56.3522	2.73706
10.2037	-42.3792	2.75659
10.2044	-44.22163	2.776123
10.2065	-49.872	2.79565
10.20804	-42.86533	2.81519
10.2104	-36.8	2.83472
10.2109	-47.2398	2.854248
10.214	-39.8628	2.87378
10.2151	-35.5479	2.89331
10.2167	-43.28389	2.91284
10.2189	-40.8538	2.932373
10.2198	-31.057	2.9519
10.2212	-38.5442	2.97144
10.222	-39.8045	2.99097
10.225	-29.9332	3.010498
10.22695	-31.8145	3.03003
10.2273	-36.3248	3.04956
10.2298	-32.122	3.06909
10.2322	-28.0253	3.088623
10.2327	-34.9522	3.10815
10.235	-26.9856	3.12769
10.2356	-23.8676	3.14722
10.2385	-29.8667	3.166748
10.2397	-28.6917	3.18628
10.2417	-17.3698	3.20581
10.2427	-27.056	3.22534
10.2441	-25.3449	3.244873
10.2467	-18.3144	3.2644
10.24763	-20.771	3.28394
10.24936	-27.072	3.30347
10.2507	-13.8065	3.322998
10.2527	-20.59993	3.34253
10.2543	-23.672	3.36206
10.2556	-11.8069	3.38159
10.2583	-10.2987	3.401123
10.2587	-22.516	3.42065
10.2611	-10.9243	3.44019
10.2629	-8.17648	3.45972
10.2641	-15.6682	3.479248
10.2652	-9.69546	3.49878
10.2665	-5.55895	3.51831
10.2676	-14.9069	3.53784
10.2709	-9.20402	3.557373
10.2715	-2.61184	3.5769
10.2738	-8.83915	3.59644
10.2757	-10.57696	3.61597
10.2761	-0.263086	3.635498
10.2785	-2.77689	3.65503
10.2799	-7.30981	3.67456
10.2821	-0.117915	3.69409
10.2828	0.452539	3.713623
10.2854	-2.08212	3.73315
10.287	1.39284	3.75269
10.2876	7.20972	3.77222
10.2899	-1.98203	3.791748
10.2899	3.23641	3.81128
10.2933	12.2099	3.83081
10.2955	5.01415	3.85034
10.2958	1.536184	3.869873
10.2981	14.7654	3.8894
10.2995	8.78181	3.90894
10.3009	6.05061	3.92847
10.3022	16.3625	3.947998
10.3043	13.9557	3.96753
10.3062	7.03622	3.98706
10.3074	20.8909	4.00659
10.3098	19.27277	4.026123
10.3108	10.797	4.04565
10.3125	19.4958	4.06519
10.3142	25.55188	4.08472
10.315	12.6851	4.104248
10.3173	22.0312	4.12378
10.3185	25.9468	4.14331
10.3208	19.9242	4.16284
10.3226	22.5235	4.182373
10.3241	30.6453	4.2019
10.3251	21.3367	4.22144
10.3276	22.9102	4.24097
10.3295	32.2918	4.260498
10.3308	29.4981	4.28003
10.332	23.0793	4.29956
10.334	33.608	4.31909
10.335	32.6872	4.338623
10.337	28.5566	4.35815
10.3387	32.4864	4.37769
10.3407	38.4876	4.39722
10.3413	32.8333	4.416748
10.3438	34.8159	4.43628
10.346	42.8506	4.45581
10.3479	34.8827	4.47534
10.3482	35.3588	4.494873
10.3499	44.8814	4.5144
10.3517	42.4875	4.53394
10.3527	37.229	4.55347
10.3548	47.7046	4.572998
10.3561	45.1552	4.59253
10.3582	41.388	4.61206
10.3594	50.4152	4.63159
10.3621	51.5061	4.651123
10.36277	39.7184	4.67065
10.3652	52.3477	4.69019
10.366	53.9507	4.70972
10.3677	46.4436	4.729248
10.3701	51.2315	4.74878
10.3714	60.5109	4.76831
10.3731	48.5098	4.78784
10.3743	53.5566	4.807373
10.3764	59.84	4.8269
10.3772	55.1308	4.84644
10.37921	53.0714	4.86597
10.381	64.5633	4.885498
10.3833	60.4405	4.90503
10.3842	56.716	4.92456
10.3861	66.9286	4.94409
10.3867	65.8591	4.963623
10.3883	60.902	4.98315
10.39	66.9303	5.00269
10.3921	69.39801	5.02222
10.3939	63.26709	5.041748
10.3953	68.213	5.06128
10.3968	74.2826	5.08081
10.3993	68.1969	5.10034
10.4006	66.1157	5.119873
10.4017	77.2842	5.1394
10.4033	71.4622	5.15894
10.4049	69.5767	5.17847
10.4071	78.99	5.197998
10.4083	80.5001	5.21753
10.4107	70.9128	5.23706
10.4119	81.30706	5.25659
10.414	80.1776	5.276123
10.4158	74.5997	5.29565
10.4179	83.2673	5.31519
10.4181	89.124	5.33472
10.4203	75.9366	5.354248
10.4214	83.8603	5.37378
10.423	89.7489	5.39331
10.4248	84.9664	5.41284
10.4272	83.7658	5.432373
10.4297	93.7235	5.4519
10.4293	87.6007	5.47144
10.4314	88.0577	5.49097
10.4334	95.6221	5.510498
10.434	93.6401	5.53003
10.43555	88.5745	5.54956
10.4377	98.6786	5.56909
10.4403	96.9505	5.588623
10.4409	91.112	5.60815
10.443	96.9099	5.62769
10.44347	102.536	5.64722
10.4455	95.2196	5.666748
10.4475	98.4923	5.68628
10.4499	105.57	5.70581
10.451	101.26	5.72534
10.4522	100.676	5.744873
10.45403	107.926	5.7644
10.4557	105.912	5.78394
10.45749	99.4793	5.80347
10.4592	111.344	5.822998
10.4595	109.602	5.84253
10.4618	104.28	5.86206
10.4644	111.627	5.88159
10.46611	114.74	5.901123
10.4676	106.097	5.92065
10.4692	115.866	5.94019
10.471	117.789	5.95972
10.47259	110.0115	5.979248
10.4738	114.775	5.99878
10.4768	125.094	6.01831
10.4771	112.74	6.03784
10.478	116.888	6.057373
10.4802	123.767	6.0769
10.4826	121.983	6.09644
10.4833	117.374	6.11597
10.48425	129.027	6.135498
10.4862	122.75	6.15503
10.489	123.4884	6.17456
10.49	127.609	6.19409
10.4917	131.927	6.213623
10.4931	122.93	6.23315
10.4946	130.547	6.25269
10.496	132.966	6.27222
10.4984	128.556	6.291748
10.4998	128.888	6.31128
10.5008	138.524	6.33081
10.5025	133.273	6.35034
10.5047	132.888	6.369873
10.5068	139.905	6.3894
10.5086	136.9549	6.40894
10.5087	131.878	6.42847
10.5114	144.129	6.447998
10.5139	143.597	6.46753
10.5142	135.3278	6.48706
10.516	144.621	6.50659
10.5187	147.055	6.526123
10.5187	140.583	6.54565
10.52157	145.477	6.56519
10.5217	151.2552	6.58472
10.5233	141.622	6.604248
10.5254	148.6579	6.62378
10.5275	154.607	6.64331
10.5285	147.454	6.66284
10.5311	147.9263	6.682373
10.5321	157.646	6.7019
10.5352	150.658	6.72144
10.5355	150.561	6.74097
10.5376	158.089	6.760498
10.5398	156.534	6.78003
10.5418	152.363	6.79956
10.5424	163.073	6.81909
10.5442	158.031	6.838623
10.5445	156.395	6.85815
10.5472	161.961	6.87769
10.5479	167.3566	6.89722
10.5506	157.49	6.916748
10.5523	162.523	6.93628
10.5538	168.55	6.95581
10.5544	164.715	6.97534
10.5563	162.757	6.994873
10.5582	171.519	7.0144
10.5602	166.416	7.03394
10.5614	164.164	7.05347
10.5628	173.48	7.072998
10.564	173.881	7.09253
10.5669	165.418	7.11206
10.5682	175.6	7.13159
10.57	179.313	7.151123
10.5704	169.886	7.17065
10.5731	177.11	7.19019
10.5744	181.595	7.20972
10.5755	174.262	7.229248
10.57689	176.77	7.24878
10.5794	185.999	7.26831
10.581	175.8763	7.28784
10.5818	180.534	7.307373
10.5842	187.591	7.3269
10.58548	183.15	7.34644
10.5872	178.8878	7.36597
10.5885	191.108	7.385498
10.5918	186.2166	7.40503
10.5921	185.24	7.42456
10.5935	192.251	7.44409
10.5953	194.087	7.463623
10.5972	185.382	7.48315
10.6001	195.086	7.50269
10.6007	194.211	7.52222
10.6025	190.199	7.541748
10.604	191.429	7.56128
10.606	202.142	7.58081
10.6068	195.6515	7.60034
10.6083	195.2688	7.619873
10.6105	202.325	7.6394
10.6121	200.625	7.65894
10.6136	196.636	7.67847
10.6153	206.5173	7.697998
10.6161	204.022	7.71753
10.6188	198.0752	7.73706
10.6197	205.878	7.75659
10.6216	210.23	7.776123
10.6227	201.568	7.79565
10.6248	207.864	7.81519
10.6269	215.013	7.83472
10.6296	205.576	7.854248
10.6302	209.824	7.87378
10.63172	216.379	7.89331
10.6338	209.24	7.91284
10.6355	210.761	7.932373
10.6362	221.94	7.9519
10.6387	211.708	7.97144
10.6403	211.458	7.99097
10.6427	222.041	8.010498
10.6434	222.111	8.03003
10.6452	215.092	8.04956
10.6461	226.035	8.06909
10.6473	221.135	8.088623
10.6501	218.325	8.10815
10.6509	223.984	8.12769
10.653	229.984	8.14722
10.6543	220.522	8.166748
10.656	227.091	8.18628
10.6566	231.456	8.20581
10.6596	227.227	8.22534
10.6603	223.671	8.244873
10.6627	238.078	8.2644
10.6636	232.538	8.28394
10.6655	229.649	8.30347
10.6672	236.467	8.322998
10.6693	237.16	8.34253
10.6701	228.927	8.36206
10.6719	240.565	8.38159
10.6735	243.866	8.401123
10.67512	233.951	8.42065
10.6768	238.687	8.44019
10.67878	247.62	8.45972
10.6809	238.106	8.479248
10.6815	241.709	8.49878
10.6835	249.77	8.51831
10.6857	242.227	8.53784
10.68687	243.3676	8.557373
10.6876	252.021	8.5769
10.6903	245.869	8.59644
10.6928	243.798	8.61597
10.6931	256.515	8.635498
10.6952	250.523	8.65503
10.6958	245.832	8.67456
10.699	253.688	8.69409
10.6992	256.0166	8.713623
10.7019	250.747	8.73315
10.7033	257.7406	8.75269
10.70452	257.095	8.77222
10.7066	253.861	8.791748
10.7078	256.8627	8.81128
10.7084	266.781	8.83081
10.7101	257.584	8.85034
10.7124	259.99	8.869873
10.71531	265.031	8.8894
10.7166	263.517	8.90894
10.7185	258.106	8.92847
10.7194	269.7	8.947998
10.7222	268.119	8.96753
10.7227	265.798	8.98706
10.7254	269.509	9.00659
10.7264	273.572	9.026123
10.7281	262.878	9.04565
10.7299	272.326	9.06519
10.7315	277.823	9.08472
10.73246	269.243	9.104248
10.7347	269.96	9.12378
10.7358	281.565	9.14331
10.7368	273.4624	9.16284
10.7398	274.221	9.182373
10.7409	282.832	9.2019
10.74227	277.534	9.22144
10.7441	273.926	9.24097
10.7462	286.467	9.260498
10.7472	283.725	9.28003
10.7493	275.888	9.29956
10.7499	289.53	9.31909
10.7519	288.703	9.338623
10.7535	281.426	9.35815
10.755	288.625	9.37769
10.7569	291.994	9.39722
10.7581	285.238	9.416748
10.7599	291.176	9.43628
10.76215	294.4769	9.45581
10.7635	291.028	9.47534
10.765	288.7659	9.494873
10.7669	300.6933	9.5144
10.7682	296.053	9.53394
10.76944	293.647	9.55347
10.7718	297.431	9.572998
10.77332	301.596	9.59253
10.7747	293.114	9.61206
10.7776	304.58	9.63159
10.778	304.38	9.651123
10.78	297.6048	9.67065
10.7808	302.485	9.69019
10.7835	310.772	9.70972
10.7846	298.698	9.729248
10.78694	305.499	9.74878
10.78796	312.855	9.76831
10.78925	306.56	9.78784
10.7906	303.077	9.807373
10.7921	315.343	9.8269
10.7941	308.943	9.84644
10.7963	306.655	9.86597
10.7973	317.432	9.885498
10.7998	314.153	9.90503
10.80167	306.979	9.92456
10.803	318.942	9.94409
10.8034	320.568	9.963623
10.8058	311.4082	9.98315
10.8069	319.295	10.0027
10.8099	323.468	10.0222
10.8108	314.464	10.0417
10.8116	318.991	10.0613
10.8125	327.472	10.0808
10.81553	318.426	10.1003
10.8163	322.44	10.1199
10.8167	328.111	10.1394
10.8207	326.28	10.1589
10.822	321.227	10.1785
10.8235	333.479	10.198
10.8261	330.874	10.2175
10.8265	325.335	10.2371
10.8286	331.805	10.2566
10.8311	338.065	10.2761
10.8317	327.005	10.2957
10.8332	336.137	10.3152
10.8341	339.7262	10.3347
10.8364	331.28	10.3542
10.8378	333.164	10.3738
10.8402	345.989	10.3933
10.8416	336.103	10.4128
10.8437	334.699	10.4324
10.84471	347.371	10.4519
10.8467	343.316	10.4714
10.8486	335.435	10.491
10.8505	349.142	10.5105
10.8513	347.208	10.53
10.8522	338.844	10.5496
10.855	351.636	10.5691
10.857	352.47	10.5886
10.8567	341.2124	10.6082
10.8592	350.2229	10.6277
10.86118	356.073	10.6472
10.8626	346.448	10.6667
10.8646	351.373	10.6863
10.8664	357.33	10.7058
10.8671	351.0928	10.7253
10.8686	352.012	10.7449
10.87062	362.796	10.7644
10.8731	353.962	10.7839
10.87383	352.631	10.8035
10.8753	361.912	10.823
10.8762	363.249	10.8425
10.8801	354.882	10.8621
10.8813	365.371	10.8816
10.8823	367.08	10.9011
10.8844	360.809	10.9207
10.885	363.588	10.9402
10.8868	372.4	10.9597
10.8887	358.119	10.9792
10.8901	366.934	10.9988
10.8916	374.704	11.0183
10.8931	367.493	11.0378
10.89418	363.954	11.0574
10.8963	379.571	11.0769
10.8984	371.4545	11.0964
10.9009	368.16	11.116
10.9018	380.919	11.1355
10.9029	377.473	11.155
10.90456	368.052	11.1746
10.9057	381.514	11.1941
10.9079	380.911	11.2136
10.909	371.545	11.2332
10.9123	383.274	11.2527
10.9125	387.481	11.2722
10.9137	376.289	11.2917
10.9169	380.188	11.3113
10.9179	389.962	11.3308
10.9194	381.5618	11.3503
10.9209	382.429	11.3699
10.9234	391.068	11.3894
10.9246	386.267	11.4089
10.9259	383.173	11.4285
10.9278	394.507	11.448
10.9301	392.16	11.4675
10.9309	385.9072	11.4871
10.9329	393.444	11.5066
10.9343	399.016	11.5261
10.9356	388.805	11.5457
10.937	394.354	11.5652
10.939	400.373	11.5847
10.94097	394.164	11.6042
10.943	393.5098	11.6238
10.9444	407.296	11.6433
10.9454	395.091	11.6628
10.94754	398.574	11.6824
10.9488	408.761	11.7019
10.9513	405.241	11.7214
10.952	395.895	11.741
10.9539	411.235	11.7605
10.9556	404.851	11.78
10.9565	400.865	11.7996
10.9589	412.566	11.8191
10.9605	411.374	11.8386
10.9618	400.697	11.8582
10.963	414.086	11.8777
10.9657	417.069	11.8972
10.9663	406.964	11.9167
10.9693	413.632	11.9363
10.9701	419.965	11.9558
10.9719	410.726	11.9753
10.9737	413.967	11.9949
10.9753	423.173	12.0144
10.9769	416.93	12.0339
10.9775	415.291	12.0535
10.9801	424.809	12.073
10.9818	420.3	12.0925
10.9829	414.892	12.1121
10.9846	426.996	12.1316
10.9868	428.395	12.1511
10.9883	419.03	12.1707
10.9889	425.053	12.1902
10.99208	432.573	12.2097
10.9926	422.1344	12.2292
10.9953	427.694	12.2488
10.9957	434.661	12.2683
10.998	428.515	12.2878
10.9992	424.516	12.3074
11.0021	440.687	12.3269
11.0024	431.186	12.3464
11.004	428.174	12.366
11.0052	439.634	12.3855
11.0077	439.843	12.405
11.0086	428.0943	12.4246
11.011	442.259	12.4441
11.0132	439.012	12.4636
11.0144	432.112	12.4832
11.0149	441.655	12.5027
11.0166	447.71	12.5222
11.01895	434.428	12.5417
11.01988	443.378	12.5613
11.02231	450.538	12.5808
11.0235	442.218	12.6003
11.0258	441.487	12.6199
11.0272	452.711	12.6394
11.0284	447.903	12.6589
11.0297	444.136	12.6785
11.0316	454.203	12.698
11.0347	450.8	12.7175
11.0339	446.287	12.7371
11.037	456.1481	12.7566
11.0383	456.713	12.7761
11.0404	447.534	12.7957
11.0416	455.905	12.8152
11.0431	460.662	12.8347
11.04557	454.03	12.8542
11.0457	454.033	12.8738
11.04838	463.993	12.8933
11.0491	454.361	12.9128
11.0512	458.322	12.9324
11.0537	467.563	12.9519
11.0546	462.09	12.9714
11.056	454.269	12.991
11.0573	471.201	13.0105
11.0601	466.842	13.03
11.0608	462.125	13.0496
11.0627	470.333	13.0691
11.0645	475.3909	13.0886
11.0672	460.65	13.1082
11.0675	473.1622	13.1277
11.0688	474.791	13.1472
11.07067	467.103	13.1667
11.0716	472.468	13.1863
11.0742	481.515	13.2058
11.0757	469.678	13.2253
11.0773	472.223	13.2449
11.0793	480.525	13.2644
11.08112	479.122	13.2839
11.082	473.68	13.3035
11.0839	484.726	13.323
11.0862	480.384	13.3425
11.087	475.081	13.3621
11.0889	486.0054	13.3816
11.09	485.116	13.4011
11.0925	478.0434	13.4207
11.0935	485.051	13.4402
11.0954	489.902	13.4597
11.09635	481.964	13.4792
11.0984	486.37	13.4988
11.1013	493.92	13.5183
11.1018	488.194	13.5378
11.1039	485.034	13.5574
11.1042	496.403	13.5769
11.1068	488.898	13.5964
11.1079	489.071	13.616
11.11	498.508	13.6355
11.111	497.664	13.655
11.1139	487.929	13.6746
11.1142	500.198	13.6941
11.1161	502.114	13.7136
11.1178	492.267	13.7332
11.1197	500.114	13.7527
11.1208	507.467	13.7722
11.12188	493.937	13.7917
11.1255	503.485	13.8113
11.1265	507.732	13.8308
11.128	500.764	13.8503
11.1297	500.225	13.8699
11.1315	513.056	13.8894
11.1331	503.909	13.9089
11.1339	503.628	13.9285
11.1358	512.888	13.948
11.1372	511.542	13.9675
11.1393	505.414	13.9871
11.1407	515.694	14.0066
11.1425	512.894	14.0261
11.1445	507.75	14.0457
11.1453	514.926	14.0652
11.1465	521.985	14.0847
11.14958	511.843	14.1042
11.151	514.249	14.1238
11.152	521.516	14.1433
11.1541	516.723	14.1628
11.15641	514.868	14.1824
11.15737	524.3407	14.2019
11.15823	521.348	14.2214
11.1613	515.654	14.241
11.1613	530.287	14.2605
11.1632	525.149	14.28
11.1664	519.602	14.2996
11.1668	529.286	14.3191
11.1672	531.256	14.3386
11.1702	519.294	14.3582
11.171	529.713	14.3777
11.1733	533.767	14.3972
11.1746	526.362	14.4167
11.17676	530.478	14.4363
11.1782	540.185	14.4558
11.1804	525.907	14.4753
11.1815	532.8609	14.4949
11.1838	541.404	14.5144
11.1855	535.782	14.5339
11.1863	529.954	14.5535
11.1882	543.305	14.573
11.19	538.687	14.5925
11.19177	535.26	14.6121
11.1927	542.524	14.6316
11.1955	543.568	14.6511
11.1965	536.046	14.6707
11.1981	542.657	14.6902
11.1991	546.772	14.7097
11.2018	538.282	14.7292
11.2036	540.346	14.7488
11.205	552.352	14.7683
11.206	545.224	14.7878
11.2077	544.704	14.8074
11.2089	553.704	14.8269
11.2115	548.991	14.8464
11.212	546.409	14.866
11.2137	556.6889	14.8855
11.2153	554.542	14.905
11.2171	545.081	14.9246
11.2199	557.16	14.9441
11.2205	559.4248	14.9636
11.2228	550.026	14.9832
11.22437	556.767	15.0027
11.2265	565.473	15.0222
11.2277	552.3681	15.0417
11.2285	558.169	15.0613
11.2302	564.812	15.0808
11.2331	557.903	15.1003
11.23306	558.442	15.1199
11.2357	571.505	15.1394
11.2364	560.366	15.1589
11.2383	560.7179	15.1785
11.2395	570.528	15.198
11.24143	570.592	15.2175
11.2439	562.454	15.2371
11.245	572.6908	15.2566
11.2459	571.93	15.2761
11.2486	566.82	15.2957
11.2503	570.844	15.3152
11.2523	575.196	15.3347
11.2526	567.966	15.3542
11.255	571.339	15.3738
11.2563	578.716	15.3933
11.25859	572.3	15.4128
11.2597	571.254	15.4324
11.2616	582.143	15.4519
11.26305	577.52	15.4714
11.2642	574.191	15.491
11.2664	582.336	15.5105
11.2673	581.485	15.53
11.2704	575.771	15.5496
11.2715	583.655	15.5691
11.27237	586.838	15.5886
11.2744	574.837	15.6082
11.2751	584.315	15.6277
11.2774	590.433	15.6472
11.2794	581.645	15.6667
11.2804	583.252	15.6863
11.2814	596.648	15.7058
11.2843	582.801	15.7253
11.2853	587.817	15.7449
11.2882	595.322	15.7644
11.2896	591.196	15.7839
11.2908	586.86	15.8035
11.2919	600.741	15.823
11.2937	592.93	15.8425
11.2948	589.114	15.8621
11.29698	598.231	15.8816
11.2994	600.61	15.9011
11.301	591.581	15.9207
11.3025	600.433	15.9402
11.3038	601.1438	15.9597
11.3059	597.479	15.9792
11.3069	598.665	15.9988
11.3089	609.089	16.0183
11.3108	596.826	16.0378
11.3112	599.623	16.0574
11.3143	607.5957	16.0769
11.31447	605.257	16.0964
11.3159	599.371	16.116
11.3187	610.67	16.1355
11.3204	610.294	16.155
11.3209	602.591	16.1746
11.324	613.151	16.1941
11.3247	615.206	16.2136
11.32661	603.935	16.2332
11.329	613.133	16.2527
11.3295	619.656	16.2722
11.3311	606.42	16.2917
11.3328	611.384	16.3113
11.3347	620.537	16.3308
11.3364	613.7041	16.3503
11.3383	613.439	16.3699
11.3397	624.544	16.3894
11.3424	615.3399	16.4089
11.3427	615.366	16.4285
11.3453	624.763	16.448
11.3449	623.251	16.4675
11.34746	615.855	16.4871
11.34925	627.88	16.5066
11.3514	625.077	16.5261
11.3522	620.18	16.5457
11.3538	625.573	16.5652
11.356	632.323	16.5847
11.35688	623.361	16.6042
11.3593	627.4541	16.6238
11.36045	633.025	16.6433
11.3617	626.988	16.6628
11.3635	625.579	16.6824
11.365	638.857	16.7019
11.368	631.984	16.7214
11.3686	626.732	16.741
11.3708	637.036	16.7605
11.3724	637.611	16.78
11.3732	629.228	16.7996
11.3759	638.104	16.8191
11.3775	641.243	16.8386
11.379	631.883	16.8582
11.3805	638.36	16.8777
11.3824	645.113	16.8972
11.3834	634.236	16.9167
11.3853	638.528	16.9363
11.3856	650.124	16.9558
11.3877	639.549	16.9753
11.3904	638.51	16.9949
11.3917	650.553	17.0144
11.3933	646.4184	17.0339
11.3954	640.357	17.0535
11.3967	653.452	17.073
11.3987	647.493	17.0925
11.39933	643.589	17.1121
11.4017	651.832	17.1316
11.4041	655.586	17.1511
11.4039	644.568	17.1707
11.4062	653.588	17.1902
11.4072	656.672	17.2097
11.4101	651.018	17.2292
11.412	650.88	17.2488
11.413	661.422	17.2683
11.4155	651.756	17.2878
11.416	655.62	17.3074
11.4172	661.057	17.3269
11.4192	658.763	17.3464
11.4202	650.695	17.366
11.4226	664.898	17.3855
11.4246	663.897	17.405
11.4255	656.698	17.4246
11.4279	664.029	17.4441
11.4292	670.48	17.4636
11.4302	658.599	17.4832
11.432	665.81	17.5027
11.43359	672.7326	17.5222
11.4351	661.278	17.5417
11.4377	665.587	17.5613
11.4381	675.242	17.5808
11.4396	665.421	17.6003
11.44119	664.989	17.6199
11.444	678.174	17.6394
11.44471	669.505	17.6589
11.4465	667.502	17.6785
11.4486	676.718	17.698
11.4505	674.354	17.7175
11.45216	667.4447	17.7371
11.4537	680.475	17.7566
11.4544	678.198	17.7761
11.4574	671.063	17.7957
11.458	677.484	17.8152
11.4596	684.865	17.8347
11.4616	674.686	17.8542
11.46354	681.002	17.8738
11.46439	683.831	17.8933
11.4664	679.9	17.9128
11.4686	678.93	17.9324
11.4699	690.337	17.9519
11.4713	684.412	17.9714
11.4731	680.581	17.991
11.475	688.8	18.0105
11.4758	690.207	18.03
11.4772	679.512	18.0496
11.4795	690.813	18.0691
11.4818	693.166	18.0886
11.4829	684.335	18.1082
11.4842	689.792	18.1277
11.48558	695.974	18.1472
11.4875	686.399	18.1667
11.4893	692.64	18.1863
11.4912	700.9826	18.2058
11.4929	690.268	18.2253
11.4951	689.093	18.2449
11.4954	704.083	18.2644
11.4976	696.876	18.2839
11.4984	690.04	18.3035
11.5004	704.754	18.323
11.50229	700.01	18.3425
11.5032	693.626	18.3621
11.5049	704.684	18.3816
11.5066	704.355	18.4011
11.5095	695.659	18.4207
11.5108	705.443	18.4402
11.5125	707.538	18.4597
11.5135	700.993	18.4792
11.5155	702.144	18.4988
11.517	712.43	18.5183
11.5186	704.525	18.5378
11.5204	705.993	18.5574
11.5214	711.315	18.5769
11.5233	711.567	18.5964
11.5244	704.653	18.616
11.5261	717.365	18.6355
11.5277	712.787	18.655
11.53014	706.502	18.6746
11.5318	714.021	18.6941
11.5333	719.512	18.7136
11.5353	708.045	18.7332
11.5363	717.825	18.7527
11.5371	722.68	18.7722
11.54	714.325	18.7917
11.541	714.746	18.8113
11.5439	725.478	18.8308
11.5454	714.786	18.8503
11.5453	716.1394	18.8699
11.5476	728.159	18.8894
11.5492	719.728	18.9089
11.5509	713.416	18.9285
11.5518	728.203	18.948
11.5548	726.66	18.9675
11.5551	718.497	18.9871
11.5573	728.624	19.0066
11.55855	728.102	19.0261
11.5608	720.309	19.0457
11.562	728.677	19.0652
11.5644	733.36	19.0847
11.5648	723.408	19.1042
11.5675	729.682	19.1238
11.5687	734.8219	19.1433
11.5697	728.354	19.1628
11.5717	726.027	19.1824
11.5746	738.935	19.2019
11.5757	732.866	19.2214
11.5772	732.172	19.241
11.5784	738.663	19.2605
11.5806	738.249	19.28
11.5819	728.598	19.2996
11.58332	740.576	19.3191
11.5849	741.693	19.3386
11.5858	732.478	19.3582
11.58879	736.7312	19.3777
11.5896	747.1	19.3972
11.5922	735.937	19.4167
11.593	741.3595	19.4363
11.5947	748.001	19.4558
11.5971	740.251	19.4753
11.59928	738.7951	19.4949
11.6002	751.695	19.5144
11.6012	743.507	19.5339
11.6024	739.47	19.5535
11.6049	751.572	19.573
11.60617	749.305	19.5925
11.6077	739.285	19.6121
11.6091	750.287	19.6316
11.61143	753.771	19.6511
11.61339	743.05	19.6707
11.6136	752.771	19.6902
11.6165	754.664	19.7097
11.6176	746.5567	19.7292
11.6181	750.424	19.7488
11.6202	760.349	19.7683
11.6222	750.419	19.7878
11.6233	751.039	19.8074
11.6253	760.115	19.8269
11.6274	756.592	19.8464
11.6291	750.734	19.866
11.6318	760.484	19.8855
11.6318	758.046	19.905
11.6342	753.255	19.9246
11.6354	759.127	19.9441
11.6372	765.6543	19.9636
11.64	751.69	19.9832
11.6415	761.825	20.0027
11.6411	766.168	20.0125

Data Header:			0.254_hd_dimension_typei_090_r0			Time:	40.0176	s	4/15/2019 3:34:39 PM
Data Acquisition:	Timed
Station Name:	ft40.cfg
Test File Name:	monotonic_0.2540_typei_hd_090_dimension.tst
Displacement	Force	Running Time
mm	N	s
11.6422	769.115	20.0222
11.644	759.059	20.0417
11.6461	759.562	20.0613
11.6473	770.19	20.0808
11.6494	761.442	20.1003
11.6503	762.522	20.1199
11.6515	771.14	20.1394
11.6533	765.733	20.1589
11.655	759.152	20.1785
11.6586	775.337	20.198
11.6588	769.106	20.2175
11.6607	762.204	20.2371
11.6615	773.088	20.2566
11.6635	773.987	20.2761
11.6653	764.211	20.2957
11.6664	772.367	20.3152
11.66829	777.347	20.3347
11.6696	766.351	20.3542
11.6711	773.079	20.3738
11.6734	778.184	20.3933
11.6747	769.797	20.4128
11.6767	772.013	20.4324
11.6773	782.682	20.4519
11.679	776.2771	20.4714
11.6812	773.685	20.491
11.6836	780.284	20.5105
11.6839	780.622	20.53
11.6849	772.2215	20.5496
11.6885	783.825	20.5691
11.6886	782.6745	20.5886
11.69111	775.691	20.6082
11.6919	778.36	20.6277
11.6943	791.842	20.6472
11.6958	776.661	20.6667
11.69731	783.254	20.6863
11.6989	789.275	20.7058
11.7007	782.897	20.7253
11.7023	776.62	20.7449
11.7044	793.919	20.7644
11.7051	783.309	20.7839
11.7074	782.7171	20.8035
11.7092	792.836	20.823
11.7103	789.243	20.8425
11.712	778.676	20.8621
11.7137	793.744	20.8816
11.7154	794.2229	20.9011
11.7166	784.11	20.9207
11.7191	792.228	20.9402
11.7197	796.5199	20.9597
11.7224	786.346	20.9792
11.7245	791.344	20.9988
11.7249	796.775	21.0183
11.7267	789.575	21.0378
11.7287	794.389	21.0574
11.7304	800.793	21.0769
11.731	792.414	21.0964
11.73375	790.44	21.116
11.7349	803.56	21.1355
11.7361	798.066	21.155
11.7375	794.16	21.1746
11.7399	799.9801	21.1941
11.742	802.808	21.2136
11.7427	791.994	21.2332
11.7439	801.208	21.2527
11.7464	804.747	21.2722
11.7487	798.401	21.2917
11.7502	798.106	21.3113
11.7508	811.83	21.3308
11.7532	799.175	21.3503
11.7541	801.077	21.3699
11.7564	810.88	21.3894
11.7575	806.609	21.4089
11.7589	797.21	21.4285
11.7611	811.7132	21.448
11.7623	805.643	21.4675
11.7638	801.929	21.4871
11.7656	810.456	21.5066
11.7674	811.5603	21.5261
11.7681	798.349	21.5457
11.7706	812.018	21.5652
11.772	814.303	21.5847
11.7736	805.076	21.6042
11.7756	810.968	21.6238
11.777	814.807	21.6433
11.7791	805.464	21.6628
11.7792	810.185	21.6824
11.7819	818.366	21.7019
11.7828	810.781	21.7214
11.7846	809.198	21.741
11.7861	817.759	21.7605
11.7892	815.277	21.78
11.7895	807.526	21.7996
11.7916	817.828	21.8191
11.7935	818.559	21.8386
11.7949	812.266	21.8582
11.7959	814.697	21.8777
11.7984	822.717	21.8972
11.8	811.595	21.9167
11.8027	816.667	21.9363
11.8041	824.523	21.9558
11.8058	816.04	21.9753
11.8071	812.483	21.9949
11.8078	826.92	22.0144
11.8103	821.078	22.0339
11.8117	814.932	22.0535
11.81426	825.696	22.073
11.815	823.137	22.0925
11.8167	813.035	22.1121
11.81838	827.403	22.1316
11.8199	823.568	22.1511
11.8205	816.353	22.1707
11.822	825.018	22.1902
11.8246	829.36	22.2097
11.8262	816.697	22.2292
11.8276	823.701	22.2488
11.8307	829.686	22.2683
11.83	822.691	22.2878
11.8324	822.652	22.3074
11.8339	830.629	22.3269
11.8367	824.205	22.3464
11.8369	822.411	22.366
11.8387	832.46	22.3855
11.8417	827.4447	22.405
11.8417	823.198	22.4246
11.8438	830.822	22.4441
11.8463	833.188	22.4636
11.8467	822.444	22.4832
11.8485	832.3	22.5027
11.8503	835.462	22.5222
11.8522	827.813	22.5417
11.8533	827.823	22.5613
11.8557	838.956	22.5808
11.8563	826.114	22.6003
11.85757	829.241	22.6199
11.8602	839.161	22.6394
11.8623	834.213	22.6589
11.8637	825.658	22.6785
11.8652	841.053	22.698
11.8666	835.217	22.7175
11.8682	831.425	22.7371
11.8692	837.776	22.7566
11.8707	839.912	22.7761
11.8729	827.369	22.7957
11.8742	839.5506	22.8152
11.8767	840.863	22.8347
11.8782	831.79	22.8542
11.8797	835.519	22.8738
11.88131	844.741	22.8933
11.8818	833.809	22.9128
11.8846	835.46	22.9324
11.88604	842.6145	22.9519
11.8883	837.588	22.9714
11.8889	836.378	22.991
11.8914	843.9881	23.0105
11.892	839.887	23.03
11.89386	833.442	23.0496
11.8957	844.3	23.0691
11.8982	843.438	23.0886
11.8999	836.626	23.1082
11.9018	839.891	23.1277
11.90249	847.269	23.1472
11.9039	838.317	23.1667
11.9054	842.638	23.1863
11.9079	847.441	23.2058
11.9084	840.771	23.2253
11.9114	836.283	23.2449
11.9113	851.115	23.2644
11.9135	841.07	23.2839
11.916	838.212	23.3035
11.9158	849.337	23.323
11.9183	847.557	23.3425
11.92044	835.4314	23.3621
11.9217	849.642	23.3816
11.9236	848.6698	23.4011
11.9254	840.491	23.4207
11.92731	846.553	23.4402
11.9279	851.864	23.4597
11.9301	838.708	23.4792
11.9325	847.113	23.4988
11.9329	851.951	23.5183
11.9346	844.124	23.5378
11.9373	842.6142	23.5574
11.9389	853.443	23.5769
11.9402	846.22	23.5964
11.94216	844.108	23.616
11.9434	852.741	23.6355
11.9441	849.489	23.655
11.9463	843.564	23.6746
11.9472	852.314	23.6941
11.95	851.994	23.7136
11.9513	842.336	23.7332
11.953	850.045	23.7527
11.9553	854.349	23.7722
11.9557	847.49	23.7917
11.9572	846.859	23.8113
11.9584	856.0694	23.8308
11.961	846.838	23.8503
11.9629	847.738	23.8699
11.9641	854.62	23.8894
11.9657	851.695	23.9089
11.9684	845.058	23.9285
11.9698	858.514	23.948
11.971	853.763	23.9675
11.9718	845.906	23.9871
11.97519	856.9364	24.0066
11.9762	857.861	24.0261
11.9776	844.625	24.0457
11.9788	855.191	24.0652
11.9804	857.862	24.0847
11.9833	849.031	24.1042
11.9831	853.727	24.1238
11.9857	859.026	24.1433
11.9875	847.846	24.1628
11.98871	851.309	24.1824
11.99	859.593	24.2019
11.9935	853.675	24.2214
11.9929	849.452	24.241
11.9947	858.306	24.2605
11.997	854.687	24.28
11.9991	850.793	24.2996
12	857.0531	24.3191
12.0019	858.148	24.3386
12.0041	850.839	24.3582
12.0049	855.935	24.3777
12.007	860.91	24.3972
12.0078	850.642	24.4167
12.0094	854.834	24.4363
12.0117	862.125	24.4558
12.0129	856.349	24.4753
12.0138	851.044	24.4949
12.0163	861.183	24.5144
12.0187	855.443	24.5339
12.0189	852.778	24.5535
12.0216	860.936	24.573
12.0225	858.842	24.5925
12.0245	847.276	24.6121
12.02689	863.684	24.6316
12.027	860.887	24.6511
12.0295	851.825	24.6707
12.0305	856.853	24.6902
12.0332	862.511	24.7097
12.0353	849.829	24.7292
12.0357	858.266	24.7488
12.0377	860.789	24.7683
12.0401	854.89	24.7878
12.0405	856.623	24.8074
12.04257	866.537	24.8269
12.0451	853.626	24.8464
12.0452	854.634	24.866
12.0478	862.568	24.8855
12.0494	860.118	24.905
12.0513	852.813	24.9246
12.05201	860.573	24.9441
12.0534	860.587	24.9636
12.0554	853.937	24.9832
12.0581	860.3786	25.0027
12.0586	863.848	25.0222
12.06035	855.433	25.0417
12.0622	855.492	25.0613
12.0637	865.632	25.0808
12.065	854.292	25.1003
12.067	854.609	25.1199
12.0688	863.194	25.1394
12.0708	860.983	25.1589
12.0715	853.103	25.1785
12.0736	864.7262	25.198
12.0759	858.9743	25.2175
12.0768	853.881	25.2371
12.0795	863.861	25.2566
12.0803	864.873	25.2761
12.0814	849.363	25.2957
12.0827	861.556	25.3152
12.0858	862.217	25.3347
12.0861	855.258	25.3542
12.0878	857.552	25.3738
12.0898	865.641	25.3933
12.09221	854.099	25.4128
12.0927	859.134	25.4324
12.09525	865.0462	25.4519
12.096	858.983	25.4714
12.0969	854.472	25.491
12.0995	865.587	25.5105
12.1013	859.682	25.53
12.1033	854.514	25.5496
12.1043	861.783	25.5691
12.1064	863.218	25.5886
12.1072	855.351	25.6082
12.109	859.327	25.6277
12.11	861.088	25.6472
12.11234	855.085	25.6667
12.1141	856.508	25.6863
12.1162	867.177	25.7058
12.1169	857.404	25.7253
12.1194	854.171	25.7449
12.1216	866.5495	25.7644
12.1223	860.206	25.7839
12.124	855.6911	25.8035
12.12585	863.032	25.823
12.1264	862.676	25.8425
12.128	853.021	25.8621
12.1308	864.23	25.8816
12.13266	861.183	25.9011
12.1328	853.835	25.9207
12.1352	860.375	25.9402
12.1368	867.228	25.9597
12.1383	852.014	25.9792
12.1404	859.691	25.9988
12.14158	865.229	26.0183
12.1436	857.306	26.0378
12.1443	857.325	26.0574
12.1463	865.4353	26.0769
12.1485	855.949	26.0964
12.1505	856.514	26.116
12.1514	863.259	26.1355
12.1543	861.9	26.155
12.15507	852.622	26.1746
12.1565	864.168	26.1941
12.1583	860.125	26.2136
12.1593	855.086	26.2332
12.1608	859.509	26.2527
12.1627	863.354	26.2722
12.1651	853.799	26.2917
12.1665	858.831	26.3113
12.1686	862.592	26.3308
12.17	856.25	26.3503
12.1703	855.0224	26.3699
12.17324	863.8382	26.3894
12.1742	859.846	26.4089
12.1766	853.132	26.4285
12.17718	862.324	26.448
12.1796	861.171	26.4675
12.181	853.035	26.4871
12.1825	861.803	26.5066
12.1837	863.0907	26.5261
12.1861	851.15	26.5457
12.1869	859.598	26.5652
12.1892	860.967	26.5847
12.1906	852.539	26.6042
12.1919	855.985	26.6238
12.1941	865.728	26.6433
12.1958	851.833	26.6628
12.1959	856.766	26.6824
12.1983	863.4599	26.7019
12.1999	858.27	26.7214
12.201	852.88	26.741
12.2033	864.923	26.7605
12.2047	854.969	26.78
12.2056	852.59	26.7996
12.2085	861.082	26.8191
12.21	862.241	26.8386
12.2125	851.405	26.8582
12.2131	859.672	26.8777
12.2155	859.677	26.8972
12.2176	853.64	26.9167
12.2182	854.639	26.9363
12.2191	861.646	26.9558
12.2211	854.925	26.9753
12.2227	854.228	26.9949
12.2247	860.795	27.0144
12.2257	855.965	27.0339
12.2288	849.826	27.0535
12.2292	861.5376	27.073
12.2315	858.453	27.0925
12.23314	849.497	27.1121
12.2349	858.56	27.1316
12.2358	858.623	27.1511
12.2387	851.101	27.1707
12.2391	857.082	27.1902
12.2411	861.664	27.2097
12.24239	847.594	27.2292
12.2445	855.918	27.2488
12.2466	860.648	27.2683
12.2487	852.84	27.2878
12.2499	851.597	27.3074
12.25038	862.213	27.3269
12.2512	851.354	27.3464
12.2537	850.529	27.366
12.2567	858.597	27.3855
12.2572	856.225	27.405
12.2582	848.9826	27.4246
12.2606	859.345	27.4441
12.2618	855.128	27.4636
12.26328	848.88	27.4832
12.2661	855.313	27.5027
12.2671	859.948	27.5222
12.2692	849.674	27.5417
12.2711	852.557	27.5613
12.2723	857.356	27.5808
12.2735	852.576	27.6003
12.2746	850.375	27.6199
12.2771	858.994	27.6394
12.2788	853.773	27.6589
12.2801	847.16	27.6785
12.28243	858.713	27.698
12.2831	854.78	27.7175
12.2852	846.424	27.7371
12.2859	856.784	27.7566
12.2876	857.946	27.7761
12.2897	846.345	27.7957
12.2919	853.164	27.8152
12.2936	857.439	27.8347
12.2947	848.546	27.8542
12.2965	851.069	27.8738
12.299	861.218	27.8933
12.3015	846.133	27.9128
12.3006	850.054	27.9324
12.3018	857.533	27.9519
12.3034	851.927	27.9714
12.3059	848.467	27.991
12.3073	857.229	28.0105
12.3096	850.978	28.03
12.3111	848.303	28.0496
12.313	852.919	28.0691
12.3139	854.31	28.0886
12.3149	847.4895	28.1082
12.3178	854.581	28.1277
12.3198	855.305	28.1472
12.3202	847.485	28.1667
12.3225	849.282	28.1863
12.3244	858.432	28.2058
12.3264	849.439	28.2253
12.3273	849.229	28.2449
12.3294	853.475	28.2644
12.33132	849.7561	28.2839
12.3319	846.163	28.3035
12.3342	856.256	28.323
12.33485	851.511	28.3425
12.3373	842.859	28.3621
12.337	853.084	28.3816
12.3403	855.339	28.4011
12.3426	843.544	28.4207
12.3433	849.203	28.4402
12.3449	856.268	28.4597
12.3475	843.856	28.4792
12.3482	848.419	28.4988
12.3504	853.84	28.5183
12.3509	847.707	28.5378
12.3528	845.927	28.5574
12.3548	857.767	28.5769
12.3576	847.023	28.5964
12.3584	843.975	28.616
12.3595	852.404	28.6355
12.3621	851.964	28.655
12.3625	844.067	28.6746
12.3649	853.124	28.6941
12.367	848.999	28.7136
12.3683	844.522	28.7332
12.3694	849.41	28.7527
12.3701	852.816	28.7722
12.3726	843.458	28.7917
12.3744	849.5528	28.8113
12.3748	853.9649	28.8308
12.3778	846.501	28.8503
12.3791	845.345	28.8699
12.3811	855.109	28.8894
12.3819	848.498	28.9089
12.3851	843.968	28.9285
12.3858	851.341	28.948
12.3876	849.534	28.9675
12.3893	843.867	28.9871
12.3899	850.347	29.0066
12.3923	853.219	29.0261
12.3939	840.044	29.0457
12.3957	847.8457	29.0652
12.3966	852.126	29.0847
12.3999	843.952	29.1042
12.3996	843.14	29.1238
12.4018	855.076	29.1433
12.4039	841.886	29.1628
12.4045	844.771	29.1824
12.4071	850.847	29.2019
12.4084	846.991	29.2214
12.4116	841.523	29.241
12.4126	853.005	29.2605
12.41396	846.55	29.28
12.4154	839.889	29.2996
12.4167	846.686	29.3191
12.4184	850.19	29.3386
12.4205	842.261	29.3582
12.4206	847.619	29.3777
12.423	848.3772	29.3972
12.4253	842.87	29.4167
12.4271	843.627	29.4363
12.4275	851.965	29.4558
12.4299	843.151	29.4753
12.4317	842.547	29.4949
12.4333	849.496	29.5144
12.4348	846.896	29.5339
12.4365	839.227	29.5535
12.4381	848.939	29.573
12.4394	847.454	29.5925
12.4415	840.024	29.6121
12.44245	846.488	29.6316
12.4451	848.568	29.6511
12.4464	839.6969	29.6707
12.4485	843.824	29.6902
12.449	852.626	29.7097
12.4512	837.739	29.7292
12.4526	844.423	29.7488
12.4539	851.409	29.7683
12.45538	842.997	29.7878
12.4571	840.922	29.8074
12.4597	852.253	29.8269
12.4597	841.196	29.8464
12.4617	840.113	29.866
12.4645	849.34	29.8855
12.4655	846.497	29.905
12.4669	839.091	29.9246
12.4694	849.522	29.9441
12.47097	845.476	29.9636
12.4726	840.281	29.9832
12.4744	842.879	30.0027
12.4745	849.156	30.0222
12.4771	840.95	30.0417
12.4793	845.616	30.0613
12.4814	846.957	30.0808
12.4821	841.477	30.1003
12.4839	840.816	30.1199
12.4849	851.14	30.1394
12.487	842.867	30.1589
12.4888	838.422	30.1785
12.4903	846.52	30.198
12.492	846.915	30.2175
12.4934	838.143	30.2371
12.4949	845.271	30.2566
12.497	847.042	30.2761
12.4986	836.673	30.2957
12.50067	843.211	30.3152
12.5006	848.638	30.3347
12.5036	837.127	30.3542
12.5046	840.47	30.3738
12.5063	850.134	30.3933
12.5081	838.438	30.4128
12.5087	839.441	30.4324
12.5125	847.432	30.4519
12.5126	842.551	30.4714
12.5141	839.321	30.491
12.5161	848.504	30.5105
12.5181	840.521	30.53
12.5198	836.041	30.5496
12.5212	845.467	30.5691
12.5233	846.387	30.5886
12.5241	835.841	30.6082
12.5252	843.909	30.6277
12.52682	843.651	30.6472
12.5297	839.179	30.6667
12.5305	840.552	30.6863
12.5319	847.195	30.7058
12.5346	839.852	30.7253
12.53559	840.177	30.7449
12.5374	844.837	30.7644
12.539	843.329	30.7839
12.5399	835.178	30.8035
12.54197	846.899	30.823
12.5435	844.068	30.8425
12.5454	835.402	30.8621
12.5471	842.533	30.8816
12.5482	846.434	30.9011
12.5511	837.289	30.9207
12.5522	842.673	30.9402
12.5535	847.506	30.9597
12.5549	835.806	30.9792
12.5572	839.723	30.9988
12.5582	848.542	31.0183
12.5594	837.769	31.0378
12.562	838.13	31.0574
12.5627	849.105	31.0769
12.56486	839.945	31.0964
12.5666	836.86	31.116
12.5681	844.42	31.1355
12.5696	842.225	31.155
12.5726	836.207	31.1746
12.5735	845.798	31.1941
12.5744	841.747	31.2136
12.5756	836.983	31.2332
12.578	841.522	31.2527
12.5791	846.59	31.2722
12.5819	837.798	31.2917
12.5831	840.5661	31.3113
12.58382	844.978	31.3308
12.5866	840.156	31.3503
12.5885	836.807	31.3699
12.5893	845.912	31.3894
12.5909	840.563	31.4089
12.5923	837.491	31.4285
12.5937	843.3736	31.448
12.5965	841.709	31.4675
12.5973	833.101	31.4871
12.5998	843.212	31.5066
12.6012	846.074	31.5261
12.6018	834.25	31.5457
12.6041	837.428	31.5652
12.60507	846.9433	31.5847
12.6077	834.538	31.6042
12.6087	839.566	31.6238
12.6098	844.913	31.6433
12.6115	834.365	31.6628
12.6145	835.571	31.6824
12.6152	845.992	31.7019
12.6173	837.777	31.7214
12.6189	832.6424	31.741
12.6199	845.182	31.7605
12.6222	839.47	31.78
12.62336	834.5791	31.7996
12.6249	840.118	31.8191
12.6279	843.936	31.8386
12.6276	834.227	31.8582
12.6312	843.2	31.8777
12.632	842.644	31.8972
12.6337	835.282	31.9167
12.6343	836.581	31.9363
12.6374	846.444	31.9558
12.6379	838.396	31.9753
12.63926	837.479	31.9949
[...]
13.3714	838.28	40.77417
13.3719	830.395	40.7839
13.3725	829.084	40.7937
13.3746	827.333	40.8035
13.374	833.897	40.8132
13.3744	837.833	40.823
13.3761	835.712	40.8328
13.3763	834.285	40.8425
13.3783	831.673	40.8523
13.379	829.623	40.8621
13.37993	830.58	40.8718
13.381	833.316	40.8816
13.38085	839.069	40.8914
13.3829	836.195	40.9011
13.3823	830.325	40.9109
13.3835	826.011	40.9207
13.3847	827.64	40.93042
13.3835	836.65	40.9402
13.3854	836.564	40.95
13.3864	836.732	40.9597
13.3878	834.261	40.9695
13.38822	829.021	40.9792
13.3886	826.542	40.989
13.3902	828.123	40.9988
13.391	836.406	41.0085
13.3924	838.656	41.0183
13.3924	834.856	41.0281
13.3939	828.614	41.0378
13.3946	826.965	41.0476
13.3948	829.5141	41.0574
13.3955	831.688	41.0671
13.3958	838.636	41.0769
13.3974	836.875	41.08667
13.3986	831.434	41.0964
13.3996	827.351	41.1062
13.3991	825.1048	41.116
13.3998	830.742	41.1257
13.4007	837.701	41.1355
13.402	840.753	41.1453
13.4026	833.24	41.155
13.4039	826.102	41.1648
13.4043	827.622	41.1746
13.4055	826.254	41.1843
13.4059	836.702	41.1941
13.40671	837.487	41.2039
13.4074	836	41.2136
13.4088	831.423	41.2234
13.4091	822.565	41.2332
13.4095	828.101	41.24292
13.41143	834.997	41.2527
13.4118	838.032	41.2625
13.4124	836.5365	41.2722
13.4146	829.55	41.282
13.4148	829.2074	41.2917
13.4153	828.808	41.3015
13.416	831.799	41.3113
13.4178	836.325	41.321
13.417	837.2937	41.3308
13.4185	836.887	41.3406
13.4199	827.063	41.3503
13.4205	826.776	41.3601
13.4221	829.175	41.3699
13.4211	837.329	41.3796
13.4225	837.693	41.3894
13.4244	834.622	41.39917
13.4242	831.456	41.4089
13.4254	828.01	41.4187
13.4261	828.856	41.4285
13.4276	831.753	41.4382
13.427	835.753	41.448
13.4274	838.419	41.4578
13.4295	832.127	41.4675
13.4292	829.808	41.4773
13.4309	825.271	41.4871
13.4314	832.655	41.4968
13.4325	835.1828	41.5066
13.4331	835.554	41.5164
13.4344	835.361	41.5261
13.4342	829.9624	41.5359
13.4353	828.933	41.5457
13.436	828.246	41.55542
13.4376	831.613	41.5652
13.4387	838.846	41.575
13.4378	836.387	41.5847
13.4408	832.4165	41.5945
13.4405	826.115	41.6042
13.4412	825.397	41.614
13.4419	832.835	41.6238
13.44208	833.321	41.6335
13.4436	838.323	41.6433
13.4442	835.442	41.6531
13.4455	829.68	41.6628
13.4469	828.3418	41.6726
13.4465	827.004	41.6824
13.4481	834.159	41.6921
13.4482	840.248	41.7019
13.4482	835.932	41.71167
13.4507	830.865	41.7214
13.45	825.124	41.7312
13.4512	826.537	41.741
13.4522	831.808	41.7507
13.4531	836.355	41.7605
13.4549	838.537	41.7703
13.4547	834.736	41.78
13.4558	828.085	41.7898
13.4561	824.449	41.7996
13.4575	829.419	41.8093
13.4581	836.464	41.8191
13.4593	840.279	41.8289
13.4594	833.57	41.8386
13.4615	827.611	41.8484
13.4618	827.6449	41.8582
13.4624	827.442	41.86792
13.4628	834.404	41.8777
13.4645	835.436	41.8875
13.4653	837.357	41.8972
13.4659	832.366	41.907
13.4669	824.4765	41.9167
13.4676	827.486	41.9265
13.4686	831.1925	41.9363
13.4687	838.249	41.946
13.47017	837.31	41.9558
13.4703	830.646	41.9656
13.4719	829.016	41.9753
13.4714	827.394	41.9851
13.4729	828.962	41.9949
13.4737	832.93	42.0046
13.4739	835.645	42.0144
13.476	837.261	42.02417
13.4763	828.3	42.0339
13.476	826.099	42.0437
13.4784	827.177	42.0535
13.4788	833.57	42.0632
13.47982	836.7204	42.073
13.481	833.455	42.0828
13.4817	831.792	42.0925
13.4815	830.185	42.1023
13.48263	827.898	42.1121
13.4843	829.003	42.1218
13.4847	832.779	42.1316
13.48586	836.408	42.1414
13.4866	836.723	42.1511
13.487	830.677	42.1609
13.4883	825.291	42.1707
13.4885	829.54	42.18042
13.4891	833.416	42.1902
13.4888	834.528	42.2
13.49148	836.743	42.2097
13.4915	830.798	42.2195
13.4925	830.038	42.2292
13.4934	824.283	42.239
13.4937	829.042	42.2488
13.4948	836.167	42.2585
13.4962	836.153	42.2683
13.4961	835.033	42.2781
13.4978	827.178	42.2878
13.4988	824.9245	42.2976
13.4988	830.331	42.3074
13.5002	831.183	42.3171
13.5002	836.908	42.3269
13.5004	835.025	42.33667
13.5015	830.369	42.3464
13.5027	827.817	42.3562
13.5052	824.766	42.366
13.5034	831.8045	42.3757
13.5053	839.282	42.3855
13.5056	837.396	42.3953
13.5063	834.59	42.405
13.509	827.257	42.4148
13.5093	828.855	42.4246
13.5094	829.419	42.4343
13.5101	833.408	42.4441
13.5115	838.739	42.4539
13.5118	834.147	42.4636
13.5133	829.956	42.4734
13.5142	823.725	42.4832
13.51422	828.64	42.49292
13.5148	836.441	42.5027
13.5154	838.1828	42.5125
13.5172	835.752	42.5222
13.5179	830.484	42.532
13.5182	826.344	42.5417
13.5199	827.291	42.5515
13.5199	831.956	42.5613
13.5213	835.042	42.571
13.5214	837.929	42.5808
13.5227	836.635	42.5906
13.5229	825.943	42.6003
13.5246	826.455	42.6101
13.5248	829.319	42.6199
13.5256	834.922	42.6296
13.5261	836.201	42.6394
13.527	831.863	42.64917
13.5287	831.04	42.6589
13.5288	827.943	42.6687
13.5297	828.199	42.6785
13.5296	829.752	42.6882
13.532	836.017	42.698
13.5313	837.852	42.7078
13.532	832.249	42.7175
13.5337	829.435	42.7273
13.5342	827.137	42.7371
13.5355	828.773	42.7468
13.5364	836.713	42.7566
13.5376	834.401	42.7664
13.5376	835.29	42.7761
13.5389	832.574	42.7859
13.5393	827.912	42.7957
13.5407	828.135	42.80542
13.5411	829.897	42.8152
13.5424	836.915	42.825
13.5431	837.686	42.8347
13.5442	831.365	42.8445
13.5442	827.561	42.8542
13.5448	825.486	42.864
13.5463	831.416	42.8738
13.5465	834.063	42.8835
13.5483	836.919	42.8933
13.5498	835.071	42.9031
13.55	831.406	42.9128
13.5515	824.687	42.9226
13.5515	827.164	42.9324
13.5515	832.214	42.9421
13.5525	838.172	42.9519
13.5535	838.091	42.96167
13.5546	829.319	42.9714
13.5552	826.034	42.9812
13.5558	827.552	42.991
13.5579	829.897	43.0007
13.55856	836.829	43.0105
13.5587	835.693	43.0203
13.559	833.408	43.03
13.5599	828.399	43.0398
13.5606	823.118	43.0496
13.5622	830.0686	43.0593
13.5624	836.296	43.0691
13.5636	839.705	43.0789
13.5649	835.322	43.0886
13.5661	827.874	43.0984
13.5661	827.9751	43.1082
13.5667	826.3891	43.11792
13.5672	832.872	43.1277
13.5693	836.982	43.1375
13.5691	835.189	43.1472
13.5693	832.529	43.157
13.5697	824.198	43.1667
13.571	824.272	43.1765
13.5719	832.518	43.1863
13.5727	836.592	43.196
13.57309	836.662	43.2058
13.57588	832.73	43.2156
13.575	828.343	43.2253
13.5772	828.451	43.2351
13.578	828.225	43.2449
13.5778	832.488	43.2546
13.5789	837.064	43.2644
13.5796	835.122	43.27417
13.5809	828.761	43.2839
13.581	824.574	43.2937
13.582	825.789	43.3035
13.583	833.319	43.3132
13.5837	835.096	43.323
13.5843	834.899	43.3328
13.5841	833.442	43.3425
13.5871	828.583	43.3523
13.5869	827.197	43.3621
13.588	828.642	43.3718
13.5887	833.141	43.3816
13.58882	838.8479	43.3914
13.5902	832.484	43.4011
13.5912	829.968	43.4109
13.5916	826.267	43.4207
13.5931	826.572	43.43042
13.5938	834.2489	43.4402
13.5945	832.088	43.45
13.5951	836.014	43.4597
13.5959	833.457	43.4695
13.5961	828.549	43.4792
13.5976	826.04	43.489
13.5984	827.458	43.4988
13.6007	834.921	43.5085
13.6	839.366	43.5183
13.6014	833.372	43.5281
13.6022	828.911	43.5378
13.6029	825.219	43.5476
13.6037	829.182	43.5574
13.60417	830.632	43.5671
13.60474	837.69	43.5769
13.6053	838.268	43.58667
13.6067	831.286	43.5964
13.6062	825.781	43.6062
13.6083	823.656	43.616
13.6087	831.312	43.6257
13.609	837.926	43.6355
13.611	838.468	43.6453
13.6115	831.064	43.655
13.6123	827.874	43.6648
13.6131	827.346	43.6746
13.61422	826.938	43.6843
13.6153	836.363	43.6941
13.615	837.635	43.7039
13.6168	835.337	43.7136
13.6178	830.147	43.7234
13.6181	821.915	43.7332
13.6184	826.411	43.74292
13.621	832.784	43.7527
13.6206	838.8587	43.7625
13.6209	834.626	43.7722
13.6216	830.278	43.782
13.62226	828.133	43.7917
13.6241	824.584	43.8015
13.6238	832.069	43.8113
13.6254	834.633	43.821
13.6258	834.892	43.8308
13.6275	836.821	43.8406
13.62722	824.573	43.8503
13.6276	825.579	43.8601
13.6297	830.283	43.8699
13.6302	834.507	43.8796
13.6314	837.2514	43.8894
13.632	833.26	43.89917
13.63263	830.662	43.9089
13.6331	828.858	43.9187
13.6344	826.762	43.9285
13.6352	830.36	43.9382
13.6348	834.954	43.948
13.6369	837.551	43.9578
13.63743	830.563	43.9675
13.6377	826.6955	43.9773
13.6394	824.629	43.9871
13.6402	829.435	43.9968
13.6413	833.855	44.0066
13.6416	833.952	44.0164
13.6423	833.138	44.0261
13.6434	831.319	44.0359
13.6441	827.673	44.0457
13.6447	826.277	44.05542
13.6449	830.775	44.0652
13.647	836.715	44.075
13.6465	833.3255	44.0847
13.647	833.8407	44.0945
13.6488	825.5285	44.1042
13.6496	825.72	44.114
13.6515	830.84	44.1238
13.6507	829.942	44.1335
13.6526	835.102	44.1433
13.6528	832.603	44.1531
13.6531	829.813	44.1628
13.6541	825.0434	44.1726
13.65481	825.208	44.1824
13.6561	834.258	44.1921
13.6572	836.993	44.2019
13.6577	835.042	44.21167
13.659	829.642	44.2214
13.6596	824.59	44.2312
13.6597	828.253	44.241
13.661	826.1416	44.2507
13.6617	836.279	44.2605
13.6635	836.371	44.2703
13.663	831.684	44.28
13.6643	827.014	44.2898
13.6654	821.974	44.2996
13.66675	825.9657	44.3093
13.6661	834.839	44.3191
13.66765	836.188	44.3289
13.6686	834.145	44.3386
13.6691	826.74	44.3484
13.6696	824.704	44.3582
13.6707	824.5459	44.36792
13.6715	833.199	44.3777
13.6719	835.695	44.3875
13.6732	838.007	44.3972
13.6742	829.994	44.407
13.6749	822.985	44.4167
13.6752	822.676	44.4265
13.677	831.636	44.4363
13.67692	837.332	44.446
13.6781	835.313	44.4558
13.6788	829.736	44.4656
13.6793	827.917	44.4753
13.6811	825.279	44.4851
13.6812	828.44	44.4949
13.6832	831.997	44.5046
13.6836	836.077	44.5144
13.6838	836.462	44.52417
13.6848	826.381	44.5339
13.68594	826.25	44.5437
13.6863	826.273	44.5535
13.6866	831.877	44.5632
13.6879	835.775	44.573
13.6884	832.365	44.5828
13.6896	832.533	44.5925
13.6902	828.126	44.6023
13.6909	826.725	44.6121
13.6912	826.372	44.6218
13.6918	830.731	44.6316
13.6941	838.077	44.6414
13.6943	830.685	44.6511
13.6949	827.352	44.6609
13.6961	825.358	44.6707
13.6964	826.36	44.68042
13.6976	830.66	44.6902
13.6986	833.164	44.7
13.6993	833.9184	44.7097
13.6994	829.908	44.7195
13.7006	826.22	44.7292
13.70201	823.79	44.739
13.7024	826.148	44.7488
13.7028	833.806	44.7585
13.7047	836.279	44.7683
13.706	832.691	44.7781
13.7067	824.936	44.7878
13.7059	826.254	44.7976
13.70737	825.907	44.8074
13.7084	830.789	44.8171
13.709	835.08	44.8269
13.71032	834.934	44.83667
13.7109	831.626	44.8464
13.7118	824.732	44.8562
13.7122	822.262	44.866
13.7125	830.589	44.8757
13.7135	835.546	44.8855
13.7143	835.9975	44.8953
13.7154	831.023	44.905
13.7162	826.693	44.9148
13.7169	826.045	44.9246
13.7174	823.961	44.9343
13.7188	833.356	44.9441
13.7199	835.5769	44.9539
13.7206	833.3	44.9636
13.7213	829.509	44.9734
13.7228	820.384	44.9832
13.7228	825.629	44.99292
13.7248	833.7168	45.0027
13.7242	835.02	45.0125
13.7255	835.533	45.0222
13.7268	828.022	45.032
13.7264	825.898	45.0417
13.7288	823.501	45.0515
13.729	829.54	45.0613
13.7296	833.298	45.071
13.7296	835.711	45.0808
13.7301	832.195	45.0906
13.7315	824.536	45.1003
13.732	823.892	45.1101
13.733	828.2074	45.1199
13.7344	833.436	45.1296
13.7348	833.666	45.1394
13.7362	832.156	45.14917
13.7365	828.114	45.1589
13.7372	824.208	45.1687
13.7387	824.861	45.1785
13.7394	830.296	45.1882
13.7389	835.443	45.198
13.7417	836.998	45.2078
13.7411	827.221	45.2175
13.7425	826.449	45.2273
13.74424	825.395	45.2371
13.7432	827.153	45.2468
13.74501	832.202	45.2566
13.745	831.61	45.2664
13.746	834.485	45.2761
13.7461	829.718	45.2859
13.7475	824.814	45.2957
13.7489	825.237	45.30542
13.7496	829.148	45.3152
13.7503	835.969	45.325
13.75096	832.186	45.3347
13.7526	830.143	45.3445
13.7524	824.439	45.3542
13.754	823.823	45.364
13.7544	827.455	45.3738
13.7551	830.986	45.3835
13.7562	834.5368	45.3933
13.7566	833.606	45.4031
13.758	826.899	45.4128
13.75901	821.983	45.4226
13.7597	823.785	45.4324
13.7603	831.447	45.4421
13.7607	834.343	45.4519
13.7621	832.666	45.46167
13.7636	828.06	45.4714
13.7637	823.5	45.4812
13.7639	824.151	45.491
13.764	825.803	45.5007
13.7667	831.943	45.5105
13.76592	836.209	45.5203
13.7672	832.55	45.53
13.769	824.305	45.5398
13.7688	822.363	45.5496
13.7712	826.308	45.5593
13.7696	832.912	45.5691
13.7715	837.589	45.5789
13.7724	830.364	45.5886
13.7739	826.7641	45.5984
13.7741	824.243	45.6082
13.7748	822.2486	45.61792
13.7756	830.274	45.6277
13.7764	833.779	45.6375
13.7768	834.581	45.6472
13.7787	830.638	45.657
13.7797	819.762	45.6667
13.7799	823.059	45.6765
13.7808	829.053	45.6863
13.7811	833.75	45.696
13.782	833.792	45.7058
13.78355	828.435	45.7156
13.7833	826.43	45.7253
13.7853	821.6734	45.7351
13.78547	824.919	45.7449
13.7877	829.598	45.7546
13.78646	834.288	45.7644
13.7874	834.2	45.77417
13.7892	824.684	45.7839
13.7894	822.4126	45.7937
13.791	825.077	45.8035
13.7915	829.0661	45.8132
13.7923	830.826	45.823
13.7926	831.322	45.8328
13.7932	827.738	45.8425
13.7945	824.9635	45.8523
13.7947	823.615	45.8621
13.7954	824.245	45.8718
13.7969	830.296	45.8816
13.7974	833.192	45.8914
13.79828	827.912	45.9011
13.799	826.061	45.9109
13.8006	821.9621	45.9207
13.8001	826.075	45.93042
13.8022	828.665	45.9402
13.8033	830.165	45.95
13.8032	830.886	45.9597
13.8046	829.282	45.9695
13.8049	823.539	45.9792
13.8062	820.021	45.989
13.8066	824.449	45.9988
13.8077	831.718	46.0085
13.8079	831.081	46.0183
13.80931	831.957	46.0281
13.8102	823.091	46.0378
13.8104	823.285	46.0476
13.8119	824.847	46.0574
13.8136	826.375	46.0671
13.8136	833.017	46.0769
13.8143	833.185	46.08667
13.81542	827.84	46.0964
13.8157	821.418	46.1062
13.8163	818.832	46.116
13.8169	826.577	46.1257
13.8181	831.407	46.1355
13.8194	831.209	46.1453
13.8201	826.34	46.155
13.8208	824.073	46.1648
13.8214	821.876	46.1746
13.8223	822.203	46.1843
13.8233	828.133	46.1941
13.823	832.468	46.2039
13.8251	833.121	46.2136
13.8247	822.025	46.2234
13.82555	817.748	46.2332
13.8265	820.401	46.24292
13.828	828.078	46.2527
13.8282	832.686	46.2625
13.8286	830.906	46.2722
13.83	827.452	46.282
13.8315	821.625	46.2917
13.8318	818.246	46.3015
13.8327	825.49	46.3113
13.8334	828.724	46.321
13.8345	833.36	46.3308
13.8345	828.676	46.3406
13.8359	818.765	46.3503
13.8364	818.646	46.3601
13.8375	823.455	46.3699
13.8377	828.716	46.3796
13.839	830.921	46.3894
13.8409	825.549	46.39917
13.8413	824.1405	46.4089
13.841	818.7	46.4187
13.8425	820.226	46.4285
13.8438	823.593	46.4382
13.8437	826.779	46.448
13.8455	831.161	46.4578
13.8443	821.244	46.4675
13.8465	818.757	46.4773
13.8481	820.057	46.4871
13.849	822.517	46.4968
13.8488	827.304	46.5066
13.84965	824.308	46.5164
13.8502	823.103	46.5261
13.8523	819.379	46.5359
13.8524	815.91	46.5457
13.852	814.409	46.55542
13.8542	818.555	46.5652
13.8649	-132.67	46.575
13.8619	-49.8602	46.5847
13.8624	-54.5394	46.5945
13.86227	-55.52	46.6042
13.862	-38.8638	46.614
13.8622	-42.7564	46.6238
13.8624	-41.1417	46.6335
13.8627	-42.7413	46.6433
13.8626	-39.7924	46.6531
13.8627	-48.902	46.6628
13.8639	-50.4742	46.6726
13.8641	-50.0545	46.6824
13.8666	-42.0498	46.6921
13.8661	-42.2334	46.7019
13.8676	-39.79977	46.71167
13.8679	-46.5033	46.7214
13.8679	-49.1175	46.7312
13.8691	-49.4913	46.741
13.8706	-47.3444	46.7507
13.8703	-40.0661	46.7605
13.8721	-38.2207	46.7703
13.8726	-42.6857	46.78
13.8734	-50.092	46.7898
13.8741	-53.7214	46.7996
13.87633	-48.1841	46.8093
13.8755	-40.5726	46.8191
13.8766	-39.14547	46.8289
13.8764	-43.1222	46.8386
13.87841	-47.5746	46.8484
13.8797	-48.6268	46.8582
13.8796	-51.9427	46.86792
13.88033	-44.4152	46.8777
13.8822	-38.766	46.8875
13.8824	-39.72337	46.8972
13.8833	-45.83	46.907
13.8837	-52.2755	46.9167
13.8859	-51.1009	46.9265
13.8851	-42.64246	46.9363
13.8871	-40.8221	46.946
13.8871	-40.2241	46.9558
13.88709	-44.1158	46.9656
13.8883	-46.5451	46.9753
13.8891	-51.9971	46.9851
13.88965	-47.654	46.9949
13.891	-41.48	47.0046
13.8919	-37.8221	47.0144
13.8935	-41.3839	47.02417
13.8939	-47.7396	47.0339
13.8946	-49.5736	47.0437
13.8947	-48.6383	47.0535
13.8959	-43.26268	47.0632
13.8966	-41.6956	47.073
13.89862	-41.6087	47.0828
13.8991	-42.4454	47.0925
13.8986	-48.7052	47.1023
13.8997	-50.1678	47.1121
13.9017	-47.425	47.1218
13.9011	-41.213	47.1316
13.9017	-37.913	47.1414
13.9033	-44.4659	47.1511
13.9036	-46.84272	47.1609
13.9059	-49.3953	47.1707
13.9059	-47.06876	47.18042
13.9057	-43.1306	47.1902
13.9086	-42.62281	47.2
13.9076	-40.61916	47.2097
13.90941	-43.92152	47.2195
13.9095	-50.5784	47.2292
13.9101	-48.3915	47.239
13.91157	-47.2697	47.2488
13.9133	-39.8292	47.2585
13.9133	-40.0084	47.2683
13.9128	-41.6883	47.2781
13.9153	-47.0779	47.2878
13.9148	-49.2506	47.2976
13.9164	-46.8945	47.3074
13.9165	-46.0617	47.3171
13.9169	-40.5026	47.3269
13.9185	-38.1315	47.33667
13.9198	-44.4103	47.3464
13.9194	-50.7661	47.3562
13.9217	-50.9088	47.366
13.9211	-43.9666	47.3757
13.9234	-41.4456	47.3855
13.9231	-39.9745	47.3953
13.92399	-44.7974	47.405
13.9244	-46.2411	47.4148
13.9259	-50.5855	47.4246
13.9277	-49.8714	47.4343
13.9266	-41.5689	47.4441
13.9281	-37.9283	47.4539
13.9298	-39.5754	47.4636
13.9298	-47.9371	47.4734
13.9304	-52.1891	47.4832
13.9315	-49.3595	47.49292
13.9326	-43.88073	47.5027
13.9328	-39.0289	47.5125
13.9343	-39.87785	47.5222
13.9342	-45.859	47.532
13.9362	-47.4301	47.5417
13.9371	-52.6028	47.5515
13.9372	-46.1731	47.5613
13.9379	-39.4039	47.571
13.93805	-38.3639	47.5808
13.93925	-41.7992	47.5906
13.9404	-50.3133	47.6003
13.9414	-50.4502	47.6101
13.94234	-45.5674	47.6199
13.9431	-42.778	47.6296
13.944	-39.2968	47.6394
13.944	-42.0664	47.64917
13.94642	-43.1132	47.6589
13.9461	-50.6368	47.6687
13.9473	-49.8329	47.6785
13.9476	-44.3349	47.6882
13.9481	-39.7805	47.698
13.9485	-39.6879	47.7078
13.9509	-43.94656	47.7175
13.9513	-48.6432	47.7273
13.9502	-48.89502	47.7371
13.95334	-47.3461	47.7468
13.9533	-42.8733	47.7566
13.9551	-41.2648	47.7664
13.955	-40.9353	47.7761
13.9562	-46.4911	47.7859
13.9565	-47.9384	47.7957
13.95842	-50.3304	47.80542
13.9588	-42.09	47.8152
13.959	-39.2599	47.825
13.9595	-43.8576	47.8347
13.9621	-43.71035	47.8445
13.9622	-48.267	47.8542
13.9628	-49.5392	47.864
13.9637	-45.29829	47.8738
13.9641	-45.4094	47.8835
13.9658	-39.6488	47.8933
13.9656	-41.8519	47.9031
13.9669	-45.8106	47.9128
13.9674	-50.2117	47.9226
13.9677	-50.8649	47.9324
13.96899	-40.8216	47.9421
13.9693	-41.5208	47.9519
13.9711	-40.4625	47.96167
13.9714	-44.7513	47.9714
13.973	-48.09309	47.9812
13.973	-49.548	47.991
13.9746	-47.8081	48.0007
13.9751	-40.3568	48.0105
13.9762	-37.8993	48.0203
13.977	-42.1691	48.03
13.9775	-48.00164	48.0398
13.97794	-51.9368	48.0496
13.9793	-46.8304	48.0593
13.9793	-44.044	48.0691
13.9805	-39.5831	48.0789
13.9804	-41.5261	48.0886
13.9823	-46.2018	48.0984
13.9839	-49.5851	48.1082
13.9837	-50.4418	48.11792
13.98446	-44.8007	48.1277
13.98449	-38.4183	48.1375
13.98577	-36.7855	48.1472
13.9866	-44.4701	48.157
13.987	-51.4855	48.1667
13.989	-48.6891	48.1765
13.9903	-45.242	48.1863
13.9892	-40.3933	48.196
13.9907	-40.8501	48.2058
13.9932	-42.9274	48.2156
13.9919	-47.0843	48.2253
13.99358	-53.0955	48.2351
13.9946	-44.9455	48.2449
13.9954	-41.9164	48.2546
13.9965	-38.9646	48.2644
13.9965	-40.3612	48.27417
13.9977	-48.3696	48.2839
13.9991	-50.23	48.2937
13.999	-47.7255	48.3035
13.9996	-45.0826	48.3132
13.9996	-40.1643	48.323
14.0017	-41.7651	48.3328
14.0022	-42.2838	48.3425
14.0031	-50.5724	48.3523
14.0028	-51.1593	48.3621
14.005	-47.5736	48.3718
14.0059	-41.3908	48.3816
14.0063	-38.72604	48.3914
14.00722	-43.6142	48.4011
14.0086	-47.8537	48.4109
14.0088	-46.9695	48.4207
14.0091	-49.47673	48.43042
14.0105	-43.1082	48.4402
14.0105	-41.7038	48.45
14.0121	-40.1017	48.4597
14.0127	-44.311	48.4695
14.0137	-48.8608	48.4792
14.0133	-53.0515	48.489
14.0149	-44.9685	48.4988
14.0171	-42.7527	48.5085
14.0171	-41.8661	48.5183
14.0183	-41.2872	48.5281
14.0187	-48.44368	48.5378
14.0192	-48.2562	48.5476
14.021	-46.9689	48.5574
14.0213	-47.2872	48.5671
14.0225	-40.76503	48.5769
14.0228	-41.0039	48.58667
14.0238	-43.85281	48.5964
14.0236	-51.98101	48.6062
14.0254	-50.0832	48.616
14.0258	-42.0327	48.6257
14.0269	-43.1629	48.6355
14.0276	-39.9771	48.6453
14.0283	-42.3238	48.655
14.02905	-48.4613	48.6648
14.0308	-48.4865	48.6746
14.0312	-51.7878	48.6843
14.031	-42.914	48.6941
14.0333	-37.735	48.7039
14.033	-41.3019	48.7136
14.0339	-46.9339	48.7234
14.0348	-52.13134	48.7332
14.0356	-49.953	48.74292
14.03653	-42.4805	48.7527
14.0369	-40.6278	48.7625
14.0382	-41.3858	48.7722
14.0389	-45.70784	48.782
14.0392	-47.53463	48.7917
14.0411	-52.0762	48.8015
14.0421	-47.5099	48.8113
14.042	-39.2682	48.821
14.0427	-39.8502	48.8308
14.04398	-44.5353	48.8406