File: data/processed_data_files/tensile/0.254_hd_dimension_typei_4545_r(6).dat
MTS793|BTW|ENU|1|2|.|/|:|1|0|0|A

Data Header:			0.254_hd_dimension_typei_4545_r0			Time:	20.0205	s	4/15/2019 3:20:39 PM
Data Acquisition:	Timed
Station Name:	ft40.cfg
Test File Name:	monotonic_0.2540_typei_hd_4545_dimension.tst
Displacement	Force	Running Time
mm	N	s
9.98139	-173.083	0.0229492
9.98094	-171.2066	0.0424805
9.981	-162.354	0.0620117
9.98256	-168.889	0.081543
9.98447	-173.183	0.101074
9.986867	-165.561	0.120605
9.98796	-163.972	0.140137
9.98965	-168.839	0.159668
9.99116	-165.0983	0.179199
9.993289	-162.092	0.19873
9.99453	-166.557	0.218262
9.99589	-163.901	0.237793
9.99875	-157.154	0.257324
9.99875	-163.023	0.276855
10.0018	-167.551	0.296387
10.0028	-154.817	0.315918
10.0041	-159.72	0.335449
10.0061	-165.32	0.35498
10.0073	-154.693	0.374512
10.0086	-152.667	0.394043
10.0116	-163.009	0.413574
10.0127	-151.68	0.433105
10.0135	-151.9334	0.452637
10.0171	-159.959	0.472168
10.0172	-151.386	0.491699
10.0201	-144.825	0.51123
10.0199	-159.882	0.530762
10.0226	-150.002	0.550293
10.0239	-145.464	0.569824
10.0258	-151.784	0.589355
10.0272	-152.005	0.608887
10.0294	-142.319	0.628418
10.03089	-150.131	0.647949
10.0322	-149.378	0.66748
10.03303	-143.159	0.687012
10.0347	-145.13	0.706543
10.0376	-149.49	0.726074
10.0386	-141.6553	0.745605
10.0396	-140.0591	0.765137
10.0411	-147.054	0.784668
10.044	-143.034	0.804199
10.0443	-136.114	0.82373
10.0467	-142.53	0.843262
10.0478	-141.79	0.862793
10.0505	-133.647	0.882324
10.05092	-140.184	0.901855
10.05262	-139.545	0.921387
10.0546	-130.471	0.940918
10.0556	-133.333	0.960449
10.0581	-142.109	0.97998
10.0597	-128.061	0.999512
10.0605	-130.364	1.019043
10.0634	-135.313	1.03857
10.0642	-128.601	1.05811
10.0664	-124.115	1.07764
10.0672	-136.674	1.097168
10.0691	-124.005	1.1167
10.0711	-122.736	1.13623
10.073	-131.032	1.15576
10.0737	-128.459	1.175293
10.0751	-116.607	1.19482
10.0778	-129.319	1.21436
10.079	-125.123	1.23389
10.08054	-119.594	1.253418
10.082	-120.129	1.27295
10.08427	-125.474	1.29248
10.0843	-116.513	1.31201
10.08837	-120.973	1.331543
10.089	-122.313	1.35107
10.0902	-114.377	1.37061
10.0915	-112.699	1.39014
10.0935	-120.773	1.409668
10.0954	-113.708	1.4292
10.0971	-110.238	1.44873
10.098	-117.383	1.46826
10.0995	-115.049	1.487793
10.1024	-106.895	1.50732
10.1032	-111.636	1.52686
10.1054	-115.021	1.54639
10.10716	-104.231	1.565918
10.1076	-109.375	1.58545
10.11	-112.035	1.60498
10.1112	-102.575	1.62451
10.1127	-102.617	1.644043
10.1139	-115.244	1.66357
10.1174	-102.726	1.68311
10.1179	-99.7529	1.70264
10.1202	-107.728	1.722168
10.1212	-102.332	1.7417
10.1226	-95.832	1.76123
10.1244	-105.915	1.78076
10.1262	-99.1202	1.800293
10.127	-94.2144	1.81982
10.1299	-99.81012	1.83936
10.1299	-98.5327	1.85889
10.1324	-89.8664	1.878418
10.1338	-96.6321	1.89795
10.1357	-98.8524	1.91748
10.1378	-89.8745	1.93701
10.1392	-89.9085	1.956543
10.1416	-94.4191	1.97607
10.1426	-87.7239	1.99561
10.1433	-88.1075	2.01514
10.1451	-95.3546	2.034668
10.1481	-86.2989	2.0542
10.1482	-81.4515	2.07373
10.1507	-89.4793	2.09326
10.1524	-89.4424	2.112793
10.15398	-78.2572	2.13232
10.1553	-85.2593	2.15186
10.1572	-86.4253	2.17139
10.1589	-77.178	2.190918
10.1598	-78.6679	2.21045
10.1613	-86.53009	2.22998
10.1628	-72.7933	2.24951
10.1645	-76.9904	2.269043
10.16694	-82.3956	2.28857
10.16847	-73.1916	2.30811
10.16988	-70.8676	2.32764
10.1715	-83.7982	2.347168
10.1734	-73.0168	2.3667
10.175	-68.0832	2.38623
10.1764	-74.9943	2.40576
10.1781	-72.1959	2.425293
10.18	-63.4262	2.44482
10.1819	-74.4544	2.46436
10.1828	-69.3955	2.48389
10.1848	-62.0952	2.503418
10.1869	-67.3663	2.52295
10.1876	-71.0257	2.54248
10.189	-59.0073	2.56201
10.1908	-64.7442	2.581543
10.1919	-67.0519	2.60107
10.1945	-61.5618	2.62061
10.1969	-57.9282	2.64014
10.1972	-63.8946	2.659668
10.1994	-58.7583	2.6792
10.20204	-56.3103	2.69873
10.2022	-62.1556	2.71826
10.20419	-57.748	2.737793
10.2061	-51.3085	2.75732
10.2066	-56.9647	2.77686
10.2097	-60.4227	2.79639
10.21033	-45.983	2.815918
10.2124	-51.6821	2.83545
10.2152	-55.8425	2.85498
10.2147	-45.36525	2.87451
10.21741	-48.3581	2.894043
10.2184	-54.9629	2.91357
10.22057	-43.7965	2.93311
10.2224	-45.0348	2.95264
10.2235	-50.4322	2.972168
10.2245	-44.7465	2.9917
10.2271	-36.1862	3.01123
10.2294	-48.8906	3.03076
10.22976	-44.4486	3.050293
10.2318	-35.8664	3.06982
10.2327	-40.0815	3.08936
10.2347	-41.9317	3.10889
10.236	-34.594	3.128418
10.2375	-41.6496	3.14795
10.2394	-42.0069	3.16748
10.242	-33.265	3.18701
10.2429	-33.8678	3.206543
10.2448	-39.9079	3.22607
10.2471	-31.61928	3.24561
10.2486	-28.1522	3.26514
10.2494	-37.9037	3.284668
10.2516	-31.7112	3.3042
10.2533	-25.6784	3.32373
10.2547	-32.3036	3.34326
10.2559	-31.3252	3.362793
10.2573	-23.9119	3.38232
10.2595	-31.4814	3.40186
10.2604	-29.5389	3.42139
10.2632	-20.1632	3.440918
10.2634	-23.9412	3.46045
10.2671	-33.3304	3.47998
10.2674	-16.9205	3.49951
10.2686	-19.78487	3.519043
10.2715	-24.4999	3.53857
10.2721	-17.9301	3.55811
10.274	-13.0378	3.57764
10.2757	-25.3354	3.597168
10.2767	-14.44256	3.6167
10.2789	-12.1219	3.63623
10.2808	-19.6217	3.65576
10.2821	-15.091	3.675293
10.28424	-7.39991	3.69482
10.2852	-16.7206	3.71436
10.2866	-13.8759	3.73389
10.2878	-6.57054	3.753418
10.2901	-10.0813	3.77295
10.2925	-12.15273	3.79248
10.2934	-4.242281	3.81201
10.2939	-6.80279	3.831543
10.2964	-10.5503	3.85107
10.2993	-2.65583	3.87061
10.2993	-0.6012364	3.89014
10.3018	-7.72326	3.909668
10.3038	-3.75272	3.9292
10.30497	4.41829	3.94873
10.3066	-3.9002	3.96826
10.3073	-3.378346	3.987793
10.3094	6.07372	4.00732
10.3109	1.52477	4.02686
10.3118	-1.48082	4.04639
10.3153	11.32276	4.065918
10.3165	3.50287	4.08545
10.317	0.735115	4.10498
10.3198	11.3324	4.12451
10.3215	12.8981	4.144043
10.3227	-0.2960726	4.16357
10.3239	13.6303	4.18311
10.3264	13.9311	4.20264
10.327	7.23203	4.222168
10.3289	13.57306	4.2417
10.3313	18.4229	4.26123
10.3326	7.20378	4.28076
10.3349	15.2335	4.300293
10.3354	21.5683	4.31982
10.337	13.938	4.33936
10.3396	15.3788	4.35889
10.3408	25.8009	4.378418
10.3424	18.6613	4.39795
10.3436	15.6064	4.41748
10.3449	23.4014	4.43701
10.3481	22.96	4.456543
10.3486	18.1557	4.47607
10.3505	26.5137	4.49561
10.3515	26.7458	4.51514
10.353	20.6886	4.534668
10.35477	28.2689	4.5542
10.35714	32.6905	4.57373
10.3583	25.3626	4.59326
10.361	25.0583	4.612793
10.3621	35.7387	4.63232
10.3637	30.4539	4.65186
10.3645	28.6819	4.67139
10.3662	37.1155	4.690918
10.3681	34.4019	4.71045
10.3703	28.27182	4.72998
10.3704	43.3914	4.74951
10.3736	40.1174	4.769043
10.3751	32.1806	4.78857
10.3759	42.8036	4.80811
10.3775	47.54287	4.82764
10.3793	33.1476	4.847168
10.3813	43.5211	4.8667
10.3826	46.9631	4.88623
10.3852	40.2334	4.90576
10.386	43.4846	4.925293
10.3876	50.8618	4.94482
10.389	41.9394	4.96436
10.3908	43.9878	4.98389
10.3927	54.4428	5.003418
10.3944	49.5932	5.02295
10.3961	43.2863	5.04248
10.3968	55.94928	5.06201
10.3981	52.9951	5.081543
10.4014	46.2756	5.10107
10.4032	54.0077	5.12061
10.4038	58.6735	5.14014
10.4064	52.3427	5.159668
10.4082	55.9166	5.1792
10.408	60.3162	5.19873
10.40984	52.9748	5.21826
10.41138	58.1796	5.237793
10.4142	66.3616	5.25732
10.4154	62.23204	5.27686
10.4159	54.6783	5.29639
10.4189	68.7444	5.315918
10.41995	62.56234	5.33545
10.4227	61.3472	5.35498
10.4231	70.3934	5.37451
10.4249	69.111	5.394043
10.4263	58.4791	5.41357
10.4293	72.08889	5.43311
10.4291	71.7766	5.45264
10.4318	64.1254	5.472168
10.43357	73.3963	5.4917
10.4348	79.36068	5.51123
10.436	66.942	5.53076
10.4379	71.5582	5.550293
10.44	78.8488	5.56982
10.4414	74.4246	5.58936
10.4433	75.34436	5.60889
10.4447	83.9049	5.628418
10.4457	76.1232	5.64795
10.4486	73.82914	5.66748
10.4501	85.2383	5.68701
10.4505	84.6683	5.706543
10.45301	77.9619	5.72607
10.45441	86.8486	5.74561
10.4558	88.3697	5.76514
10.458	80.942	5.784668
10.45993	85.8773	5.8042
10.4606	92.423	5.82373
10.4631	85.6836	5.84326
10.4636	86.7445	5.862793
10.4646	96.6068	5.88232
10.4676	87.2683	5.90186
10.4694	89.8436	5.92139
10.4704	99.841	5.940918
10.4725	96.9911	5.96045
10.4743	86.4963	5.97998
10.4761	101.117	5.99951
10.4771	99.2644	6.019043
10.4794	93.6538	6.03857
10.4806	102.535	6.05811
10.4824	104.685	6.07764
10.4841	91.6096	6.097168
10.4853	103.139	6.1167
10.4861	106.088	6.13623
10.4878	97.492	6.15576
10.4901	101.8653	6.175293
10.4919	112.301	6.19482
10.4938	102.249	6.21436
10.4959	104.903	6.23389
10.4972	113.295	6.253418
10.4987	109.176	6.27295
10.4997	106.0287	6.29248
10.5015	115.569	6.31201
10.5032	111.132	6.331543
10.5049	107.165	6.35107
10.5068	116.565	6.37061
10.5085	118.7712	6.39014
10.5092	111.301	6.409668
10.5119	114.512	6.4292
10.5124	123.266	6.44873
10.5149	114.318	6.46826
10.516	116.764	6.487793
10.5182	124.228	6.50732
10.51989	119.909	6.52686
10.5218	117.43	6.54639
10.52225	130.879	6.565918
10.5245	122.507	6.58545
10.5261	120.411	6.60498
10.5282	130.3548	6.62451
10.5291	130.724	6.644043
10.5301	118.282	6.66357
10.5336	131.423	6.68311
10.5349	133.634	6.70264
10.5363	126.415	6.722168
10.5376	133.5177	6.7417
10.5387	137.1666	6.76123
10.5411	124.722	6.78076
10.5425	132.36	6.800293
10.5432	139.869	6.81982
10.5457	132.7061	6.83936
10.5476	132.304	6.85889
10.5493	143.138	6.878418
10.5507	136.513	6.89795
10.5515	134.858	6.91748
10.5531	143.6481	6.93701
10.5553	141.626	6.956543
10.5575	137.972	6.97607
10.5585	146.97	6.99561
10.5596	145.69	7.01514
10.5617	138.905	7.034668
10.5637	146.479	7.0542
10.5651	151.664	7.07373
10.5669	146.2957	7.09326
10.5679	144.298	7.112793
10.57	154.885	7.13232
10.5715	147.581	7.15186
10.5748	148.801	7.17139
10.5746	157.115	7.190918
10.5773	154.246	7.21045
10.5779	145.887	7.22998
10.579	160.704	7.24951
10.58173	157.62	7.269043
10.5825	149.165	7.28857
10.5855	160.7294	7.30811
10.5869	164.689	7.32764
10.5871	151.013	7.347168
10.5894	162.1188	7.3667
10.5916	166.042	7.38623
10.5923	158.236	7.40576
10.5951	162.648	7.425293
10.5958	170.16	7.44482
10.5981	159.502	7.46436
10.5992	163.29	7.48389
10.6003	171.623	7.503418
10.6024	168.262	7.52295
10.6042	165.871	7.54248
10.6063	173.917	7.56201
10.608	170.499	7.581543
10.6087	165.377	7.60107
10.6101	174.934	7.62061
10.6126	175.399	7.64014
10.6141	170.995	7.659668
10.6159	173.869	7.6792
10.617	181.271	7.69873
10.6187	170.1322	7.71826
10.6199	174.7028	7.737793
10.622	184.48	7.75732
10.62426	178.825	7.77686
10.625	172.4373	7.79639
10.6273	186.32	7.815918
10.6281	179.563	7.83545
10.63129	178.481	7.85498
10.6315	188.059	7.87451
10.6338	188.67	7.894043
10.6354	177.8712	7.91357
10.6369	191.595	7.93311
10.638	190.747	7.95264
10.641	182.174	7.972168
10.642	190.555	7.9917
10.6444	197.156	8.01123
10.6445	184.8987	8.03076
10.6474	190.858	8.050293
10.647	196.343	8.06982
10.65	190.687	8.08936
10.65155	192.821	8.10889
10.65328	201.631	8.128418
10.6557	193.458	8.14795
10.6563	192.6097	8.16748
10.6577	203.299	8.18701
10.6587	202.5238	8.206543
10.6607	197.086	8.22607
10.662	202.1358	8.24561
10.6639	204.198	8.26514
10.6655	197.056	8.284668
10.6678	204.308	8.3042
10.669	208.937	8.32373
10.6704	201.252	8.34326
10.6724	202.632	8.362793
10.6736	215.505	8.38232
10.6757	204.578	8.40186
10.6781	204.967	8.42139
10.6785	216.65	8.440918
10.67991	212.785	8.46045
10.6823	202.462	8.47998
10.6835	218.435	8.49951
10.686	214.055	8.519043
10.6876	210.438	8.53857
10.6891	219.552	8.55811
10.6898	222.158	8.57764
10.6916	210.937	8.597168
10.6938	222.465	8.6167
10.6953	223.2547	8.63623
10.697	216.232	8.65576
10.6988	219.408	8.675293
10.6998	228.306	8.69482
10.7017	219.153	8.71436
10.7036	220.854	8.73389
10.705	228.424	8.753418
10.70729	222.914	8.77295
10.7087	222.574	8.79248
10.7084	233.668	8.81201
10.71139	228.917	8.831543
10.7127	223.655	8.85107
10.71461	233.297	8.87061
10.71771	235.996	8.89014
10.7183	228.795	8.909668
10.7199	231.085	8.9292
10.7217	240.624	8.94873
10.723	229.911	8.96826
10.7241	234.456	8.987793
10.7265	242.456	9.00732
10.7276	236.218	9.02686
10.7295	233.833	9.04639
10.7319	247.976	9.065918
10.7319	238.0751	9.08545
10.7337	236.685	9.10498
10.736	247.783	9.12451
10.738	247.916	9.144043
10.7385	236.314	9.16357
10.742	248.5047	9.18311
10.7427	247.752	9.20264
10.7435	243.436	9.222168
10.7452	248.992	9.2417
10.747	254.517	9.26123
10.7489	242.348	9.28076
10.7501	250.287	9.300293
10.7529	257.251	9.31982
10.7537	251.249	9.33936
10.7559	249.576	9.35889
10.75692	260.61	9.378418
10.7586	251.74	9.39795
10.7599	251.106	9.41748
10.7614	260.717	9.43701
10.76386	257.518	9.456543
10.7646	256.19	9.47607
10.76692	263.198	9.49561
10.7688	263.628	9.51514
10.7693	252.879	9.534668
10.7715	264.001	9.5542
10.77257	268.852	9.57373
10.7741	261.943	9.59326
10.7757	261.117	9.612793
10.7781	271.938	9.63232
10.7796	263.943	9.65186
10.7812	264.903	9.67139
10.7839	275.115	9.690918
10.785	270.159	9.71045
10.7864	262.722	9.72998
10.7878	277.857	9.74951
10.7895	273.971	9.769043
10.7916	267.776	9.78857
10.7936	276.194	9.80811
10.7939	281.459	9.82764
10.79572	268.599	9.847168
10.797	278.645	9.8667
10.7999	281.6575	9.88623
10.8001	273.756	9.90576
10.8025	278.639	9.925293
10.8048	286.366	9.94482
10.8057	275.877	9.96436
10.8072	279.2742	9.98389
10.8088	288.964	10.0034
10.8107	284.065	10.0229
10.8136	280.828	10.04248
10.8139	287.778	10.062
10.81599	288.072	10.0815
10.8164	281.955	10.1011
10.819	290.739	10.1206
10.8198	292.921	10.1401
10.8212	285.685	10.1597
10.8231	291.526	10.1792
10.82469	299.071	10.19873
10.8269	287.812	10.2183
10.8292	290.902	10.2378
10.8311	300.947	10.2573
10.8312	295.1528	10.2769
10.8336	288.631	10.2964
10.8352	303.862	10.3159
10.8367	297.209	10.3354
10.8391	293.898	10.35498
10.8388	305.408	10.3745
10.8419	306.029	10.394
10.84258	292.288	10.4136
10.8448	305.546	10.4331
10.8456	307.5675	10.4526
10.8479	299.483	10.4722
10.8486	303.944	10.4917
10.8516	314.3782	10.51123
10.8534	301.453	10.5308
10.8546	305.908	10.5503
10.8569	314.52	10.5698
10.8593	306.251	10.5894
10.859	308.332	10.6089
10.8614	319.724	10.6284
10.8628	310.123	10.6479
10.8633	306.951	10.66748
10.8654	318.681	10.687
10.8668	318.168	10.7065
10.8697	310.146	10.7261
10.8708	317.771	10.7456
10.8731	321.3147	10.7651
10.87397	312.655	10.7847
10.8749	320.707	10.8042
10.87771	325.006	10.82373
10.8788	318.007	10.8433
10.8807	317.966	10.8628
10.8819	331.644	10.8823
10.8837	320.372	10.9019
10.886	319.61	10.9214
10.8869	330.953	10.9409
10.8901	329.243	10.9604
10.8904	319.889	10.97998
10.8914	332.467	10.9995
10.8934	329.319	11.019
10.8957	325.313	11.0386
10.8975	333.899	11.0581
10.8989	336.8089	11.0776
10.8998	323.219	11.0972
10.9022	335.189	11.1167
10.9034	340.547	11.13623
10.9048	330.061	11.1558
10.9062	334.274	11.1753
10.9088	344.337	11.1948
10.9098	332.062	11.2144
10.9116	334.295	11.2339
10.91422	343.685	11.2534
10.9157	339.53	11.2729
10.9159	335.723	11.29248
10.9179	346.381	11.312
10.9188	343.563	11.3315
10.9211	334.274	11.3511
10.92314	346.234	11.3706
10.9247	349.707	11.3901
10.92567	342.747	11.4097
10.9278	345.713	11.4292
10.929	354.068	11.44873
10.9313	344.183	11.4683
10.9326	348.803	11.4878
10.9344	357.891	11.5073
10.9363	350.0762	11.5269
10.9376	344.35	11.5464
10.93924	362.062	11.5659
10.941	353.709	11.5854
10.943	347.676	11.60498
10.9448	361.496	11.6245
10.9451	363.961	11.644
10.9467	350.81	11.6636
10.94828	364.616	11.6831
10.9507	362.211	11.7026
10.95202	355.417	11.7222
10.95421	363.383	11.7417
10.9553	370.023	11.76123
10.9573	356.218	11.7808
10.9583	363.568	11.8003
10.961	372.137	11.8198
10.9624	364.801	11.8394
10.9633	362.846	11.8589
10.9652	373.826	11.8784
10.9666	366.61	11.8979
10.9683	362.895	11.91748
10.9701	376.077	11.937
10.9725	373.696	11.9565
10.9738	366.699	11.9761
10.9758	374.623	11.9956
10.97624	379.047	12.0151
10.9785	368.493	12.0347
10.98	374.664	12.0542
10.98189	383.9494	12.07373
10.9822	376.14	12.0933
10.9838	373.108	12.1128
10.9866	386.407	12.1323
10.98749	376.651	12.1519
10.9892	377.668	12.1714
10.9912	389.249	12.1909
10.99186	383.15	12.2104
10.99533	375.08	12.22998
10.9969	390.585	12.2495
10.9976	388.681	12.269
10.9998	378.166	12.2886
11.0011	388.131	12.3081
11.00284	394.3497	12.3276
11.0032	381.32	12.3472
11.0063	391.541	12.3667
11.008	395.524	12.38623
11.0099	384.936	12.4058
11.0114	390.619	12.4253
11.0134	400.928	12.4448
11.0142	389.961	12.4644
11.0162	388.356	12.4839
11.0174	401.678	12.5034
11.019	397.519	12.5229
11.0201	393.048	12.54248
11.0222	402.3208	12.562
11.0237	399.646	12.5815
11.0253	393.033	12.6011
11.0268	403.276	12.6206
11.02886	405.54	12.6401
11.0301	397.284	12.6597
11.0318	401.881	12.6792
11.034	413.57	12.69873
11.035	397.957	12.7183
11.0372	402.258	12.7378
11.0392	413.058	12.7573
11.0395	407.596	12.7769
11.0418	400.311	12.7964
11.0429	416.9321	12.8159
11.0451	408.308	12.8354
11.046	404.611	12.85498
11.0482	417.361	12.8745
11.0499	416.221	12.894
11.0521	403.465	12.9136
11.0528	418.28	12.9331
11.0549	420.3389	12.9526
11.0573	410.4523	12.9722
11.0589	416.492	12.9917
11.0595	423.792	13.01123
11.0616	412.12	13.0308
11.0625	418.6355	13.0503
11.0646	424.974	13.0698
11.0665	417.177	13.0894
11.0683	419.794	13.1089
11.0696	429.276	13.1284
11.07221	421.239	13.1479
11.0729	416.627	13.16748
11.0747	429.525	13.187
11.0771	427.694	13.2065
11.0775	420.183	13.2261
11.0793	428.199	13.2456
11.0811	433.413	13.2651
11.08188	423.125	13.2847
11.0839	429.945	13.3042
11.0858	438.231	13.32373
11.0878	428.155	13.3433
11.0892	428.165	13.3628
11.0913	442.56	13.3823
11.0928	430.942	13.4019
11.0936	429.95	13.4214
11.09598	442.213	13.4409
11.09676	439.515	13.4604
11.099	428.226	13.47998
11.1014	444.91	13.4995
11.1027	441.0455	13.519
11.1042	433.804	13.5386
11.105	445.117	13.5581
11.1083	447.473	13.5776
11.1082	432.941	13.5972
11.11	443.662	13.6167
11.1117	449.462	13.63623
11.114	441.186	13.6558
11.1154	442.876	13.6753
11.1168	453.485	13.6948
11.1194	443.746	13.7144
11.1195	444.62	13.7339
11.1221	456.298	13.7534
11.12315	448.89	13.7729
11.1262	444.677	13.79248
11.127	456.484	13.812
11.1279	455.208	13.8315
11.1301	443.563	13.8511
11.1314	457.01	13.8706
11.1337	460.353	13.8901
11.1347	453.758	13.9097
11.1359	455.537	13.9292
11.1378	464.621	13.94873
11.1398	452.697	13.9683
11.1418	456.766	13.9878
11.14302	467.534	14.0073
11.1444	459.576	14.0269
11.1457	453.7406	14.0464
11.1484	470.051	14.0659
11.1493	462.491	14.0854
11.1511	457.916	14.10498
11.1522	471.138	14.1245
11.154	470.85	14.144
11.156	457.106	14.1636
11.1577	472.448	14.1831
11.1596	470.429	14.2026
11.1608	463.429	14.2222
11.162	470.508	14.2417
11.1637	477.254	14.26123
11.1647	464.033	14.2808
11.16694	470.376	14.3003
11.1688	479.946	14.3198
11.1704	470.804	14.3394
11.1724	471.1564	14.3589
11.1738	481.294	14.3784
11.1755	474.816	14.3979
11.1769	472.902	14.41748
11.1785	484.592	14.437
11.1806	482.01	14.4565
11.1816	474.155	14.4761
11.1829	481.928	14.4956
11.1849	488.426	14.5151
11.1864	475.8291	14.5347
11.188	482.41	14.5542
11.19	489.711	14.57373
11.1918	482.805	14.5933
11.1923	480.783	14.6128
11.1949	492.418	14.6323
11.197	483.273	14.6519
11.1975	484.682	14.6714
11.20071	496.345	14.6909
11.2018	490.988	14.7104
11.2027	479.41	14.72998
11.2049	496.9	14.7495
11.20586	494.304	14.769
11.2074	485.969	14.7886
11.2087	496.893	14.8081
11.211	500.948	14.8276
11.2129	487.09	14.8472
11.2148	498.345	14.8667
11.216	503.7316	14.88623
11.217	491.946	14.9058
11.2183	496.429	14.9253
11.221	506.887	14.9448
11.222	496.354	14.9644
11.2236	494.833	14.9839
11.2267	507.008	15.0034
11.22729	502.8085	15.0229
11.2289	498.32	15.04248
11.2299	506.297	15.062
11.2323	505.9747	15.0815
11.2336	498.251	15.1011
11.2362	509.897	15.1206
11.2366	511.899	15.1401
11.2392	503.797	15.1597
11.2404	507.582	15.1792
11.24231	517.07	15.19873
11.2436	506.099	15.2183
11.2444	508.564	15.2378
11.2465	518.916	15.2573
11.249	514.651	15.2769
11.2495	508.141	15.2964
11.251	523.2099	15.3159
11.2536	512.582	15.3354
11.255	510.529	15.35498
11.2567	523.518	15.3745
11.2577	523.086	15.394
11.2602	509.202	15.4136
11.2615	522.449	15.4331
11.2632	524.632	15.4526
11.2641	515.898	15.4722
11.2664	523.604	15.4917
11.26771	528.615	15.51123
11.2704	516.61	15.5308
11.2705	522.8631	15.5503
11.2733	531.359	15.5698
11.2742	522.444	15.5894
11.276	522.633	15.6089
11.27768	533.817	15.6284
11.2795	527.167	15.6479
11.2807	520.806	15.66748
11.2818	532.653	15.687
11.2843	533.007	15.7065
11.286	527.815	15.7261
11.2874	532.632	15.7456
11.2892	537.596	15.7651
11.2909	526.009	15.7847
11.2924	535.484	15.8042
11.2937	542.835	15.82373
11.2957	531.079	15.8433
11.2967	530.498	15.8628
11.2991	546.149	15.8823
11.3005	535.469	15.9019
11.3018	533.755	15.9214
11.3033	547.548	15.9409
11.3049	541.839	15.9604
11.3067	533.579	15.97998
11.3084	549.146	15.9995
11.3102	545.4339	16.019
11.3131	537.869	16.0386
11.3132	548.6731	16.0581
11.3152	552.9472	16.0776
11.3163	538.478	16.0972
11.3183	546.787	16.1167
11.3196	553.859	16.13623
11.3219	543.941	16.1558
11.323	548.684	16.1753
11.3252	556.242	16.1948
11.3269	545.836	16.2144
11.3287	547.221	16.2339
11.3294	559.717	16.2534
11.331	550.87	16.2729
11.3332	547.318	16.29248
11.3339	558.376	16.312
11.3351	558.256	16.3315
11.338	548.827	16.3511
11.339	559.462	16.3706
11.3412	561.713	16.3901
11.3427	553.671	16.4097
11.3435	557.7	16.4292
11.3452	568.0318	16.44873
11.3476	554.611	16.4683
11.3504	560.165	16.4878
11.3508	569.6	16.5073
11.3529	562.043	16.5269
11.355	554.512	16.5464
11.3557	571.108	16.5659
11.3582	565.514	16.5854
11.3583	562.03	16.60498
11.36028	571.4892	16.6245
11.3628	570.481	16.644
11.3639	559.274	16.6636
11.3657	573.42	16.6831
11.3678	573.541	16.7026
11.3689	564.849	16.7222
11.3706	571.861	16.7417
11.37244	579.987	16.76123
11.3737	566.481	16.7808
11.3747	570.712	16.8003
11.3768	580.344	16.8198
11.3784	572.4491	16.8394
11.3803	572.945	16.8589
11.3831	581.711	16.8784
11.3836	575.989	16.8979
11.3846	572.1311	16.91748
11.3868	586.156	16.937
11.3875	582.5553	16.9565
11.3908	574.977	16.9761
11.3906	582.072	16.9956
11.3937	588.6026	17.0151
11.395	577.143	17.0347
11.3968	583.624	17.0542
11.39774	590.728	17.07373
11.3994	581.194	17.0933
11.4023	580.314	17.1128
11.4035	595.281	17.1323
11.40431	583.52	17.1519
11.4069	584.235	17.1714
11.407	596.269	17.1909
11.4099	591.083	17.2104
11.4111	581.427	17.22998
11.413	595.923	17.2495
11.4145	595.004	17.269
11.41599	586.689	17.2886
11.418	596.916	17.3081
11.4197	599.109	17.3276
11.42157	586.965	17.3472
11.4217	598.0415	17.3667
11.4237	602.815	17.38623
11.4265	593.014	17.4058
11.4274	596.788	17.4253
11.4286	606.323	17.4448
11.4309	597.862	17.4644
11.43304	594.665	17.4839
11.4341	607.883	17.5034
11.4351	601.196	17.5229
11.4373	599.2923	17.54248
11.43906	607.46	17.562
11.4401	606.0802	17.5815
11.44134	596.01	17.6011
11.4434	609.113	17.6206
11.44524	612.26	17.6401
11.4479	602.481	17.6597
11.4479	605.341	17.6792
11.4509	615.756	17.69873
11.453	604.366	17.7183
11.4532	607.939	17.7378
11.4555	617.172	17.7573
11.457	609.498	17.7769
11.4575	606.271	17.7964
11.4605	621.0498	17.8159
11.4613	610.676	17.8354
11.4627	608.236	17.85498
11.4643	619.853	17.8745
11.46647	620.812	17.894
11.4682	605.146	17.9136
11.4697	620.123	17.9331
11.4708	621.068	17.9526
11.4733	612.667	17.9722
11.4745	619.89	17.9917
11.476	627.048	18.01123
11.4782	612.698	18.0308
11.4795	619.62	18.0503
11.4809	629.607	18.0698
11.4834	619.583	18.0894
11.4837	619.387	18.1089
11.4852	630.93	18.1284
11.48734	624.509	18.1479
11.4893	619.962	18.16748
11.4907	630.674	18.187
11.4926	629.598	18.2065
11.4939	624.047	18.2261
11.4964	630.151	18.2456
11.497	633.518	18.2651
11.4993	622.105	18.2847
11.5	630.9765	18.3042
11.5029	638.264	18.32373
11.5043	629.77	18.3433
11.5059	627.596	18.3628
11.5077	642.537	18.3823
11.5087	630.882	18.4019
11.5098	632.188	18.4214
11.5108	642.917	18.4409
11.51323	637.541	18.4604
11.5164	628.305	18.47998
11.5168	644.152	18.4995
11.5185	638.425	18.519
11.5201	632.09	18.5386
11.5214	645.091	18.5581
11.5244	646.4837	18.5776
11.5247	633.643	18.5972
11.5264	644.65	18.6167
11.5289	648.159	18.63623
11.5303	638.366	18.6558
11.5311	644.656	18.6753
11.5334	650.843	18.6948
11.5349	642.566	18.7144
11.537	642.482	18.7339
11.5376	654.161	18.7534
11.5396	647.708	18.7729
11.5415	643.698	18.79248
11.5432	653.223	18.812
11.5452	654.986	18.8315
11.5469	642.785	18.8511
11.5484	653.7348	18.8706
11.5497	657.125	18.8901
11.55067	648.8302	18.9097
11.5522	651.689	18.9292
11.5549	663.2	18.94873
11.5571	649.547	18.9683
11.55788	654.629	18.9878
11.5588	665.128	19.0073
11.5603	656.0462	19.0269
11.5624	651.799	19.0464
11.564	665.628	19.0659
11.5651	659.406	19.0854
11.568	654.5481	19.10498
11.5689	666.826	19.1245
11.56948	663.451	19.144
11.57202	652.936	19.1636
11.5738	667.974	19.1831
11.5756	667.164	19.2026
11.5773	657.318	19.2222
11.5793	665.251	19.2417
11.5807	672.333	19.26123
11.5823	660.049	19.2808
11.582	663.38	19.3003
11.58481	674.05	19.3198
11.58617	665.076	19.3394
11.5892	665.618	19.3589
11.591	676.1875	19.3784
11.5925	669.514	19.3979
11.5939	664.469	19.41748
11.5947	678.464	19.437
11.596	675.575	19.4565
11.5982	667.733	19.4761
11.6002	673.937	19.4956
11.60203	680.467	19.5151
11.6032	668.907	19.5347
11.6046	678.732	19.5542
11.6065	684.198	19.57373
11.6077	673.7934	19.5933
11.6094	674.582	19.6128
11.6119	687.194	19.6323
11.61315	675.09	19.6519
11.6143	676.199	19.6714
11.6159	688.133	19.6909
11.6184	684.72	19.7104
11.6196	673.708	19.72998
11.6208	689.947	19.7495
11.62281	685.794	19.769
11.62415	678.885	19.7886
11.6254	690.088	19.8081
11.6276	689.732	19.8276
11.6305	677.989	19.8472
11.6312	687.899	19.8667
11.6326	693.884	19.88623
11.6344	683.2981	19.9058
11.6355	687.56	19.9253
11.6367	696.107	19.9448
11.639	686.779	19.9644
11.6407	686.94	19.9839
11.6427	696.9765	20.0034
11.6425	698.207	20.0132

Data Header:			0.254_hd_dimension_typei_4545_r0			Time:	40.0181	s	4/15/2019 3:20:59 PM
Data Acquisition:	Timed
Station Name:	ft40.cfg
Test File Name:	monotonic_0.2540_typei_hd_4545_dimension.tst
Displacement	Force	Running Time
mm	N	s
11.6439	692.937	20.0229
11.6462	689.316	20.04248
11.6464	698.42	20.062
11.6479	695.986	20.0815
11.6498	687.3006	20.1011
11.6522	699.548	20.1206
11.65342	701.85	20.1401
11.6545	692.26	20.1597
11.6565	693.806	20.1792
11.658	705.821	20.19873
11.6593	694.282	20.2183
11.6608	699.1991	20.2378
11.6634	707.1178	20.2573
11.6651	699.772	20.2769
11.666	693.432	20.2964
11.668	711.973	20.3159
11.6695	701.965	20.3354
11.671	697.585	20.35498
11.6724	711.493	20.3745
11.6755	709.977	20.394
11.67636	697.338	20.4136
11.67715	710.066	20.4331
11.6795	711.219	20.4526
11.6819	701.544	20.4722
11.6831	709.909	20.4917
11.68365	715.468	20.51123
11.6855	702.47	20.5308
11.6884	708.034	20.5503
11.6902	717.576	20.5698
11.69073	707.665	20.5894
11.693	707.734	20.6089
11.694	716.901	20.6284
11.6952	714.896	20.6479
11.6971	709.458	20.66748
11.6991	719.417	20.687
11.7013	719.214	20.7065
11.70342	712.51	20.7261
11.7045	718.251	20.7456
11.706	722.976	20.7651
11.7074	709.606	20.7847
11.7081	719.473	20.8042
11.7099	727.4848	20.82373
11.7115	716.915	20.8433
11.7138	715.153	20.8628
11.71512	730.178	20.8823
11.71607	718.435	20.9019
11.7188	720.012	20.9214
11.7201	729.775	20.9409
11.7226	725.224	20.9604
11.7247	716.461	20.97998
11.7253	732.829	20.9995
11.7272	729.057	21.019
11.7279	718.723	21.0386
11.7307	730.489	21.0581
11.7316	733.455	21.0776
11.7341	720.254	21.0972
11.7352	729.43	21.1167
11.7371	737.34	21.13623
11.7374	725.403	21.1558
11.7396	731.273	21.1753
11.741	737.092	21.1948
11.7417	727.597	21.2144
11.7451	727.047	21.2339
11.7465	740.547	21.2534
11.7483	733.686	21.2729
11.7495	729.904	21.29248
11.7513	738.93	21.312
11.7527	737.541	21.3315
11.7547	729.836	21.3511
11.756	739.729	21.3706
11.7575	742.426	21.3901
11.7593	733.942	21.4097
11.7597	737.193	21.4292
11.7628	748.343	21.44873
11.7646	733.272	21.4683
11.7661	737.981	21.4878
11.767	748.1051	21.5073
11.7691	741.493	21.5269
11.7718	734.69	21.5464
11.7724	751.119	21.5659
11.7733	742.903	21.5854
11.7758	739.284	21.60498
11.7772	750.993	21.6245
11.7785	747.97	21.644
11.7808	736.417	21.6636
11.7823	751.59	21.6831
11.7838	753.0929	21.7026
11.7859	741.251	21.7222
11.7867	749.549	21.7417
11.7883	755.754	21.76123
11.7906	743.417	21.7808
11.793	749.404	21.8003
11.7943	757.901	21.8198
11.7949	748.929	21.8394
11.79668	749.582	21.8589
11.7985	759.967	21.8784
11.7994	753.204	21.8979
11.8012	746.6731	21.91748
11.8032	760.554	21.937
11.8052	758.341	21.9565
11.8057	751.277	21.9761
11.8094	756.191	21.9956
11.8107	764.386	22.0151
11.812	751.613	22.0347
11.8125	759.302	22.0542
11.8137	764.85	22.07373
11.8166	755.937	22.0933
11.8176	753.779	22.1128
11.8195	770.606	22.1323
11.8207	758.29	22.1519
11.8233	757.163	22.1714
11.8242	769.211	22.1909
11.8264	766.191	22.2104
11.82766	754.938	22.22998
11.8294	768.753	22.2495
11.8315	766.465	22.269
11.8324	759.298	22.2886
11.8344	770.631	22.3081
11.8363	772.0957	22.3276
11.8374	758.568	22.3472
11.8398	769.023	22.3667
11.8415	774.013	22.38623
11.8421	762.405	22.4058
11.8447	765.922	22.4253
11.8454	775.737	22.4448
11.8474	767.116	22.4644
11.8486	765.313	22.4839
11.8514	778.337	22.5034
11.8523	771.494	22.5229
11.8536	768.727	22.54248
11.8561	777.367	22.562
11.8567	777.549	22.5815
11.8596	766.6994	22.6011
11.8606	777.274	22.6206
11.8622	780.846	22.6401
11.86377	772.534	22.6597
11.8648	773.73	22.6792
11.86616	785.321	22.69873
11.8685	771.991	22.7183
11.8708	777.531	22.7378
11.8716	785.269	22.7573
11.8731	777.637	22.7769
11.8753	773.723	22.7964
11.8759	789.026	22.8159
11.8788	779.496	22.8354
11.8792	776.012	22.85498
11.8817	787.919	22.8745
11.8829	788.5318	22.894
11.8837	774.928	22.9136
11.88593	788.027	22.9331
11.8883	787.948	22.9526
11.8894	779.163	22.9722
11.8912	788.514	22.9917
11.8932	793.209	23.01123
11.8944	780.187	23.0308
11.8957	783.978	23.0503
11.8973	795.204	23.0698
11.8997	785.496	23.0894
11.9012	785.248	23.1089
11.9034	792.059	23.1284
11.9044	789.082	23.1479
11.9061	784.717	23.16748
11.9078	795.456	23.187
11.9095	792.2724	23.2065
11.9105	787.03	23.2261
11.9125	793.893	23.2456
11.9145	799.601	23.2651
11.9147	788.244	23.2847
11.9177	794.298	23.3042
11.918	800.8916	23.32373
11.92094	793.166	23.3433
11.9218	789.314	23.3628
11.9233	804.525	23.3823
11.9255	792.543	23.4019
11.9267	794.481	23.4214
11.92881	806.229	23.4409
11.93008	798.75	23.4604
11.9312	790.021	23.47998
11.9333	806.84	23.4995
11.9347	802.457	23.519
11.9368	794.651	23.5386
11.9377	804.809	23.5581
11.9403	806.798	23.5776
11.9428	794.201	23.5972
11.9435	804.312	23.6167
11.9449	807.753	23.63623
11.947	797.799	23.6558
11.9477	804.37	23.6753
11.9499	810.805	23.6948
11.9512	800.3728	23.7144
11.9528	800.097	23.7339
11.9545	812.4093	23.7534
11.95588	805.498	23.7729
11.9581	802.737	23.79248
11.9603	810	23.812
11.9615	812.088	23.8315
11.963	802.125	23.8511
11.965	813.755	23.8706
11.9665	813.312	23.8901
11.9674	806.148	23.9097
11.9698	808.24	23.9292
11.9709	819.919	23.94873
11.9726	804.79	23.9683
11.97464	809.198	23.9878
11.9751	818.51	24.0073
11.9765	812.555	24.0269
11.9791	807.629	24.0464
11.9803	822.48	24.0659
11.9834	813.318	24.0854
11.9838	809.529	24.10498
11.9856	822.59	24.1245
11.9866	818.425	24.144
11.9899	807.3446	24.1636
11.9889	820.406	24.1831
11.993	822.167	24.2026
11.9935	811.3963	24.2222
11.99491	819.832	24.2417
11.9975	824.596	24.26123
11.9984	813.958	24.2808
11.9999	818.151	24.3003
12.0018	826.9306	24.3198
12.0045	817.127	24.3394
12.0055	817.407	24.3589
12.00665	827.62	24.3784
12.0086	821.824	24.3979
12.0096	815.237	24.41748
12.0111	828.003	24.437
12.0133	826.278	24.4565
12.0151	820.516	24.4761
12.0165	825.023	24.4956
12.0174	829.961	24.5151
12.02	818.249	24.5347
12.021	828.026	24.5542
12.0236	832.925	24.57373
12.0249	823.081	24.5933
12.027	820.528	24.6128
12.0287	837.359	24.6323
12.0292	824.839	24.6519
12.0316	822.839	24.6714
12.0331	836.401	24.6909
12.03428	829.826	24.7104
12.0362	821.044	24.72998
12.037	836.502	24.7495
12.0393	830.653	24.769
12.04105	824.328	24.7886
12.04149	835.951	24.8081
12.0447	835.66	24.8276
12.0458	824.006	24.8472
12.0481	833.4646	24.8667
12.0496	839.379	24.88623
12.0513	828.655	24.9058
12.0517	833.275	24.9253
12.0534	838.112	24.9448
12.0551	829.942	24.9644
12.0573	830.454	24.9839
12.0593	843.1507	25.0034
12.0604	834.232	25.0229
12.0621	832.108	25.04248
12.06302	840.017	25.062
12.0651	841.314	25.0815
12.0672	830.906	25.1011
12.0672	841.484	25.1206
12.0704	843.545	25.1401
12.0722	836.381	25.1597
12.0743	839.0285	25.1792
12.0761	847.446	25.19873
12.0768	833.7724	25.2183
12.0783	840.321	25.2378
12.08	849.083	25.2573
12.0815	839.707	25.2769
12.0836	833.5152	25.2964
12.0855	850.463	25.3159
12.086	841.327	25.3354
12.0878	838.123	25.35498
12.0892	847.259	25.3745
12.0923	846.442	25.394
12.0924	836.635	25.4136
12.0946	851.244	25.4331
12.0971	847.823	25.4526
12.09783	839.05	25.4722
12.1002	848.268	25.4917
12.1015	853.092	25.51123
12.1032	839.424	25.5308
12.1033	843.773	25.5503
12.1063	854.303	25.5698
12.1072	845.0437	25.5894
12.1096	847.232	25.6089
12.1097	851.811	25.6284
12.1116	847.887	25.6479
12.11468	843.625	25.66748
12.1162	855.408	25.687
12.1184	851.949	25.7065
12.1191	845.212	25.7261
12.1202	852.105	25.7456
12.1226	857.98	25.7651
12.124	843.876	25.7847
12.1244	851.235	25.8042
12.12697	857.841	25.82373
12.1281	850.589	25.8433
12.129	848.251	25.8628
12.1323	860.418	25.8823
12.1337	847.606	25.9019
12.1356	849.639	25.9214
12.1365	863.729	25.9409
12.1381	856.871	25.9604
12.1412	847.459	25.97998
12.1425	862.059	25.9995
12.144	858.741	26.019
12.1456	849.324	26.0386
12.1466	860.269	26.0581
12.1479	860.534	26.0776
12.1503	849.547	26.0972
12.1513	860.164	26.1167
12.1526	864.173	26.13623
12.15419	852.942	26.1558
12.1562	858.029	26.1753
12.1583	865.728	26.1948
12.1594	855.4837	26.2144
12.1617	854.729	26.2339
12.1628	865.989	26.2534
12.1642	859.832	26.2729
12.1662	856.369	26.29248
12.168	864.2	26.312
12.1695	863.474	26.3315
12.1714	855.05	26.3511
12.1725	865.201	26.3706
12.1744	865.148	26.3901
12.1756	857.871	26.4097
12.1784	861.437	26.4292
12.1783	871.663	26.44873
12.1803	859.122	26.4683
12.1818	863.163	26.4878
12.1848	870.992	26.5073
12.1853	864.602	26.5269
12.1866	858.427	26.5464
12.1885	873.452	26.5659
12.1913	864.62	26.5854
12.1931	860.656	26.60498
12.19333	872.77	26.6245
12.1954	870.424	26.644
12.1982	857.19	26.6636
12.1981	870.27	26.6831
12.2003	871.277	26.7026
12.203	863.743	26.7222
12.2038	868.728	26.7417
12.2059	873.71	26.76123
12.2067	862.166	26.7808
12.2087	869.082	26.8003
12.21	875.253	26.8198
12.2126	865.8089	26.8394
12.2128	866.361	26.8589
12.21538	876.745	26.8784
12.215	870.371	26.8979
12.2183	864.736	26.91748
12.2206	876.51	26.937
12.22162	872.665	26.9565
12.2232	867.106	26.9761
12.2249	874.774	26.9956
12.226	877.931	27.0151
12.2285	864.1911	27.0347
12.2295	874.517	27.0542
12.2307	879.359	27.07373
12.2332	871.63	27.0933
12.235	867.88	27.1128
12.2369	882.495	27.1323
12.2386	872.294	27.1519
12.2388	873.199	27.1714
12.2409	881.398	27.1909
12.2424	876.5741	27.2104
12.2441	867.384	27.22998
12.2459	884.174	27.2495
12.2478	877.277	27.269
12.2486	868.363	27.2886
12.2506	879.341	27.3081
12.2527	882.88	27.3276
12.253	869.578	27.3472
12.2553	879.264	27.3667
12.2579	882.356	27.38623
12.2593	873.545	27.4058
12.2605	877.4859	27.4253
12.26224	883.831	27.4448
12.2637	875.137	27.4644
12.2648	875.987	27.4839
12.2674	885.668	27.5034
12.269	878.622	27.5229
12.2716	875.5531	27.54248
12.2715	883.076	27.562
12.2732	882.924	27.5815
12.2751	874.255	27.6011
12.2765	884.532	27.6206
12.2777	885.712	27.6401
12.2797	877.858	27.6597
12.2821	880.038	27.6792
12.2836	890.538	27.69873
12.2851	874.641	27.7183
12.2861	882.053	27.7378
12.2887	890.903	27.7573
12.29	883.95	27.7769
12.2911	875.592	27.7964
12.2932	891.595	27.8159
12.294	882.177	27.8354
12.2963	879.662	27.85498
12.2985	888.683	27.8745
12.2998	887.995	27.894
12.3012	876.726	27.9136
12.3023	890.358	27.9331
12.304	889.509	27.9526
12.30605	879.278	27.9722
12.3078	887.775	27.9917
12.3093	893.425	28.01123
12.3108	881.017	28.0308
12.3126	884.765	28.0503
12.3137	893.707	28.0698
12.3154	883.851	28.0894
12.3169	885.335	28.1089
12.3184	892.194	28.1284
12.3211	886.034	28.1479
12.323	882.243	28.16748
12.324	893.477	28.187
12.3258	890.576	28.2065
12.32698	883.943	28.2261
12.3292	888.99	28.2456
12.3305	894.2403	28.2651
12.332	882.458	28.2847
12.3334	888.964	28.3042
12.3362	895.675	28.32373
12.3369	887.3407	28.3433
12.3389	885.78	28.3628
12.3396	898.191	28.3823
12.3423	886.368	28.4019
12.3434	886.577	28.4214
12.3464	898.872	28.4409
12.34663	892.76	28.4604
12.3486	882.426	28.47998
12.35	896.594	28.4995
12.3526	892.612	28.519
12.3542	886.714	28.5386
12.3541	896.113	28.5581
12.3556	896.9502	28.5776
12.3578	884.939	28.5972
12.3596	894.97	28.6167
12.361	897.712	28.63623
12.3631	887.5271	28.6558
12.3652	893.019	28.6753
12.3658	901.592	28.6948
12.3677	891.3208	28.7144
12.36976	889.3252	28.7339
12.3719	899.254	28.7534
12.3736	893.122	28.7729
12.374	889.697	28.79248
12.37627	898.3244	28.812
12.3782	898.067	28.8315
12.3802	888.055	28.8511
12.3818	898.236	28.8706
12.3816	901.4	28.8901
12.384	890.81	28.9097
12.3867	894.227	28.9292
12.388	902.91	28.94873
12.3887	892.27	28.9683
12.3909	895.531	28.9878
12.39261	903.5	29.0073
12.3925	897.137	29.0269
12.3962	890.705	29.0464
12.39716	905.864	29.0659
12.3992	896.89	29.0854
12.40025	892.006	29.10498
12.4025	903.525	29.1245
12.40449	902.9201	29.144
12.4047	889.094	29.1636
12.4082	903.596	29.1831
12.4073	902.458	29.2026
12.4107	894.081	29.2222
12.4118	901.307	29.2417
12.4127	904.043	29.26123
12.4159	893.444	29.2808
12.4171	898.674	29.3003
12.4184	906.413	29.3198
12.4206	896.853	29.3394
12.4223	899.013	29.3589
12.4234	905.708	29.3784
12.4254	902.525	29.3979
12.42592	895.592	29.41748
12.429	905.13	29.437
12.4291	903.337	29.4565
12.4319	897.332	29.4761
12.4336	903.7005	29.4956
12.435	905.897	29.5151
12.4359	893.953	29.5347
12.4377	903.148	29.5542
12.43989	909.084	29.57373
12.4405	900.978	29.5933
12.44352	897.188	29.6128
12.4455	908.928	29.6323
12.44519	899.127	29.6519
12.447	899.466	29.6714
12.4491	909.269	29.6909
12.4515	904.331	29.7104
12.4529	894.654	29.72998
12.4549	910.521	29.7495
12.4553	904.5296	29.769
12.45826	896.709	29.7886
12.4589	906.022	29.8081
12.4613	908.669	29.8276
12.4624	896.607	29.8472
12.4643	904.931	29.8667
12.4654	909.655	29.88623
12.4673	899.994	29.9058
12.4692	903.348	29.9253
12.4712	912.91	29.9448
12.4717	900.487	29.9644
12.4741	900.708	29.9839
12.4758	912.21	30.0034
12.4771	903.992	30.0229
12.4792	900.755	30.04248
12.481	907.399	30.062
12.4826	908.419	30.0815
12.4835	900.939	30.1011
12.4844	909.412	30.1206
12.4875	908.479	30.1401
12.48819	900.305	30.1597
12.48993	905.368	30.1792
12.4919	914.65	30.19873
12.4934	900.8056	30.2183
12.496	904.426	30.2378
12.4959	912.853	30.2573
12.4981	907.487	30.2769
12.4995	900.981	30.2964
12.5008	914.096	30.3159
12.5029	905.33	30.3354
12.5038	903.329	30.35498
12.5067	914.64	30.3745
12.5068	909.927	30.394
12.5107	898.627	30.4136
12.51089	912.833	30.4331
12.5122	913.274	30.4526
12.514	902.381	30.4722
12.517	909.48	30.4917
12.5179	915.7522	30.51123
12.51941	903.3219	30.5308
12.5205	908.396	30.5503
12.5223	915.669	30.5698
12.5247	905.806	30.5894
12.5267	906.985	30.6089
12.5271	914.622	30.6284
12.5291	907.72	30.6479
12.5312	902.975	30.66748
12.5313	914.192	30.687
12.5349	913.668	30.7065
12.5356	905.622	30.7261
12.5373	910.709	30.7456
12.53859	916.293	30.7651
12.5412	903.92	30.7847
12.54179	912.068	30.8042
12.5443	916.03	30.82373
12.5452	908.716	30.8433
12.54751	906.316	30.8628
12.5488	919.988	30.8823
12.551	907.58	30.9019
12.5511	907.09	30.9214
12.5541	917.42	30.9409
12.5552	915.238	30.9604
12.5574	904.356	30.97998
12.5597	917.276	30.9995
12.5594	915.496	31.019
12.56074	906.953	31.0386
12.5631	917.912	31.0581
12.5645	918.711	31.0776
12.5667	902.939	31.0972
12.5687	913.8493	31.1167
12.5694	918.587	31.13623
12.57131	908.272	31.1558
12.5738	911.218	31.1753
12.5749	919.051	31.1948
12.5759	909.611	31.2144
12.5781	910.196	31.2339
12.5796	918.151	31.2534
12.5818	911.716	31.2729
12.5827	911.162	31.29248
12.5842	918.666	31.312
12.5859	915.683	31.3315
12.5877	905.356	31.3511
12.5897	916.976	31.3706
12.5902	919.003	31.3901
12.5928	912.026	31.4097
12.5932	911.32	31.4292
12.5964	921.232	31.44873
12.5968	909.797	31.4683
12.5989	913.687	31.4878
12.6002	921.867	31.5073
12.60278	913.212	31.5269
12.6043	908.131	31.5464
12.6054	924.023	31.5659
12.6062	913.858	31.5854
12.60859	910.293	31.60498
12.6102	921.55	31.6245
12.6123	919.873	31.644
12.6142	906.727	31.6636
12.6157	919.032	31.6831
12.6167	919.45	31.7026
12.6185	909.774	31.7222
12.6202	917.981	31.7417
12.623	921.785	31.76123
12.6238	908.469	31.7808
12.6247	914.767	31.8003
12.627	922.481	31.8198
[...]
14.1409	932.872	49.9839
14.142	941.772	50.0034
14.1436	934.523	50.0229
14.1451	932.041	50.04248
14.1472	939.986	50.062
14.1486	934.996	50.0815
14.15	929.162	50.1011
14.1526	941.424	50.1206
14.1532	938.908	50.1401
14.1549	930.719	50.1597
14.1563	933.235	50.1792
14.1574	942.573	50.19873
14.1595	931.23	50.2183
14.16092	935.313	50.2378
14.1633	941.706	50.2573
14.1645	936.158	50.2769
14.16641	931.398	50.2964
14.16852	943.904	50.3159
14.169	934.272	50.3354
14.1709	930.794	50.35498
14.1734	941.839	50.3745
14.17454	939.566	50.394
14.1752	926.1568	50.4136
14.1778	939.319	50.4331
14.1796	940.6214	50.4526
14.1812	931.112	50.4722
14.1827	936.123	50.4917
14.1849	942.189	50.51123
14.1874	929.895	50.5308
14.1864	936.197	50.5503
14.1904	942.005	50.5698
14.1916	932.139	50.5894
14.193	931.669	50.6089
14.1936	942.238	50.6284
14.1944	936.082	50.6479
14.1974	930.266	50.66748
14.19961	940.334	50.687
14.20078	939.4577	50.7065
14.2029	932.617	50.7261
14.2029	938.084	50.7456
14.2053	939	50.7651
14.2067	929.624	50.7847
14.2085	937.629	50.8042
14.2088	942.115	50.82373
14.212	933.07	50.8433
14.2127	931.17	50.8628
14.2147	944.662	50.8823
14.2183	932.567	50.9019
14.2183	932.967	50.9214
14.2196	941.546	50.9409
14.2218	938.178	50.9604
14.2242	928.316	50.97998
14.226	943.81	50.9995
14.2262	936.396	51.019
14.2278	928.857	51.0386
14.22909	940.225	51.0581
14.2311	941.782	51.0776
14.2328	927.511	51.0972
14.2352	937.537	51.1167
14.236	942.073	51.13623
14.23841	932.261	51.1558
14.24	937.426	51.1753
14.241	944.352	51.1948
14.2427	929.85	51.2144
14.244	935.056	51.2339
14.2463	942.199	51.2534
14.2479	936.0484	51.2729
14.2493	931.035	51.29248
14.25093	941.862	51.312
14.2525	937.202	51.3315
14.2549	930.583	51.3511
14.2561	940.155	51.3706
14.2573	938.522	51.3901
14.2598	930.965	51.4097
14.26	935.984	51.4292
14.2614	940.969	51.44873
14.2644	929.442	51.4683
14.2667	933.732	51.4878
14.2677	943.909	51.5073
14.2693	936.6214	51.5269
14.27	928.324	51.5464
14.2721	942.453	51.5659
14.273	935.248	51.5854
14.2748	931.5105	51.60498
14.2772	940.678	51.6245
14.27803	941.097	51.644
14.2808	925.59	51.6636
14.2821	941.336	51.6831
14.2844	939.428	51.7026
14.28686	930.858	51.7222
14.2871	936.352	51.7417
14.28915	942.766	51.76123
14.2912	929.115	51.7808
14.2921	935.541	51.8003
14.2928	940.748	51.8198
14.294	933.7	51.8394
14.2974	933.383	51.8589
14.2978	941.039	51.8784
14.30016	932.373	51.8979
14.3015	929.274	51.91748
14.3026	939.411	51.937
14.3042	937.159	51.9565
14.3065	931.2818	51.9761
14.30762	938.062	51.9956
14.30935	937.447	52.0151
14.3116	930.258	52.0347
14.313	936.7	52.0542
14.3141	940.813	52.07373
14.3167	932.858	52.0933
14.31795	933.452	52.1128
14.3204	944.5	52.1323
14.3214	932.775	52.1519
14.3222	929.771	52.1714
14.3243	943.087	52.1909
14.3256	938.5943	52.2104
14.3286	928.296	52.22998
14.32898	941.012	52.2495
14.3313	937.572	52.269
14.3323	930.246	52.2886
14.3335	940.601	52.3081
14.3357	942.022	52.3276
14.3376	926.488	52.3472
14.3397	937.684	52.3667
14.3406	942.111	52.38623
14.3417	931.143	52.4058
14.34397	933.839	52.4253
14.3456	944.11	52.4448
14.347	932.213	52.4644
14.3477	932.548	52.4839
14.3507	939.646	52.5034
14.35161	933.987	52.5229
14.3528	929.923	52.54248
14.354	942.34	52.562
14.3568	935.196	52.5815
14.3583	929.128	52.6011
14.3596	937.804	52.6206
14.362	939.992	52.6401
14.3634	930.893	52.6597
14.3657	935.575	52.6792
14.3657	940.557	52.69873
14.368	932.896	52.7183
14.3685	934.313	52.7378
14.3716	940.981	52.7573
14.3735	934.573	52.7769
14.3752	929.951	52.7964
14.3763	943.4859	52.8159
14.3787	935.151	52.8354
14.3789	930.365	52.85498
14.3805	940.325	52.8745
14.3826	942.346	52.894
14.3854	927.069	52.9136
14.3863	937.897	52.9331
14.38766	938.068	52.9526
14.3894	928.61	52.9722
14.39166	939.01	52.9917
14.392	944.072	53.01123
14.3932	926.323	53.0308
14.3967	933.764	53.0503
14.3982	939.575	53.0698
14.3995	933.086	53.0894
14.4006	931.273	53.1089
14.4026	942.7887	53.1284
14.4049	933.55	53.1479
14.4055	932.3559	53.16748
14.4072	938.573	53.187
14.4093	938.281	53.2065
14.4106	930.011	53.2261
14.4125	939.154	53.2456
14.4146	938.143	53.2651
14.4146	928.215	53.2847
14.4176	934.628	53.3042
14.419	940.636	53.32373
14.421	932.2301	53.3433
14.4216	932.745	53.3628
14.4229	938.886	53.3823
14.4253	931.66	53.4019
14.4271	931.751	53.4214
14.4289	941.339	53.4409
14.4291	937.474	53.4604
14.4325	926.934	53.47998
14.4328	941.96	53.4995
14.4347	937.949	53.519
14.4359	929.625	53.5386
14.43802	937.138	53.5581
14.4393	939.2934	53.5776
14.4421	926.878	53.5972
14.4438	937.662	53.6167
14.4448	940.055	53.63623
14.4473	930.773	53.6558
14.44774	933.611	53.6753
14.4492	944.998	53.6948
14.4504	930.2262	53.7144
14.4537	932.15	53.7339
14.4541	939.593	53.7534
14.4563	935.361	53.7729
14.458	931.8584	53.79248
14.4589	941.169	53.812
14.4604	933.7832	53.8315
14.4628	929.68	53.8511
14.4644	938.244	53.8706
14.4655	938.2041	53.8901
14.4668	927.986	53.9097
14.47	936.366	53.9292
14.4711	938.059	53.94873
14.4724	931.463	53.9683
14.4733	930.869	53.9878
14.4766	939.491	54.0073
14.4776	933.7937	54.0269
14.479	930.294	54.0464
14.4807	940.548	54.0659
14.4817	933.085	54.0854
14.4841	929.552	54.10498
14.4856	940.178	54.1245
14.487	939.76	54.144
14.4882	925.77	54.1636
14.4897	938.507	54.1831
14.4927	938.8327	54.2026
14.49439	930.1037	54.2222
14.4965	934.544	54.2417
14.4975	942.107	54.26123
14.498	927.233	54.2808
14.4998	936.754	54.3003
14.5026	940.033	54.3198
14.5028	932.2359	54.3394
14.5041	930.79	54.3589
14.5065	942.28	54.3784
14.50821	932.274	54.3979
14.5096	928.748	54.41748
14.5114	937.466	54.437
14.5133	937.412	54.4565
14.5151	928.716	54.4761
14.5165	936.956	54.4956
14.5182	935.436	54.5151
14.5195	929.493	54.5347
14.5203	934.184	54.5542
14.5227	940.901	54.57373
14.5258	928.916	54.5933
14.5263	929.903	54.6128
14.5283	939.517	54.6323
14.5295	931.646	54.6519
14.5314	930.456	54.6714
14.5316	938.538	54.6909
14.5355	933.963	54.7104
14.536	926.855	54.72998
14.5368	938.483	54.7495
14.5392	934.704	54.769
14.5411	926.909	54.7886
14.5432	936.042	54.8081
14.5446	939.86	54.8276
14.54538	924.915	54.8472
14.5471	933.034	54.8667
14.5486	938.165	54.88623
14.5502	929.565	54.9058
14.552	931.067	54.9253
14.5534	941.412	54.9448
14.5565	927.8974	54.9644
14.5568	929.971	54.9839
14.5592	939.57	55.0034
14.5613	932.901	55.0229
14.5615	927.576	55.04248
14.56328	939.6239	55.062
14.5642	934.201	55.0815
14.5661	929.344	55.1011
14.569	934.469	55.1206
14.5699	939.239	55.1401
14.5722	928.621	55.1597
14.5737	934.585	55.1792
14.5751	936.468	55.19873
14.5766	928.127	55.2183
14.5783	928.667	55.2378
14.5802	939.228	55.2573
14.5808	932.071	55.2769
14.58315	926.802	55.2964
14.58477	937.1604	55.3159
14.58609	933.344	55.3354
14.5871	927.558	55.35498
14.5887	936.072	55.3745
14.5913	935.801	55.394
14.5929	925.5835	55.4136
14.5949	936.088	55.4331
14.5964	938.8266	55.4526
14.599	924.309	55.4722
14.5983	931.89	55.4917
14.6016	941.148	55.51123
14.6027	925.802	55.5308
14.6046	930.262	55.5503
14.6055	937.005	55.5698
14.6066	929.399	55.5894
14.6087	930.289	55.6089
14.60963	939.847	55.6284
14.6126	928.3902	55.6479
14.6148	928.11	55.66748
14.6158	935.896	55.687
14.6165	937.198	55.7065
14.6184	924.913	55.7261
14.6205	935.121	55.7456
14.62291	934.904	55.7651
14.6243	927.946	55.7847
14.6261	931.287	55.8042
14.6269	936.751	55.82373
14.6284	928.398	55.8433
14.6303	930.782	55.8628
14.6323	937.78	55.8823
14.634	928.875	55.9019
14.63524	925.332	55.9214
14.6373	939.21	55.9409
14.638	933.2688	55.9604
14.6398	923.078	55.97998
14.6422	934.974	55.9995
14.6439	933.436	56.019
14.6449	926.608	56.0386
14.6464	934.2688	56.0581
14.6476	936.263	56.0776
14.6494	923.388	56.0972
14.6515	933.886	56.1167
14.6539	937.666	56.13623
14.65428	926.842	56.1558
14.6563	927.326	56.1753
14.6582	940.938	56.1948
14.6598	927.234	56.2144
14.6608	928.486	56.2339
14.6625	936.971	56.2534
14.6652	931.136	56.2729
14.6671	926.219	56.29248
14.668	937.836	56.312
14.66856	931.833	56.3315
14.671	926.291	56.3511
14.6728	932.396	56.3706
14.6743	937.506	56.3901
14.6764	925.276	56.4097
14.677	932.143	56.4292
14.6792	935.253	56.44873
14.681	928.162	56.4683
14.6817	928.386	56.4878
14.6842	937.15	56.5073
14.68587	928.826	56.5269
14.686	926.135	56.5464
14.6908	936.171	56.5659
14.6904	932.212	56.5854
14.69242	925.506	56.60498
14.694	935.5531	56.6245
14.6953	935.023	56.644
14.6963	924.043	56.6636
14.6989	932.001	56.6831
14.7004	936.151	56.7026
14.7015	924.21	56.7222
14.70354	931.447	56.7417
14.7056	938.034	56.76123
14.7063	923.95	56.7808
14.7089	928.672	56.8003
14.7095	938.452	56.8198
14.7113	929.433	56.8394
14.713	924.741	56.8589
14.7152	937.491	56.8784
14.7173	928.904	56.8979
14.7181	927.291	56.91748
14.7204	934.015	56.937
14.7213	934.4	56.9565
14.7232	924.518	56.9761
14.724	935.709	56.9956
14.7265	933.219	57.0151
14.7283	925.063	57.0347
14.7291	929.103	57.0542
14.7317	937.853	57.07373
14.7333	927.067	57.0933
14.734	928.034	57.1128
14.7363	934.5047	57.1323
14.7378	929.6651	57.1519
14.739	926.658	57.1714
14.7411	937.888	57.1909
14.742	931.963	57.2104
14.7434	924.458	57.22998
14.7454	934.211	57.2495
14.7479	933.581	57.269
14.7495	922.374	57.2886
14.7504	931.886	57.3081
14.7526	936.873	57.3276
14.7542	924.991	57.3472
14.7557	930.294	57.3667
14.7573	936.262	57.38623
14.75876	925.7738	57.4058
14.7601	927.478	57.4253
14.7619	940.202	57.4448
14.7634	926.229	57.4644
14.7659	926.562	57.4839
14.7669	938.011	57.5034
14.7676	932.513	57.5229
14.7707	925.145	57.54248
14.772	936.9	57.562
14.7734	929.443	57.5815
14.77496	925.78	57.6011
14.777	931.477	57.6206
14.7787	935.179	57.6401
14.7799	924.301	57.6597
14.7817	931.739	57.6792
14.7824	933.609	57.69873
14.785	927.757	57.7183
14.7861	925.777	57.7378
14.7873	937.058	57.7573
14.7906	929.381	57.7769
14.7915	927.964	57.7964
14.7928	933.9837	57.8159
14.7942	929.83	57.8354
14.79635	923.419	57.85498
14.7977	936.912	57.8745
14.7998	933.592	57.894
14.8023	922.754	57.9136
14.8029	930.763	57.9331
14.8045	938.067	57.9526
14.8067	925.041	57.9722
14.8076	928.31	57.9917
14.8096	937.502	58.01123
14.8117	923.7348	58.0308
14.8122	926.729	58.0503
14.8139	935.211	58.0698
14.8163	926.143	58.0894
14.8175	923.585	58.1089
14.8196	938.5329	58.1284
14.8214	929.265	58.1479
14.823	923.864	58.16748
14.8249	932.791	58.187
14.826	933.537	58.2065
14.8276	924.226	58.2261
14.8298	934.843	58.2456
14.8303	930.506	58.2651
14.8327	924.668	58.2847
14.83461	929.681	58.3042
14.8352	936.161	58.32373
14.8368	926.696	58.3433
14.8382	927.848	58.3628
14.8405	934.344	58.3823
14.8424	928.8866	58.4019
14.8436	923.605	58.4214
14.8446	935.141	58.4409
14.8463	928.708	58.4604
14.8488	924.122	58.47998
14.8504	931.522	58.4995
14.8517	931.553	58.519
14.8541	922.059	58.5386
14.8547	931.687	58.5581
14.8572	934.928	58.5776
14.85707	922.739	58.5972
14.8606	926.287	58.6167
14.8613	936.483	58.63623
14.8633	924.3902	58.6558
14.8641	925.34	58.6753
14.8667	937.657	58.6948
14.8681	923.653	58.7144
14.8701	924.614	58.7339
14.8714	936.9176	58.7534
14.8729	927.563	58.7729
14.87392	921.747	58.79248
14.8767	935.744	58.812
14.8771	931.409	58.8315
14.881	923.672	58.8511
14.8812	929.801	58.8706
14.8817	932.831	58.8901
14.8845	923.3772	58.9097
14.8855	931.49	58.9292
14.8883	931.8208	58.94873
14.889	925.295	58.9683
14.8909	925.911	58.9878
14.89299	937.404	59.0073
14.8935	926.996	59.0269
14.8956	926.761	59.0464
14.8976	932.555	59.0659
14.8981	931.84	59.0854
14.90009	922.229	59.10498
14.9028	932.989	59.1245
14.9032	931.54	59.144
14.9047	922.583	59.1636
14.9084	931.2113	59.1831
14.9088	934.233	59.2026
14.9106	920.559	59.2222
14.9114	928.366	59.2417
14.9139	937.764	59.26123
14.9153	924.756	59.2808
14.916	924.917	59.3003
14.9182	935.288	59.3198
14.9194	924.728	59.3394
14.9211	921.983	59.3589
14.9229	937.4671	59.3784
14.925	925.902	59.3979
14.9273	920.672	59.41748
14.9292	933.741	59.437
14.9305	931.1969	59.4565
14.9323	921.148	59.4761
14.9328	931.962	59.4956
14.9346	932.812	59.5151
14.9363	924.577	59.5347
14.9381	927.519	59.5542
14.9392	935.486	59.57373
14.9406	922.64	59.5933
14.9433	929.305	59.6128
14.9441	933.399	59.6323
14.9463	927.31	59.6519
14.9481	921.8299	59.6714
14.9503	934.838	59.6909
14.9511	929.636	59.7104
14.9524	923.1308	59.72998
14.9539	930.039	59.7495
14.9549	930.435	59.769
14.95721	920.649	59.7886
14.9593	932.032	59.8081
14.9605	932.982	59.8276
14.96251	921.437	59.8472
14.9634	926.858	59.8667
14.9661	935.173	59.88623
14.96768	921.795	59.9058
14.9678	924.595	59.9253
14.971	936.036	59.9448
14.972	926.007	59.9644
14.9742	923.214	59.9839
14.97479	934.762	60.0034
14.976	935.993	60.0132

Data Header:			0.254_hd_dimension_typei_4545_r0			Time:	62.9624	s	4/15/2019 3:21:22 PM
Data Acquisition:	Timed
Station Name:	ft40.cfg
Test File Name:	monotonic_0.2540_typei_hd_4545_dimension.tst
Displacement	Force	Running Time
mm	N	s
14.9763	926.425	60.0229
14.9789	918.7121	60.0327
14.97858	919.689	60.04248
14.9788	928.337	60.0522
14.98101	935.74	60.062
14.9799	930.661	60.0718
14.9802	929.453	60.0815
14.9827	924.206	60.0913
14.9835	919.368	60.1011
14.984	926.031	60.11084
14.9855	929.5993	60.1206
14.98566	935.287	60.1304
14.9872	933.035	60.1401
14.9884	923.044	60.1499
14.9888	920.003	60.1597
14.9889	923.671	60.1694
14.9902	927.266	60.1792
14.9902	934.731	60.189
14.9922	930.206	60.19873
14.9921	927.101	60.2085
14.9936	922.455	60.2183
14.99408	922.4046	60.228
14.9948	925.751	60.2378
14.9954	931.432	60.2476
14.9973	935.357	60.2573
14.9979	929.232	60.26709
14.9978	923.781	60.2769
14.9991	921.215	60.2866
14.9994	924.93	60.2964
15.0002	927.126	60.3062
15.0015	931.694	60.3159
15.003	930.979	60.3257
15.003	927.831	60.3354
15.0054	922.998	60.3452
15.0033	919.22	60.35498
15.0044	927.69	60.3647
15.0059	931.652	60.3745
15.0068	933.045	60.3843
15.0083	930.499	60.394
15.0089	920.769	60.4038
15.0103	921.496	60.4136
15.0101	923.034	60.42334
15.0125	926.029	60.4331
15.0123	932.656	60.4429
15.0125	933.63	60.4526
15.0141	927.835	60.4624
15.0148	920.061	60.4722
15.01649	919.168	60.4819
15.0157	926.509	60.4917
15.0163	932.997	60.5015
15.0178	935.185	60.51123
15.0196	925.879	60.521
15.0197	921.861	60.5308
15.0204	921.3064	60.5405
15.0206	921.014	60.5503
15.0218	930.192	60.5601
15.0227	934.8092	60.5698
15.0235	931.5249	60.57959
15.0248	923.016	60.5894
15.0242	917.553	60.5991
15.0254	919.544	60.6089
15.0271	929.657	60.6187
15.0273	933.145	60.6284
15.0279	930.771	60.6382
15.0288	926.182	60.6479
15.0303	919.397	60.6577
15.0313	919.839	60.66748
15.0312	924.512	60.6772
15.03182	931.128	60.687
15.0328	934.42	60.6968
15.0332	927.774	60.7065
15.0356	920.405	60.7163
15.0363	916.874	60.7261
15.0369	925.694	60.73584
15.0378	931.068	60.7456
15.0381	932.784	60.7554
15.0389	929.838	60.7651
15.0394	924.207	60.7749
15.0407	918.64	60.7847
15.0412	922.1286	60.7944
15.0423	924.713	60.8042
15.0429	933.599	60.814
15.0436	932.308	60.82373
15.0445	922.562	60.8335
15.04539	921.089	60.8433
15.0465	920.727	60.853
15.0472	923.807	60.8628
15.0486	928.917	60.8726
15.048	928.8075	60.8823
15.0487	929.83	60.89209
15.0509	923.448	60.9019
15.0516	917.609	60.9116
15.0512	918.922	60.9214
15.0539	925.567	60.9312
15.0528	932.197	60.9409
15.0538	930.131	60.9507
15.0552	924.85	60.9604
15.055	919.726	60.9702
15.056	918.392	60.97998
15.05709	923.265	60.9897
15.0581	926.73	60.9995
15.06	931.138	61.0093
15.0598	928.011	61.019
15.0598	921.748	61.0288
15.0623	916.484	61.0386
15.0627	919.564	61.04834
15.0624	927.783	61.0581
15.0648	933.003	61.0679
15.0642	928.901	61.0776
15.0654	923.294	61.0874
15.0664	920.254	61.0972
15.0667	918.1347	61.1069
15.0682	921.695	61.1167
15.0692	928.855	61.1265
15.0703	929.315	61.13623
15.0704	927.684	61.146
15.0713	915.59	61.1558
15.0735	914.685	61.1655
15.0732	921.262	61.1753
15.0747	927.031	61.1851
15.0747	932.521	61.1948
15.0757	926.46	61.20459
15.0762	920.389	61.2144
15.0776	919.075	61.2241
15.0776	914.271	61.2339
15.0784	925.485	61.2437
15.08005	930.322	61.2534
15.0809	928.611	61.2632
15.0806	921.409	61.2729
15.08221	912.583	61.2827
15.0829	916.073	61.29248
15.0842	922.486	61.3022
15.085	927.041	61.312
15.0849	927.697	61.3218
15.0854	922.2995	61.3315
15.0865	917.694	61.3413
15.08739	913.381	61.3511
15.0877	917.109	61.36084
15.0901	924.023	61.3706
15.089	928.746	61.3804
15.0904	925.097	61.3901
15.0921	916.076	61.3999
15.0923	910.924	61.4097
15.0937	914.521	61.4194
15.0945	921.165	61.4292
15.09505	923.701	61.439
15.0948	924.429	61.44873
15.096	918.788	61.4585
15.0967	914.806	61.4683
15.0974	911.955	61.478
15.09926	911.153	61.4878
15.0997	919.592	61.4976
15.1096	-9.55807	61.5073
15.1081	-42.3749	61.51709
15.1089	-45.5951	61.5269
15.10691	-45.2213	61.5366
15.10814	-46.8507	61.5464
15.1068	-36.4962	61.5562
15.1074	-42.4597	61.5659
15.1087	-36.0437	61.5757
15.1098	-46.6116	61.5854
15.1103	-47.6727	61.5952
15.1104	-51.9592	61.60498
15.1115	-46.0353	61.6147
15.1113	-36.6773	61.6245
15.1124	-37.793	61.6343
15.11444	-40.2157	61.644
15.114	-48.55542	61.6538
15.1151	-49.1814	61.6636
15.1156	-47.8421	61.67334
15.1166	-43.1521	61.6831
15.11692	-35.7951	61.6929
15.1173	-36.56287	61.7026
15.1188	-44.8704	61.7124
15.1203	-52.3129	61.7222
15.1195	-49.4139	61.7319
15.1203	-43.6833	61.7417
15.1219	-35.5382	61.7515
15.1232	-35.4696	61.76123
15.12283	-41.4174	61.771
15.1234	-46.9462	61.7808
15.126	-51.3007	61.7905
15.1268	-46.5364	61.8003
15.1268	-38.8425	61.8101
15.1272	-33.8909	61.8198
15.1289	-36.1209	61.82959
15.1295	-48.5072	61.8394
15.1301	-52.5255	61.8491
15.1303	-50.4168	61.8589
15.1314	-39.497	61.8687
15.1317	-34.2748	61.8784
15.1326	-40.3743	61.8882
15.134	-42.8806	61.8979
15.1352	-48.6166	61.9077
15.1355	-53.4928	61.91748
15.1369	-45.2231	61.9272
15.137	-36.7455	61.937
15.138	-33.8663	61.9468
15.1387	-41.069	61.9565
15.139	-50.822	61.9663
15.1397	-51.3518	61.9761
15.1409	-46.3658	61.98584
15.1415	-38.96468	61.9956
15.1422	-37.9261	62.0054
15.1428	-40.2313	62.0151
15.1446	-43.3158	62.0249
15.1461	-51.6528	62.0347
15.1458	-49.4874	62.0444
15.1463	-43.6906	62.0542
15.1482	-37.0771	62.064
15.1483	-36.6167	62.07373
15.1493	-44.8211	62.0835
15.1509	-50.1435	62.0933
15.1514	-47.876	62.103
15.1528	-45.4856	62.1128
15.1517	-40.4182	62.1226
15.1541	-37.8651	62.1323
15.1534	-40.9078	62.14209
15.1551	-44.7867	62.1519
15.1561	-51.5944	62.1616
15.1567	-48.92	62.1714
15.15738	-42.7935	62.1812
15.1588	-38.1029	62.1909
15.15909	-39.0618	62.2007
15.16	-45.0427	62.2104
15.1601	-48.9553	62.2202
15.16071	-47.2647	62.22998
15.1626	-48.0412	62.2397
15.1621	-40.41357	62.2495
15.1631	-37.1689	62.2593
15.1645	-39.7433	62.269
15.1647	-45.7526	62.2788
15.1661	-52.8011	62.2886
15.1666	-49.3247	62.29834
15.1691	-39.2723	62.3081
15.1677	-37.6359	62.3179
15.1696	-37.2436	62.3276
15.1717	-45.2092	62.3374
15.1698	-48.5829	62.3472
15.172	-48.6009	62.3569
15.172	-45.3008	62.3667
15.1723	-37.7495	62.3765
15.1742	-35.6386	62.38623
15.1747	-40.94	62.396
15.1756	-48.4792	62.4058
15.17709	-51.3611	62.4155
15.1776	-44.82262	62.4253
15.1787	-38.8163	62.4351
15.1798	-35.995	62.4448
15.1789	-39.0347	62.45459
15.1799	-45.4868	62.4644
15.1813	-49.6159	62.4741
15.1824	-50.2898	62.4839
15.1837	-43.5414	62.4937
15.184	-35.3973	62.5034
15.1852	-34.552	62.5132
15.1855	-44.8454	62.5229
15.1866	-50.7879	62.5327
15.18692	-51.1892	62.54248
15.1876	-44.3344	62.5522
15.1891	-37.7166	62.562
15.191	-38.9932	62.5718
15.1903	-40.2146	62.5815
15.1911	-48.0086	62.5913
15.1916	-51.8092	62.6011
15.1927	-46.8966	62.61084
15.193	-40.4855	62.6206
15.1949	-33.6575	62.6304
15.1959	-39.8751	62.6401
15.1968	-47.6362	62.6499
15.1966	-49.9954	62.6597
15.1987	-49.044	62.6694
15.199	-40.25132	62.6792
15.1988	-39.2653	62.689
15.2003	-37.89653	62.69873
15.2011	-42.639	62.7085
15.2024	-50.4333	62.7183
15.20377	-49.9547	62.728
15.203	-47.3586	62.7378
15.2047	-40.60931	62.7476
15.2057	-36.3896	62.7573
15.20532	-41.9471	62.76709
15.2069	-45.9358	62.7769
15.2077	-48.4982	62.7866
15.2084	-47.16748	62.7964
15.2095	-41.02668	62.8062
15.2104	-38.8145	62.8159
15.2113	-39.3073	62.8257
15.2121	-42.5092	62.8354
15.2128	-50.3235	62.8452
15.2137	-50.3263	62.85498
15.2148	-45.748	62.8647
15.2152	-37.7217	62.8745
15.21572	-38.6094	62.8843
15.2171	-41.8377	62.894
15.2182	-46.7623	62.9038
15.2179	-49.4467	62.9136
15.2183	-49.4431	62.92334
15.2199	-43.7975	62.9331
15.2209	-39.36414	62.9429
15.2205	-39.7088	62.9526