File: data/processed_data_files/tensile/0.254_hd_uprint_typeiv_4545_r(3).dat
MTS793|BTW|ENU|1|2|.|/|:|1|0|0|A

Data Header:			0.254_hd_uprint_typeiv_4545_r0			Time:	20.0173	s	4/13/2019 7:17:08 PM
Data Acquisition:	Timed
Station Name:	ft40.cfg
Test File Name:	monotonic_0.2540_typeiv_hd_4545_uprint.tst
Displacement	Force	Running Time
mm	N	s
-40.0347	46.4483	0.0224609
-40.0344	41.14896	0.0419922
-40.03474	40.454	0.0615234
-40.0354	45.5319	0.0810547
-40.03479	42.4711	0.100586
-40.0322	39.8851	0.120117
-40.0302	47.1885	0.139648
-40.0287	48.8967	0.15918
-40.0272	44.051	0.178711
-40.0247	49.0561	0.198242
-40.0245	51.9634	0.217773
-40.0219	48.3389	0.237305
-40.0201	49.468	0.256836
-40.0189	57.1056	0.276367
-40.0161	51.4019	0.295898
-40.0154	52.4352	0.31543
-40.0133	54.6934	0.334961
-40.0117	58.7919	0.354492
-40.01046	55.0199	0.374023
-40.0089	62.0478	0.393555
-40.007	61.0419	0.413086
-40.005	58.2077	0.432617
-40.00423	59.236	0.452148
-40.00071	65.3334	0.47168
-40.00071	60.5187	0.491211
-39.99921	63.4137	0.510742
-39.9968	68.4546	0.530273
-39.9954	64.5705	0.549805
-39.9945	62.26	0.569336
-39.9918	71.2449	0.588867
-39.9906	66.678	0.608398
-39.9878	66.5618	0.62793
-39.9877	74.6785	0.647461
-39.986	72.0661	0.666992
-39.98452	67.5973	0.686523
-39.983	76.7595	0.706055
-39.9813	76.4016	0.725586
-39.9798	70.9954	0.745117
-39.9777	77.565	0.764648
-39.9763	77.6731	0.78418
-39.976	74.2775	0.803711
-39.9721	79.9367	0.823242
-39.971	83.23484	0.842773
-39.97015	77.4675	0.862305
-39.9692	82.8495	0.881836
-39.9668	82.922	0.901367
-39.9641	83.4568	0.920898
-39.9634	80.4747	0.94043
-39.962	90.0018	0.959961
-39.96022	87.2167	0.979492
-39.9589	87.4042	0.999023
-39.9565	87.05201	1.01855
-39.9552	93.2911	1.03809
-39.95343	86.5778	1.05762
-39.9523	94.8106	1.07715
-39.9499	95.3372	1.09668
-39.9492	91.7519	1.11621
-39.9474	91.2298	1.13574
-39.945	100.835	1.15527
-39.9433	93.5169	1.1748
-39.9407	97.4726	1.19434
-39.9406	101.819	1.21387
-39.9391	98.9781	1.2334
-39.9367	96.5027	1.25293
-39.9344	104.707	1.27246
-39.93367	101.28	1.29199
-39.9315	99.05777	1.31152
-39.9313	107.466	1.33105
-39.9283	105.7987	1.35059
-39.92643	100.631	1.37012
-39.9244	106.919	1.38965
-39.9236	111.397	1.40918
-39.9226	105.111	1.42871
-39.9211	110.291	1.44824
-39.9197	110.8147	1.46777
-39.91737	109.555	1.4873
-39.9155	111.516	1.50684
-39.9138	118.331	1.52637
-39.9124	112.114	1.5459
-39.9103	114.944	1.56543
-39.9091	116.737	1.58496
-39.90691	119.46	1.60449
-39.906	114.933	1.62402
-39.9045	121.168	1.64355
-39.9029	122.713	1.66309
-39.9004	118.764	1.68262
-39.8987	120.644	1.70215
-39.897	125.802	1.72168
-39.8965	119.7776	1.74121
-39.8957	124.987	1.76074
-39.8937	129.318	1.78027
-39.891	124.595	1.7998
-39.88855	123.36	1.81934
-39.8876	133.543	1.83887
-39.887	128.452	1.8584
-39.8844	126.681	1.87793
-39.8836	134.387	1.89746
-39.8817	131.178	1.91699
-39.881	129.337	1.93652
-39.8785	137.312	1.95605
-39.8755	134.787	1.97559
-39.8736	131.455	1.99512
-39.8728	139.37	2.01465
-39.8725	138.4023	2.03418
-39.8696	134.258	2.05371
-39.8687	137.807	2.07324
-39.8669	144.5632	2.09277
-39.8651	138.833	2.1123
-39.8634	142.749	2.13184
-39.8621	142.334	2.15137
-39.861	143.703	2.1709
-39.8587	141.263	2.19043
-39.857	148.196	2.20996
-39.85548	146.23	2.22949
-39.8542	146.317	2.24902
-39.8515	148.219	2.26855
-39.8505	152.8588	2.28809
-39.8498	147.43	2.30762
-39.8468	151.07	2.32715
-39.8473	155.139	2.34668
-39.8442	151.552	2.36621
-39.8432	150.247	2.38574
-39.8411	158.734	2.40527
-39.84	151.818	2.4248
-39.8385	155.767	2.44434
-39.8363	160.907	2.46387
-39.8342	158.15	2.4834
-39.8333	154.848	2.50293
-39.831	165.095	2.52246
-39.8298	161.061	2.54199
-39.8282	159.066	2.56152
-39.8273	165.266	2.58105
-39.8247	164.854	2.60059
-39.8236	160.679	2.62012
-39.8217	166.47	2.63965
-39.8202	167.923	2.65918
-39.8185	163.3168	2.67871
-39.8161	170.512	2.69824
-39.8166	170.925	2.71777
-39.81369	168.687	2.7373
-39.8124	169.392	2.75684
-39.81	175.385	2.77637
-39.8102	172.51	2.7959
-39.8074	172.607	2.81543
-39.8052	174.328	2.83496
-39.8036	177.085	2.85449
-39.8017	173.619	2.87402
-39.7995	181.154	2.89355
-39.7991	180.186	2.91309
-39.7968	176.031	2.93262
-39.79541	178.845	2.95215
-39.7952	184.996	2.97168
-39.7937	178.216	2.99121
-39.7912	182.59	3.01074
-39.7894	186.852	3.03027
-39.7877	183.679	3.0498
-39.786	182.037	3.06934
-39.7835	190.275	3.08887
-39.7821	185.352	3.1084
-39.7809	186.782	3.12793
-39.7792	191.891	3.14746
-39.7762	189.7	3.16699
-39.7762	185.72	3.18652
-39.775	195.198	3.20605
-39.7725	195.699	3.22559
-39.7696	192.126	3.24512
-39.7694	196.059	3.26465
-39.76759	197.335	3.28418
-39.7653	194.133	3.30371
-39.76495	197.211	3.32324
-39.7634	202.197	3.34277
-39.7621	195.015	3.3623
-39.76	200.709	3.38184
-39.7579	202.413	3.40137
-39.7565	201.2175	3.4209
-39.7543	198.497	3.44043
-39.7524	207.5934	3.45996
-39.7517	205.859	3.47949
-39.7506	204.3232	3.49902
-39.7495	205.209	3.51855
-39.747	210.321	3.53809
-39.7448	204.156	3.55762
-39.7424	211.5058	3.57715
-39.74218	214.042	3.59668
-39.7402	209.02	3.61621
-39.7391	210.171	3.63574
-39.73735	217.33	3.65527
-39.7349	211.762	3.6748
-39.7336	214.262	3.69434
-39.7319	218.757	3.71387
-39.7303	215.778	3.7334
-39.7301	214.067	3.75293
-39.7281	222.103	3.77246
-39.7253	218.826	3.79199
-39.7251	217.335	3.81152
-39.7225	225.7001	3.83105
-39.7212	222.976	3.85059
-39.7195	218.077	3.87012
-39.7182	223.093	3.88965
-39.7163	227.925	3.90918
-39.715	220.608	3.92871
-39.7118	228.43	3.94824
-39.7118	227.95	3.96777
-39.7091	226.75	3.9873
-39.7075	227.935	4.00684
-39.7053	234.9364	4.02637
-39.7044	229.723	4.0459
-39.7029	231.158	4.06543
-39.7014	233.288	4.08496
-39.6983	235.891	4.10449
-39.6975	230.848	4.12402
-39.6961	238.095	4.14355
-39.69487	238.563	4.16309
-39.6932	235.784	4.18262
-39.6928	237.377	4.20215
-39.6902	243.017	4.22168
-39.6881	237.191	4.24121
-39.6867	242.024	4.26074
-39.6847	245.99	4.28027
-39.6829	241.272	4.2998
-39.6809	238.215	4.31934
-39.6786	248.634	4.33887
-39.6779	244.478	4.3584
-39.6759	243.6817	4.37793
-39.6759	251.093	4.39746
-39.6739	247.4855	4.41699
-39.67152	243.709	4.43652
-39.6702	252.227	4.45605
-39.6678	251.7316	4.47559
-39.6675	246.795	4.49512
-39.6657	255.113	4.51465
-39.6628	255.858	4.53418
-39.6622	250.67	4.55371
-39.6604	254.583	4.57324
-39.65873	257.681	4.59277
-39.6579	255.4743	4.6123
-39.6552	258.731	4.63184
-39.654	258.913	4.65137
-39.6519	258.974	4.6709
-39.6505	257.637	4.69043
-39.64883	265.471	4.70996
-39.6474	262.276	4.72949
-39.6453	261.056	4.74902
-39.6446	263.034	4.76855
-39.6416	269.061	4.78809
-39.6406	261.863	4.80762
-39.6397	268.454	4.82715
-39.6367	270.8624	4.84668
-39.636	266.241	4.86621
-39.6346	266.307	4.88574
-39.6324	274.721	4.90527
-39.6296	267.55	4.9248
-39.6295	271.085	4.94434
-39.6285	276.4809	4.96387
-39.6267	270.999	4.9834
-39.62513	268.615	5.00293
-39.6232	278.694	5.02246
-39.6209	276.621	5.04199
-39.6193	273.593	5.06152
-39.61784	280.021	5.08105
-39.6161	279.403	5.10059
-39.6157	275.512	5.12012
-39.6142	280.41	5.13965
-39.6126	284.155	5.15918
-39.6098	278.2305	5.17871
-39.6077	283.075	5.19824
-39.6066	285.467	5.21777
-39.6051	283.4025	5.2373
-39.60284	284.638	5.25684
-39.6017	289.395	5.27637
-39.6013	285.519	5.2959
-39.5988	286.87	5.31543
-39.5972	289.194	5.33496
-39.5961	289.253	5.35449
-39.5945	286.935	5.37402
-39.592	294.343	5.39355
-39.5914	293.593	5.41309
-39.5901	290.953	5.43262
-39.5876	291.522	5.45215
-39.5851	299.642	5.47168
-39.5839	291.432	5.49121
-39.5816	297.0329	5.51074
-39.5802	301.342	5.53027
-39.5788	296.235	5.5498
-39.5773	294.944	5.56934
-39.5765	304.253	5.58887
-39.5739	299.06	5.6084
-39.5731	298.772	5.62793
-39.5712	307.129	5.64746
-39.56937	303.215	5.66699
-39.5675	299.584	5.68652
-39.5659	307.108	5.70605
-39.56419	307.131	5.72559
-39.56321	302.828	5.74512
-39.5615	309.457	5.76465
-39.5587	309.427	5.78418
-39.5585	305.3107	5.80371
-39.5566	310.172	5.82324
-39.5537	312.981	5.84277
-39.5523	307.453	5.8623
-39.5517	312.84	5.88184
-39.54895	314.33	5.90137
-39.548	314.576	5.9209
-39.5468	310.556	5.94043
-39.5442	319.618	5.95996
-39.5429	317.361	5.97949
-39.54203	316.347	5.99902
-39.541	317.148	6.01855
-39.5387	322.0639	6.03809
-39.5364	314.223	6.05762
-39.5353	322.7789	6.07715
-39.5327	325.52	6.09668
-39.5324	320.919	6.11621
-39.5305	320.009	6.13574
-39.5297	331.2244	6.15527
-39.52668	323.032	6.1748
-39.5246	324.206	6.19434
-39.5248	330.447	6.21387
-39.522	326.119	6.2334
-39.52021	323.6904	6.25293
-39.5182	332.811	6.27246
-39.51725	330.338	6.29199
-39.5152	327.908	6.31152
-39.5143	335.837	6.33105
-39.5128	333.5257	6.35059
-39.5121	329.302	6.37012
-39.509	334.989	6.38965
-39.50695	337.281	6.40918
-39.5064	332.6424	6.42871
-39.5051	338.989	6.44824
-39.503	338.071	6.46777
-39.501	337.663	6.4873
-39.4993	337.881	6.50684
-39.49646	344.435	6.52637
-39.49593	339.627	6.5459
-39.4943	339.393	6.56543
-39.49213	343.137	6.58496
-39.4915	345.313	6.60449
-39.4885	339.707	6.62402
-39.4877	346.82	6.64355
-39.4859	347.5574	6.66309
-39.48547	345.722	6.68262
-39.4824	346.481	6.70215
-39.4811	352.115	6.72168
-39.4799	345.71	6.74121
-39.4778	349.839	6.76074
-39.4784	354.201	6.78027
-39.4746	348.714	6.7998
-39.4738	349.745	6.81934
-39.4718	357.834	6.83887
-39.4705	353.82	6.8584
-39.468	352.8493	6.87793
-39.4668	358.004	6.89746
-39.46513	355.144	6.91699
-39.4638	352.946	6.93652
-39.4617	361.526	6.95605
-39.4598	359.351	6.97559
-39.4592	353.98	6.99512
-39.45789	361.712	7.01465
-39.4561	361.473	7.03418
-39.4532	360.212	7.05371
-39.4523	361.288	7.07324
-39.4507	366.224	7.09277
-39.4488	362.509	7.1123
-39.4481	364.322	7.13184
-39.447	365.347	7.15137
-39.4429	366.0293	7.1709
-39.4418	365.615	7.19043
-39.4406	372.817	7.20996
-39.4384	370.395	7.22949
-39.4372	367.7186	7.24902
-39.4369	369.1311	7.26855
-39.4356	374.771	7.28809
-39.4329	367.6174	7.30762
-39.4308	374.9292	7.32715
-39.4297	376.159	7.34668
-39.4275	373.641	7.36621
-39.4249	373.721	7.38574
-39.4242	381.259	7.40527
-39.4232	373.144	7.4248
-39.4197	375.118	7.44434
-39.4215	382.784	7.46387
-39.4178	378.342	7.4834
-39.417	374.313	7.50293
-39.4147	384.575	7.52246
-39.4135	381.687	7.54199
-39.41	379.886	7.56152
-39.4094	385.828	7.58105
-39.4083	382.504	7.60059
-39.4074	379.052	7.62012
-39.4051	386.4386	7.63965
-39.4036	389.442	7.65918
-39.402	383.563	7.67871
-39.4003	389.229	7.69824
-39.3983	390.62	7.71777
-39.39756	387.9549	7.7373
-39.3955	387.303	7.75684
-39.394	393.34	7.77637
-39.3926	390.715	7.7959
-39.3904	394.141	7.81543
-39.3879	391.44	7.83496
-39.3872	394.203	7.85449
-39.3847	390.13	7.87402
-39.3846	399.044	7.89355
-39.3817	398.386	7.91309
-39.3802	393.662	7.93262
-39.3787	394.457	7.95215
-39.3779	402.345	7.97168
-39.3756	395.866	7.99121
-39.3734	398.965	8.01074
-39.3721	404.109	8.03027
-39.3713	399.281	8.0498
-39.3705	398.254	8.06934
-39.3675	407.152	8.08887
-39.3657	400.98	8.1084
-39.3641	401.029	8.12793
-39.3631	409.246	8.14746
-39.3612	405.224	8.16699
-39.3586	402.81	8.18652
-39.3585	408.132	8.20605
-39.355	408.982	8.22559
-39.354	405.315	8.24512
-39.3532	411.947	8.26465
-39.3502	411.116	8.28418
-39.3486	408.197	8.30371
-39.3483	411.13	8.32324
-39.3462	416.2619	8.34277
-39.3438	409.156	8.3623
-39.3439	412.404	8.38184
-39.3408	415.347	8.40137
-39.3394	416.387	8.4209
-39.3382	413.912	8.44043
-39.3354	420.145	8.45996
-39.3363	417.544	8.47949
-39.3331	416.192	8.49902
-39.3315	419.122	8.51855
-39.3306	422.2587	8.53809
-39.3282	415.26	8.55762
-39.32777	423.768	8.57715
-39.3264	426.246	8.59668
-39.3242	420.878	8.61621
-39.3235	420.352	8.63574
-39.3207	426.988	8.65527
-39.3181	422.444	8.6748
-39.3175	424.774	8.69434
-39.3144	429.798	8.71387
-39.3138	424.427	8.7334
-39.312	422.773	8.75293
-39.3105	431.939	8.77246
-39.3087	430.004	8.79199
-39.3073	424.453	8.81152
-39.3057	432.849	8.83105
-39.3043	431.177	8.85059
-39.3023	426.531	8.87012
-39.3018	431.751	8.88965
-39.29863	434.387	8.90918
-39.297	430.4653	8.92871
-39.2939	435.394	8.94824
-39.2943	436.784	8.96777
-39.2921	433.324	8.9873
-39.29034	434.706	9.00684
-39.2885	441.4281	9.02637
-39.2889	435.706	9.0459
-39.2852	436.063	9.06543
-39.2842	439.451	9.08496
-39.2812	442.684	9.10449
-39.2812	437.149	9.12402
-39.2801	442.327	9.14355
-39.2771	442.684	9.16309
-39.2763	441.257	9.18262
-39.2737	443.292	9.20215
-39.2731	449.952	9.22168
-39.2715	440.658	9.24121
-39.27	445.23	9.26074
-39.2683	450.582	9.28027
-39.2664	445.821	9.2998
-39.2642	442.63	9.31934
-39.2636	452.446	9.33887
-39.2621	448.3833	9.3584
-39.2593	449.1142	9.37793
-39.2582	454.389	9.39746
-39.2562	448.92	9.41699
-39.2557	447.602	9.43652
-39.254	456.824	9.45605
-39.2517	454.8403	9.47559
-39.2506	448.85	9.49512
-39.248	457.1998	9.51465
-39.2465	456.4	9.53418
-39.2453	453.335	9.55371
-39.2437	455.993	9.57324
-39.2422	457.83	9.59277
-39.2414	455.638	9.6123
-39.2389	458.317	9.63184
-39.2355	459.0929	9.65137
-39.2366	460.024	9.6709
-39.23378	456.9556	9.69043
-39.2325	465.302	9.70996
-39.2304	461.997	9.72949
-39.2292	460.676	9.74902
-39.2281	461.49	9.76855
-39.2262	467.324	9.78809
-39.225	461.029	9.80762
-39.22176	467.572	9.82715
-39.2212	468.8812	9.84668
-39.22	463.485	9.86621
-39.2184	463.759	9.88574
-39.2164	472.948	9.90527
-39.2149	466.28	9.9248
-39.2124	467.382	9.94434
-39.2097	473.9288	9.96387
-39.2105	469.276	9.9834
-39.208	465.94	10.00293
-39.206	473.866	10.0225
-39.2045	472.032	10.042
-39.2029	469.323	10.0615
-39.2007	477.245	10.0811
-39.2003	472.024	10.1006
-39.1977	469.3623	10.1201
-39.1967	474.329	10.1396
-39.1956	477.455	10.15918
-39.19355	471.544	10.1787
-39.1913	476.917	10.1982
-39.1904	478.442	10.2178
-39.188	476.323	10.2373
-39.1868	474.952	10.2568
-39.18449	481.738	10.2764
-39.18322	477.28	10.2959
-39.1814	478.888	10.31543
-39.1804	480.364	10.335
-39.1789	482.043	10.3545
-39.1769	476.763	10.374
-39.1751	484.9584	10.3936
-39.1736	484.53	10.4131
-39.1725	480.191	10.4326
-39.1706	481.4733	10.4521
-39.1695	487.718	10.47168
-39.16811	480.5433	10.4912
-39.1658	484.01	10.5107
-39.1636	489.1	10.5303
-39.1623	482.545	10.5498
-39.1601	483.477	10.5693
-39.1584	491.953	10.5889
-39.1583	485.571	10.6084
-39.1546	484.7962	10.62793
-39.1551	492.985	10.6475
-39.1529	487.668	10.667
-39.1515	486.518	10.6865
-39.1498	491.426	10.7061
-39.1475	492.377	10.7256
-39.146	487.446	10.7451
-39.1442	494.053	10.7646
-39.14172	491.024	10.78418
-39.1414	489.344	10.8037
-39.1388	492.96	10.8232
-39.1371	497.541	10.8428
-39.1357	492.401	10.8623
-39.1352	493.734	10.8818
-39.1336	494.727	10.9014
-39.1311	495.6199	10.9209
-39.1296	492.422	10.94043
-39.1283	499.716	10.96
-39.1274	497.616	10.9795
-39.1247	495.368	10.999
-39.1226	499.018	11.0186
-39.1217	501.362	11.0381
-39.1199	493.691	11.0576
-39.1194	500.54	11.0771
-39.1173	503.3	11.09668
-39.1148	497.348	11.1162
-39.1127	497.913	11.1357
-39.1122	505.227	11.1553
-39.1099	499.527	11.1748
-39.108	500.503	11.1943
-39.1063	507.299	11.2139
-39.1053	501.351	11.2334
-39.104	498.521	11.25293
-39.1016	508.286	11.2725
-39.1003	505.3082	11.292
-39.1	501.234	11.3115
-39.09734	508.078	11.3311
-39.0953	506.769	11.3506
-39.0942	503.699	11.3701
-39.0929	506.8804	11.3896
-39.0903	509.009	11.40918
-39.08926	503.6	11.4287
-39.0877	508.445	11.4482
-39.0863	509.2764	11.4678
-39.08363	506.301	11.4873
-39.0826	506.196	11.5068
-39.0817	512.6698	11.5264
-39.0799	508	11.5459
-39.0776	508.556	11.56543
-39.0762	509.784	11.585
-39.0753	512.356	11.6045
-39.0728	507.172	11.624
-39.0703	514.08	11.6436
-39.0696	510.451	11.6631
-39.0692	509.21	11.6826
-39.0647	510.26	11.7021
-39.06559	516.617	11.72168
-39.0632	509.111	11.7412
-39.0619	513.3595	11.7607
-39.0598	518.453	11.7803
-39.0577	511.173	11.7998
-39.0568	510.776	11.8193
-39.0542	516.86	11.8389
-39.0532	513.731	11.8584
-39.0517	512.77	11.87793
-39.0493	519.246	11.8975
-39.0478	514.286	11.917
-39.0466	510.554	11.9365
-39.0452	518.449	11.9561
-39.04414	519.038	11.9756
-39.041	513.268	11.9951
-39.0406	518.445	12.0146
-39.0387	517.3009	12.03418
-39.0371	514.656	12.0537
-39.0362	516.135	12.0732
-39.0331	520.879	12.0928
-39.0317	514.486	12.1123
-39.03	518.284	12.1318
-39.02742	518.873	12.1514
-39.0275	519.232	12.1709
-39.0263	515.713	12.19043
-39.0243	523.778	12.21
-39.0218	519.444	12.2295
-39.0203	517.4433	12.249
-39.0182	517.294	12.2686
-39.0178	523.069	12.2881
-39.0165	517.483	12.3076
-39.014	523.3385	12.3271
-39.0132	521.196	12.34668
-39.011	517.428	12.3662
-39.0096	517.699	12.3857
-39.0086	524.456	12.4053
-39.0063	517.581	12.4248
-39.0032	518.393	12.4443
-39.004	524.394	12.4639
-39.002	519.659	12.4834
-38.9995	516.55	12.50293
-38.9977	522.571	12.5225
-38.9956	520.308	12.542
-38.9942	516.7995	12.5615
-38.9925	524.43	12.5811
-38.9915	519.098	12.6006
-38.9898	516.361	12.6201
-38.9877	523.465	12.6396
-38.9853	525.129	12.65918
-38.9854	518.423	12.6787
-38.984	523.324	12.6982
-38.981	523.52	12.7178
-38.9801	522.382	12.7373
-38.9785	520.055	12.7568
-38.9768	526.353	12.7764
-38.9751	520.135	12.7959
-38.97282	521.931	12.81543
-38.9716	523.09	12.835
-38.9707	525.021	12.8545
-38.969	517.287	12.874
-38.9666	525.785	12.8936
-38.965	526.3941	12.9131
-38.9641	521.205	12.9326
-38.9617	520.978	12.9521
-38.9602	525.207	12.97168
-38.9595	520.117	12.9912
-38.9581	522.705	13.0107
-38.9566	526.183	13.0303
-38.9541	518.7	13.0498
-38.9539	518.7	13.0693
-38.9515	527.537	13.0889
-38.9495	521.676	13.1084
-38.9485	518.391	13.12793
-38.9464	526.173	13.1475
-38.94519	521.724	13.167
-38.9424	518.4599	13.1865
-38.9413	525.655	13.2061
-38.939	524.002	13.2256
-38.9388	520.3158	13.2451
-38.9353	524.628	13.2646
-38.9347	522.799	13.28418
-38.93261	519.0545	13.3037
-38.9317	522.521	13.3232
-38.9294	527.278	13.3428
-38.9278	521.577	13.3623
-38.927	520.5	13.3818
-38.9246	522.159	13.4014
-38.9228	523.252	13.4209
-38.9218	519.361	13.44043
-38.92	525.7384	13.46
-38.91925	521.916	13.4795
-38.9159	521.045	13.499
-38.9158	521.045	13.5186
-38.91309	524.957	13.5381
-38.9105	517.876	13.5576
-38.9104	522.844	13.5771
-38.9079	524.751	13.59668
-38.9062	519.198	13.6162
-38.906	519.232	13.6357
-38.9037	526.056	13.6553
-38.90173	518.875	13.6748
-38.9004	519.176	13.6943
-38.8996	524.964	13.7139
-38.897	517.038	13.7334
-38.8956	515.976	13.75293
-38.8946	525.456	13.7725
-38.8909	521.899	13.792
-38.8906	518.012	13.8115
-38.8895	524.477	13.8311
-38.8881	520.552	13.8506
-38.8862	518.487	13.8701
-38.8854	521.7608	13.8896
-38.8823	524.786	13.90918
-38.8813	517.878	13.9287
-38.8792	521.461	13.9482
-38.8784	520.06	13.9678
-38.8767	518.089	13.9873
-38.8745	518.108	14.0068
-38.8721	525.169	14.0264
-38.8712	519.381	14.0459
-38.8691	517.743	14.06543
-38.8678	519.354	14.085
-38.8681	522.269	14.1045
-38.8631	516.668	14.124
-38.8633	523.129	14.1436
-38.8618	519.538	14.1631
-38.86	515.392	14.1826
-38.8574	517.852	14.2021
-38.8566	523.4516	14.22168
-38.8544	514.763	14.2412
-38.8531	517.596	14.2607
-38.8514	522.835	14.2803
-38.8498	516.227	14.2998
-38.84827	514.738	14.3193
-38.8462	521.348	14.3389
-38.8448	517.58	14.3584
-38.8426	516.926	14.37793
-38.8417	521.868	14.3975
-38.8407	517.03	14.417
-38.8385	513.666	14.4365
-38.8372	519.205	14.4561
-38.835	519.9115	14.4756
-38.83424	513.581	14.4951
-38.8322	519.987	14.5146
-38.829	517.873	14.53418
-38.8283	516.598	14.5537
-38.8271	516.2179	14.5732
-38.8257	519.716	14.5928
-38.823	514.496	14.6123
-38.8222	517.728	14.6318
-38.8202	517.412	14.6514
-38.8193	515.937	14.6709
-38.8163	511.893	14.69043
-38.8166	520.239	14.71
-38.8149	517.188	14.7295
-38.8124	512.676	14.749
-38.8107	515.059	14.7686
-38.8086	518.651	14.7881
-38.8071	513.0343	14.8076
-38.80645	518.546	14.8271
-38.8041	518.652	14.84668
-38.8025	512.565	14.8662
-38.7997	513.128	14.8857
-38.7984	522.165	14.9053
-38.7982	513.2334	14.9248
-38.7972	513.897	14.9443
-38.7952	520.663	14.9639
-38.7922	513.849	14.9834
-38.7916	510.217	15.00293
-38.79	517.802	15.0225
-38.7886	514.551	15.042
-38.78669	511.495	15.0615
-38.7839	519.272	15.0811
-38.78228	514.534	15.1006
-38.7808	511.886	15.1201
-38.7791	515.719	15.1396
-38.779	518.571	15.15918
-38.7766	512.986	15.1787
-38.7748	515.114	15.1982
-38.7735	515.3335	15.2178
-38.772	513.822	15.2373
-38.7706	514.459	15.2568
-38.7689	520.314	15.2764
-38.7669	513.731	15.2959
-38.7662	514.501	15.31543
-38.7628	516.398	15.335
-38.7627	516.128	15.3545
-38.759	508.95	15.374
-38.7586	518.964	15.3936
-38.7573	517.119	15.4131
-38.7557	511.123	15.4326
-38.7544	510.939	15.4521
-38.752	517.374	15.47168
-38.749	510.544	15.4912
-38.7504	514.389	15.5107
-38.747	518.013	15.5303
-38.7453	509.856	15.5498
-38.7438	511.22	15.5693
-38.7425	517.235	15.5889
-38.7399	512.2182	15.6084
-38.739	510.479	15.62793
-38.7367	517.54	15.6475
-38.7355	512.117	15.667
-38.7339	509.753	15.6865
-38.7333	516.647	15.7061
-38.7326	514.984	15.7256
-38.72876	509.148	15.7451
-38.7287	514.871	15.7646
-38.7268	514.053	15.78418
-38.7245	509.927	15.8037
-38.7235	513.517	15.8232
-38.7201	518.23	15.8428
-38.7194	511.025	15.8623
-38.7186	511.563	15.8818
-38.7157	512.887	15.9014
-38.7154	513.548	15.9209
-38.71233	511.189	15.94043
-38.7112	515.892	15.96
-38.7098	512.586	15.9795
-38.7091	509.751	15.999
-38.707	511.706	16.0186
-38.7053	515.075	16.0381
-38.7027	508.677	16.0576
-38.7015	514.107	16.0771
-38.7002	515.411	16.09668
-38.6983	509.255	16.1162
-38.6972	508.117	16.1357
-38.6946	516.621	16.1553
-38.6941	510.844	16.1748
-38.6923	511.628	16.1943
-38.6902	516.201	16.2139
-38.6889	508.0347	16.2334
-38.6875	507.163	16.25293
-38.6849	515.915	16.2725
-38.6839	512.409	16.292
-38.6819	506.952	16.3115
-38.6802	515.083	16.3311
-38.6784	510.932	16.3506
-38.6779	508.398	16.3701
-38.6757	511.292	16.3896
-38.6738	514.772	16.40918
-38.6721	508.444	16.4287
-38.6717	512.562	16.4482
-38.6694	510.738	16.4678
-38.6675	509.572	16.4873
-38.6662	506.937	16.5068
-38.6636	515.131	16.5264
-38.6628	509.997	16.5459
-38.66172	508.164	16.56543
-38.6598	509.145	16.585
-38.6582	512.102	16.6045
-38.6557	509.043	16.624
-38.6545	512.809	16.6436
-38.6532	510.999	16.6631
-38.6517	506.816	16.6826
-38.6492	508.698	16.7021
-38.6477	515.0498	16.72168
-38.6467	506.739	16.7412
-38.645	509.823	16.7607
-38.6424	514.772	16.7803
-38.6415	507.057	16.7998
-38.6402	506.318	16.8193
-38.6389	514.754	16.8389
-38.6362	508.96	16.8584
-38.6346	508.364	16.87793
-38.6332	514.153	16.8975
-38.6321	507.167	16.917
-38.6301	504.953	16.9365
-38.6282	512.389	16.9561
-38.6263	513.047	16.9756
-38.6254	505.84	16.9951
-38.6238	510.484	17.0146
-38.6212	507.549	17.03418
-38.6205	507.156	17.0537
-38.6187	508.165	17.0732
-38.61734	512.892	17.0928
-38.616	507.501	17.1123
-38.6147	509.983	17.1318
-38.6117	511.412	17.1514
-38.61013	508.496	17.1709
-38.60902	506.239	17.19043
-38.608	513.384	17.21
-38.6059	509.5238	17.2295
-38.6051	506.621	17.249
-38.6032	505.1492	17.2686
-38.6017	511.468	17.2881
-38.5992	505.65	17.3076
-38.5971	511.167	17.3271
-38.5954	510.29	17.34668
-38.5946	504.959	17.3662
-38.5934	505.529	17.3857
-38.5911	513.112	17.4053
-38.5897	507.176	17.4248
-38.588	504.372	17.4443
-38.5865	512.341	17.4639
-38.5844	506.189	17.4834
-38.5827	505.92	17.50293
-38.5822	511.166	17.5225
-38.5798	508.235	17.542
-38.5778	504.464	17.5615
-38.5759	511.431	17.5811
-38.57526	505.329	17.6006
-38.573	504.048	17.6201
-38.573	508.353	17.6396
-38.569	511.633	17.65918
-38.5684	505.556	17.6787
-38.5674	508.252	17.6982
-38.5656	507.302	17.7178
-38.5638	505.858	17.7373
-38.5616	504.874	17.7568
-38.56012	512.011	17.7764
-38.5587	506.64	17.7959
-38.5567	507.1799	17.81543
-38.5547	508.199	17.835
-38.5533	509.3382	17.8545
-38.5522	503.824	17.874
-38.5497	509.8501	17.8936
-38.5486	510.28	17.9131
-38.5476	505.622	17.9326
-38.5463	505.792	17.9521
-38.5434	511.883	17.97168
-38.5423	504.695	17.9912
-38.5401	506.383	18.0107
-38.53899	511.709	18.0303
-38.5389	502.7345	18.0498
-38.5355	502.75	18.0693
-38.5341	512.206	18.0889
-38.5324	507.9736	18.1084
-38.5321	503.207	18.12793
-38.5293	512.051	18.1475
-38.5278	505.825	18.167
-38.52668	504.742	18.1865
-38.52335	508.735	18.2061
-38.5221	509.598	18.2256
-38.5216	504.296	18.2451
-38.5197	509.3165	18.2646
-38.5174	507.869	18.28418
-38.517	505.353	18.3037
-38.5133	506.126	18.3232
-38.5123	512.107	18.3428
-38.51136	504.049	18.3623
-38.5098	506.379	18.3818
-38.5067	505.478	18.4014
-38.506	507.036	18.4209
-38.5047	504.2832	18.44043
-38.502	511.0079	18.46
-38.502	506.88	18.4795
-38.5004	504.291	18.499
-38.498	505.22	18.5186
-38.496	510.398	18.5381
-38.49485	502.919	18.5576
-38.4939	507.445	18.5771
-38.4917	510.389	18.59668
-38.4892	502.979	18.6162
-38.4876	502.866	18.6357
-38.4869	509.368	18.6553
-38.4858	504.442	18.6748
-38.48418	504.335	18.6943
-38.4819	509.724	18.7139
-38.48061	503.346	18.7334
-38.4784	501.516	18.75293
-38.4773	508.9668	18.7725
-38.4749	507.235	18.792
-38.4738	501.687	18.8115
-38.4723	508.818	18.8311
-38.4706	503.6925	18.8506
-38.46904	502.797	18.8701
-38.467	506.939	18.8896
-38.466	508.233	18.90918
-38.4646	502.112	18.9287
-38.4624	505.903	18.9482
-38.4622	506.671	18.9678
-38.4592	504.126	18.9873
-38.4577	501.355	19.0068
-38.4553	511.019	19.0264
-38.4543	506.708	19.0459
-38.4539	504.624	19.06543
-38.4512	505.4422	19.085
-38.4497	506.033	19.1045
-38.448	501.2753	19.124
-38.4455	509.25	19.1436
-38.4453	508.128	19.1631
-38.4432	501.852	19.1826
-38.4408	502.572	19.2021
-38.4395	510.258	19.22168
-38.4376	503.717	19.2412
-38.4361	505.436	19.2607
-38.4349	508.185	19.2803
-38.4326	503.666	19.2998
-38.4314	501.321	19.3193
-38.4306	508.8421	19.3389
-38.4285	504.559	19.3584
-38.4263	503.003	19.37793
-38.4241	511.135	19.3975
-38.4228	504.156	19.417
-38.4208	501.274	19.4365
-38.4198	507.981	19.4561
-38.4175	508.058	19.4756
-38.4178	503.03	19.4951
-38.4157	506.641	19.5146
-38.4135	504.044	19.53418
-38.4121	502.632	19.5537
-38.411	504.571	19.5732
-38.4093	509.898	19.5928
-38.4076	501.709	19.6123
-38.4055	504.818	19.6318
-38.4036	506.663	19.6514
-38.4023	504.285	19.6709
-38.4007	500.321	19.69043
-38.3988	509.36	19.71
-38.39772	505.864	19.7295
-38.3956	503.422	19.749
-38.3946	502.576	19.7686
-38.393	507.038	19.7881
-38.3908	500.5	19.8076
-38.3893	506.275	19.8271
-38.3876	507.083	19.84668
-38.3866	501.2312	19.8662
-38.3841	500.46	19.8857
-38.3823	509.788	19.9053
-38.3801	501.93	19.9248
-38.3788	502.543	19.9443
-38.3788	508.125	19.9639
-38.3762	502.4104	19.9834
-38.375	500.61	20.00293
-38.37476	504.522	20.0127

Data Header:			0.254_hd_uprint_typeiv_4545_r0			Time:	29.77002	s	4/13/2019 7:17:18 PM
Data Acquisition:	Timed
Station Name:	ft40.cfg
Test File Name:	monotonic_0.2540_typeiv_hd_4545_uprint.tst
Displacement	Force	Running Time
mm	N	s
-38.3721	506.28	20.0225
-38.3713	508.232	20.0322
-38.3713	504.774	20.042
-38.3705	500.16	20.0518
-38.3703	500.481	20.0615
-38.3695	503.9938	20.0713
-38.3679	507.52	20.0811
-38.3671	507.204	20.09082
-38.3663	504.646	20.1006
-38.3656	503.807	20.1104
-38.3653	498.862	20.1201
-38.3642	501.937	20.1299
-38.3634	503.623	20.1396
-38.362	506.832	20.1494
-38.3619	506.81	20.15918
-38.3613	498.609	20.1689
-38.3596	501.493	20.1787
-38.3596	502.916	20.1885
-38.3588	503.806	20.1982
-38.358	506.672	20.208
-38.3573	502.898	20.2178
-38.3556	504.674	20.2275
-38.3545	503.779	20.2373
-38.35413	501.79	20.24707
-38.3536	502.747	20.2568
-38.3519	504.301	20.2666
-38.3526	509.153	20.2764
-38.351	503.347	20.2861
-38.3504	502.432	20.2959
-38.3494	500.638	20.3057
-38.3483	502.172	20.31543
-38.3467	504.177	20.3252
-38.3472	503.776	20.335
-38.3459	506.396	20.3447
-38.3447	506.113	20.3545
-38.3437	501.711	20.3643
-38.3445	500.109	20.374
-38.3424	501.508	20.3838
-38.34288	505.509	20.3936
-38.3413	507.772	20.40332
-38.3407	506.915	20.4131
-38.33918	501.41	20.4229
-38.33839	500.65	20.4326
-38.3378	503.118	20.4424
-38.3367	501.409	20.4521
-38.3364	507.082	20.4619
-38.3356	506.7	20.47168
-38.33527	505.701	20.4814
-38.3335	499.993	20.4912
-38.3337	497.497	20.501
-38.3328	503.703	20.5107
-38.3308	507.3194	20.5205
-38.33083	509.136	20.5303
-38.3307	504.023	20.54
-38.32917	500.877	20.5498
-38.3292	502.817	20.55957
-38.3269	497.93	20.5693
-38.326	504.669	20.5791
-38.3261	508.4483	20.5889
-38.3254	505.699	20.5986
-38.3246	503.55	20.6084
-38.3239	496.243	20.6182
-38.3227	500.889	20.62793
-38.3227	505.982	20.6377
-38.32151	506.812	20.6475
-38.3198	506.898	20.6572
-38.3185	501.916	20.667
-38.3173	500.438	20.6768
-38.3173	501.149	20.6865
-38.3168	500.061	20.6963
-38.3169	507.173	20.7061
-38.315	507.372	20.71582
-38.3142	506.09	20.7256
-38.31398	498.829	20.7354
-38.3132	498.938	20.7451
-38.3117	503.462	20.7549
-38.3115	505.303	20.7646
-38.3105	506.5127	20.7744
-38.31007	503.719	20.78418
-38.30864	502.56	20.7939
-38.3086	501.05	20.8037
-38.3075	500.87	20.8135
-38.3062	502.383	20.8232
-38.3054	505.789	20.833
-38.3039	508.448	20.8428
-38.304	501.459	20.8525
-38.3034	500.813	20.8623
-38.3026	499.494	20.87207
-38.302	502.901	20.8818
-38.3008	506.157	20.8916
-38.2981	502.204	20.9014
-38.2993	504.042	20.9111
-38.2988	502.829	20.9209
-38.2979	499.599	20.9307
-38.2963	500.446	20.94043
-38.2957	500.802	20.9502
-38.2955	507.244	20.96
-38.2941	504.938	20.9697
-38.2936	502.304	20.9795
-38.2921	499.025	20.9893
-38.2917	500.081	20.999
-38.2901	502.345	21.0088
-38.2912	501.933	21.0186
-38.2898	505.515	21.02832
-38.2887	506.03	21.0381
-38.2879	502.446	21.0479
-38.2876	500.081	21.0576
-38.2844	497.357	21.0674
-38.2853	503.676	21.0771
-38.2837	506.742	21.0869
-38.2842	503.535	21.09668
-38.2822	501.19	21.1064
-38.2825	498.85	21.1162
-38.2823	499.759	21.126
-38.2813	498.828	21.1357
-38.2798	504.759	21.1455
-38.2792	505.888	21.1553
-38.2774	505.548	21.165
-38.2769	499.521	21.1748
-38.2751	495.507	21.18457
-38.2747	500.125	21.1943
-38.2742	504.949	21.2041
-38.2741	507.876	21.2139
-38.2721	502.439	21.2236
-38.2718	497.882	21.2334
-38.2728	499.238	21.2432
-38.27	496.439	21.25293
-38.2697	503.267	21.2627
-38.269	503.338	21.2725
-38.2682	505.356	21.2822
-38.2673	503.858	21.292
-38.2674	496.801	21.3018
-38.26601	498.011	21.3115
-38.2637	501.226	21.3213
-38.2642	505.046	21.3311
-38.26392	506.099	21.34082
-38.263	501.302	21.3506
-38.2617	501.3768	21.3604
-38.2599	499.63	21.3701
-38.2605	499.318	21.3799
-38.25893	502.146	21.3896
-38.2569	505.97	21.3994
-38.2571	505.1806	21.40918
-38.2569	500.022	21.4189
-38.2563	498.325	21.4287
-38.2547	501.039	21.4385
-38.2543	502.108	21.4482
-38.2539	502.225	21.458
-38.2519	501.708	21.4678
-38.2515	501.738	21.4775
-38.2513	501.209	21.4873
-38.2508	499.8168	21.49707
-38.2496	498.367	21.5068
-38.24839	502.682	21.5166
-38.2465	505.656	21.5264
-38.24683	500.915	21.5361
-38.2456	501.509	21.5459
-38.2457	496.879	21.5557
-38.2454	500.245	21.56543
-38.2432	502.203	21.5752
-38.2419	502.602	21.585
-38.24155	503.739	21.5947
-38.2409	502.716	21.6045
-38.241	500.64	21.6143
-38.24	498.257	21.624
-38.23888	497.802	21.6338
-38.2373	504.927	21.6436
-38.2363	504.609	21.65332
-38.2363	504.161	21.6631
-38.2345	499.8566	21.6729
-38.2355	497.691	21.6826
-38.2338	499.402	21.6924
-38.2329	500.136	21.7021
-38.2322	505.024	21.7119
-38.23148	506.232	21.72168
-38.2312	501.094	21.7314
-38.2305	498.942	21.7412
-38.2286	494.476	21.751
-38.2279	502.643	21.7607
-38.2276	506.916	21.7705
-38.2263	503.579	21.7803
-38.22633	501.938	21.79
-38.2255	498.683	21.7998
-38.2248	499.047	21.80957
-38.2231	496.745	21.8193
-38.2217	503.612	21.8291
-38.2217	504.723	21.8389
-38.2211	504.756	21.8486
-38.2216	500.635	21.8584
-38.219	496.08	21.8682
-38.2187	497.949	21.87793
-38.2177	502.7536	21.8877
-38.2175	505.984	21.8975
-38.2157	504.044	21.9072
-38.2156	499.064	21.917
-38.2148	500.196	21.9268
-38.213	498.067	21.9365
-38.2126	502.634	21.9463
-38.2129	502.845	21.9561
-38.212	505.296	21.96582
-38.2094	504.609	21.9756
-38.2101	496.484	21.9854
-38.2088	498.32	21.9951
-38.2067	500.228	22.0049
-38.209	504.478	22.0146
-38.2067	505.198	22.0244
-38.2049	501.233	22.03418
-38.2053	500.388	22.0439
-38.2043	499.241	22.0537
-38.2035	498.719	22.0635
-38.2026	501.11	22.0732
-38.2009	503.05	22.083
-38.2011	506.673	22.0928
-38.1989	500.0199	22.1025
-38.199	499.272	22.1123
-38.1976	498.841	22.12207
-38.1971	501.697	22.1318
-38.1952	503.544	22.1416
-38.1959	502.373	22.1514
-38.1938	502.999	22.1611
-38.1947	501.6485	22.1709
-38.1935	498.87	22.1807
-38.192	498.337	22.19043
-38.1911	499.372	22.2002
-38.1907	503.9035	22.21
-38.1893	502.621	22.2197
-38.1898	501.105	22.2295
-38.1888	498.532	22.2393
-38.1875	498.6	22.249
-38.1866	500.821	22.2588
-38.1862	499.1521	22.2686
-38.1852	503.975	22.27832
-38.1841	503.398	22.2881
-38.1822	501.127	22.2979
-38.1822	496.714	22.3076
-38.182	495.244	22.3174
-38.1797	502.151	22.3271
-38.18066	504.107	22.3369
-38.1801	505.33	22.34668
-38.1787	500.612	22.3564
-38.17712	496.927	22.3662
-38.1763	499.097	22.376
-38.1759	497.912	22.3857
-38.175	502.6207	22.3955
-38.1747	504.945	22.4053
-38.174	501.87	22.415
-38.1723	500.321	22.4248
-38.1717	494.036	22.43457
-38.1708	498.2084	22.4443
-38.16975	504.871	22.4541
-38.169	504.522	22.4639
-38.1683	503.046	22.4736
-38.168	497.915	22.4834
-38.1672	497.197	22.4932
-38.1669	496.851	22.50293
-38.1666	501.252	22.5127
-38.1638	503.556	22.5225
-38.1635	504.1142	22.5322
-38.1623	501.339	22.542
-38.162	495.965	22.5518
-38.1611	496.654	22.5615
-38.1609	503.071	22.5713
-38.1598	503.737	22.5811
-38.1574	502.223	22.59082
-38.1579	498.319	22.6006
-38.1586	499.29	22.6104
-38.1574	497.679	22.6201
-38.1557	498.656	22.6299
-38.1554	500.02	22.6396
-38.1541	504.476	22.6494
-38.1524	504.337	22.65918
-38.1529	497.229	22.6689
-38.1511	498.459	22.6787
-38.1503	498.048	22.6885
-38.1506	502.748	22.6982
-38.1489	503.015	22.708
-38.1475	500.364	22.7178
-38.1475	501.769	22.7275
-38.1468	499.279	22.7373
-38.1457	497.294	22.74707
-38.1449	499.262	22.7568
-38.145	499.914	22.7666
-38.1431	505.465	22.7764
-38.1434	501.553	22.7861
-38.1421	499.594	22.7959
-38.1406	497.068	22.8057
-38.1397	497.939	22.81543
-38.1389	501.3	22.8252
-38.1389	499.564	22.835
-38.1388	503.938	22.8447
-38.13736	501.807	22.8545
-38.1352	497.396	22.8643
-38.1362	496.922	22.874
-38.1351	495.393	22.8838
-38.1342	501.205	22.8936
-38.1327	504.498	22.90332
-38.1312	503.274	22.9131
-38.1315	497.618	22.9229
-38.1304	496.955	22.9326
-38.1281	499.236	22.9424
-38.12991	499.085	22.9521
-38.1274	503.588	22.9619
-38.1275	503.712	22.97168
-38.1264	501.888	22.9814
-38.1248	497.034	22.9912
-38.1258	495.247	23.001
-38.1237	499.453	23.0107
-38.1237	503.328	23.0205
-38.12347	505.716	23.0303
-38.1226	499.894	23.04
-38.12014	496.668	23.0498
-38.1212	497.784	23.05957
-38.11982	496.712	23.0693
-38.1178	502.496	23.0791
-38.1177	502.575	23.0889
-38.11731	503.4668	23.0986
-38.1154	498.74	23.1084
-38.1151	493.558	23.1182
-38.1135	497.175	23.12793
-38.1128	501.701	23.1377
-38.1125	501.728	23.1475
-38.1117	502.633	23.1572
-38.1114	496.728	23.167
-38.1106	498.213	23.1768
-38.1096	496.518	23.1865
-38.1086	497.56	23.1963
-38.1084	501.797	23.2061
-38.1073	502.6918	23.21582
-38.10643	501.828	23.2256
-38.1046	495.453	23.2354
-38.1048	495.951	23.2451
-38.1038	498.797	23.2549
-38.1018	502.639	23.2646
-38.1021	502.474	23.2744
-38.1005	501.087	23.28418
-38.1003	499.5325	23.2939
-38.09914	498.332	23.3037
-38.0987	496.657	23.3135
-38.0979	497.968	23.3232
-38.0972	500.438	23.333
-38.097	502.93	23.3428
-38.0964	498.116	23.3525
-38.0954	499.001	23.3623
-38.0942	496.512	23.37207
-38.0927	498.164	23.3818
-38.0924	502.589	23.3916
-38.0926	499.161	23.4014
-38.0897	502.128	23.4111
-38.0891	500.375	23.4209
-38.089	497.405	23.4307
-38.0883	496.38	23.44043
-38.0865	496.75	23.4502
-38.0868	504.46	23.46
-38.08606	501.67	23.4697
-38.0847	498.8222	23.4795
-38.083	496.52	23.4893
-38.0836	495.16	23.499
-38.0827	499.831	23.5088
-38.08255	498.46	23.5186
-38.0812	502.3912	23.52832
-38.07967	501.985	23.5381
-38.0792	498.063	23.5479
-38.0782	495.826	23.5576
-38.0778	493.626	23.5674
-38.0774	499.208	23.5771
-38.0756	504.535	23.5869
-38.0754	501.407	23.59668
-38.0742	497.669	23.6064
-38.0739	494.661	23.6162
-38.07246	496.935	23.626
-38.0722	496.199	23.6357
-38.0706	501.332	23.6455
-38.0705	503.22	23.6553
-38.0699	501.9592	23.665
-38.0685	497.378	23.6748
-38.06686	493.098	23.68457
-38.067	496.801	23.6943
-38.0653	502.27	23.7041
-38.0651	503.569	23.7139
-38.0646	500.531	23.7236
-38.0626	496.189	23.7334
-38.0635	497.821	23.7432
-38.0618	494.668	23.75293
-38.0606	500.371	23.7627
-38.061	500.819	23.7725
-38.0597	503.152	23.7822
-38.058	499.5072	23.792
-38.0578	492.78	23.8018
-38.0572	495.9903	23.8115
-38.0557	498.961	23.8213
-38.0561	502.232	23.8311
-38.0552	502.276	23.84082
-38.0536	497.483	23.8506
-38.0539	496.065	23.8604
-38.05307	495.535	23.8701
-38.05267	497.024	23.8799
-38.0507	499.058	23.8896
-38.05048	499.983	23.8994
-38.0496	501.857	23.90918
-38.0492	496.179	23.9189
-38.0473	496.62	23.9287
-38.0465	496.1709	23.9385
-38.0466	499.502	23.9482
-38.0443	500.8363	23.958
-38.0442	497.658	23.9678
-38.0431	498.673	23.9775
-38.04306	498.232	23.9873
-38.041	496.428	23.99707
-38.0412	495.003	24.0068
-38.0403	498.049	24.0166
-38.039	502.546	24.0264
-38.0379	498.909	24.0361
-38.0381	497.6962	24.0459
-38.0365	494.468	24.0557
-38.0357	498.658	24.06543
-38.0353	498.921	24.0752
-38.0351	498.097	24.085
-38.03373	501.479	24.0947
-38.0326	498.969	24.1045
-38.032	497.523	24.1143
-38.03149	495.748	24.124
-38.0305	493.94	24.1338
-38.0292	500.5285	24.1436
-38.0292	503.2	24.15332
-38.02832	500.903	24.1631
-38.0274	497.034	24.1729
-38.0271	494.378	24.1826
-38.02425	499.468	24.1924
-38.025	496.224	24.2021
-38.0244	502.4678	24.2119
-38.0238	503.73	24.22168
-38.0225	498.36	24.2314
-38.0213	496.312	24.2412
-38.0198	492.174	24.251
-38.0205	497.312	24.2607
-38.0191	502.208	24.2705
-38.0192	501.253	24.2803
-38.0187	499.756	24.29
-38.0159	494.054	24.2998
-38.0165	495.953	24.30957
-38.0148	496.661	24.3193
-38.0134	499.495	24.3291
-38.01292	501.639	24.3389
-38.0123	500.181	24.3486
-38.0116	496.191	24.3584
-38.0117	491.471	24.3682
-38.0106	494.956	24.37793
-38.0091	500.164	24.3877
-38.00806	502.6564	24.3975
-38.0072	500.176	24.4072
-38.0076	495.942	24.417
-38.0055	495.8833	24.4268
-38.0062	495.428	24.4365
-38.0048	498.892	24.4463
-38.0031	498.469	24.4561
-38.0038	501.335	24.46582
-38.003	500.874	24.4756
-38.0011	491.565	24.4854
-38.0009	495.688	24.4951
-38.0001	496.6839	24.5049
-38	498.535	24.5146
-37.9979	501.984	24.5244
-37.9973	495.73	24.53418
-37.9971	496.478	24.5439
-37.9957	496.673	24.5537
-37.995	494.4838	24.5635
-37.9935	497.119	24.5732
-37.9929	498.306	24.583
-37.9924	501.066	24.5928
-37.991	497.313	24.6025
-37.9908	496.157	24.6123
-37.9897	496.374	24.62207
-37.9893	497.808	24.6318
-37.98772	499.04	24.6416
-37.9887	498.3428	24.6514
-37.98613	499.784	24.6611
-37.9858	498.653	24.6709
-37.98513	495.355	24.6807
-37.9836	494.888	24.69043
-37.9831	496.565	24.7002
-37.9824	500.991	24.71
-37.981	501.068	24.7197
-37.98	498.689	24.7295
-37.9795	494.664	24.7393
-37.979	495.007	24.749
-37.9783	496.887	24.7588
-37.9775	496.232	24.7686
-37.976	500.737	24.77832
-37.9755	498.452	24.7881
-37.9752	497.159	24.7979
-37.9737	493.417	24.8076
-37.9739	493.61	24.8174
-37.9726	498.944	24.8271
-37.9715	500.035	24.8369
-37.971	500.602	24.84668
-37.9701	496.166	24.8564
-37.9706	493.52	24.8662
-37.9686	496.213	24.876
-37.96706	494.61	24.8857
-37.9674	501.572	24.8955
-37.9653	501.4187	24.9053
-37.9652	500.026	24.915
-37.9652	496.345	24.9248
-37.96357	490.652	24.93457
-37.96328	495.096	24.9443
-37.9619	501.037	24.9541
-37.9613	500.633	24.9639
-37.9612	498.4321	24.9736
-37.9598	493.772	24.9834
-37.9582	494.508	24.9932
-37.9579	493.274	25.00293
-37.9567	497.144	25.0127
-37.957	499.709	25.0225
-37.9554	499.618	25.0322
-37.9548	498.029	25.042
-37.9541	490.164	25.0518
-37.952	494.051	25.0615
-37.9527	498.922	25.0713
-37.9507	500.754	25.0811
-37.9501	499.451	25.09082
-37.9499	496.381	25.1006
-37.9487	495.709	25.1104
-37.9478	493.167	25.1201
-37.9461	495.122	25.1299
-37.9462	496.468	25.1396
-37.9457	500.4754	25.1494
-37.9447	499.355	25.15918
-37.9445	493.028	25.1689
-37.9434	492.876	25.1787
-37.9422	493.539	25.1885
-37.9426	498.113	25.1982
-37.9405	499.925	25.208
-37.9391	495.633	25.2178
-37.9385	496.436	25.2275
-37.9379	493.988	25.2373
-37.9375	493.531	25.24707
-37.937	493.021	25.2568
-37.9377	492.99	25.2666
-37.9348	502.078	25.2764
-37.935	497.58	25.2861
-37.9332	495.015	25.2959
-37.9309	492.4841	25.3057
-37.9323	494.196	25.31543
-37.9319	497.945	25.3252
-37.9308	495.927	25.335
-37.93	499.38	25.3447
-37.9287	500.338	25.3545
-37.9267	494.784	25.3643
-37.9278	493.313	25.374
-37.926	492.17	25.3838
-37.9256	497.871	25.3936
-37.9244	499.99	25.40332
-37.9247	499.35	25.4131
-37.9219	493.96	25.4229
-37.9213	493.175	25.4326
-37.9212	494.323	25.4424
-37.9203	495.786	25.4521
-37.9199	498.382	25.4619
-37.9189	500.305	25.47168
-37.9183	495.904	25.4814
-37.9174	493.251	25.4912
-37.9156	489.437	25.501
-37.91573	496.705	25.5107
-37.9138	499.49	25.5205
-37.9134	500.034	25.5303
-37.9127	495.11	25.54
-37.9121	491.08	25.5498
-37.9116	493.554	25.55957
-37.9105	490.262	25.5693
-37.9091	498.23	25.5791
-37.9093	498.688	25.5889
-37.9081	498.127	25.5986
-37.9074	494.576	25.6084
-37.9054	488.063	25.6182
-37.9063	493.341	25.62793
-37.9053	498.293	25.6377
-37.90453	498.3082	25.6475
-37.9036	498.315	25.6572
-37.90258	491.979	25.667
-37.9025	492.986	25.6768
-37.9012	492.514	25.6865
-37.8997	494.603	25.6963
-37.8996	496.916	25.7061
-37.8981	498.452	25.71582
-37.8981	498.2543	25.7256
-37.8976	492.414	25.7354
-37.8953	491.745	25.7451
-37.8957	492.659	25.7549
-37.8944	497.553	25.7646
-37.8945	499.525	25.7744
-37.894	494.894	25.78418
-37.8919	494.252	25.7939
-37.89043	493.953	25.8037
-37.8898	493.407	25.8135
-37.8902	493.619	25.8232
-37.8888	495.474	25.833
-37.8885	498.573	25.8428
-37.887	493.892	25.8525
-37.8867	493.497	25.8623
-37.8858	490.044	25.87207
-37.88483	494.625	25.8818
-37.8838	495.839	25.8916
-37.88271	494.94	25.9014
-37.882	495.873	25.9111
-37.8813	495.994	25.9209
-37.8809	493.402	25.9307
-37.87925	490.517	25.94043
-37.8801	490.866	25.9502
-37.8795	499.026	25.96
-37.8781	496.762	25.9697
-37.8771	494.648	25.9795
-37.8766	491.342	25.9893
-37.8749	491.144	25.999
-37.8751	495.0083	26.0088
-37.8733	492.599	26.0186
-37.8719	498.822	26.02832
-37.8714	498.224	26.0381
-37.8701	492.275	26.0479
-37.8698	490.819	26.0576
-37.8693	488.635	26.0674
-37.8673	495.569	26.0771
-37.868	499.142	26.0869
-37.8668	496.5744	26.09668
-37.8667	493.82	26.1064
-37.8652	490.253	26.1162
-37.8644	491.269	26.126
-37.86377	492.255	26.1357
-37.8639	497.105	26.1455
-37.8617	497.022	26.1553
-37.8612	496.153	26.165
-37.8608	491.798	26.1748
-37.8608	488.058	26.18457
-37.8593	492.915	26.1943
-37.8579	496.896	26.2041
-37.857	498.9762	26.2139
-37.8566	493.664	26.2236
-37.85519	490.399	26.2334
-37.8545	492.737	26.2432
-37.8542	491.642	26.25293
-37.8529	494.842	26.2627
-37.8525	495.218	26.2725
-37.851	497.298	26.2822
-37.85006	495.068	26.292
-37.8492	487.398	26.3018
-37.848	491.071	26.3115
-37.8488	493.933	26.3213
-37.8471	496.827	26.3311
-37.8457	498.204	26.34082
-37.8455	491.8027	26.3506
-37.8434	493.024	26.3604
-37.8443	492.95	26.3701
-37.8428	491.156	26.3799
-37.842	495.8	26.3896
-37.8429	495.231	26.3994
-37.8401	498.082	26.40918
-37.8395	491.39	26.4189
-37.8395	490.008	26.4287
-37.83852	492.003	26.4385
-37.8377	492.524	26.4482
-37.8357	495.465	26.458
-37.8367	493.588	26.4678
-37.8354	491.586	26.4775
-37.8348	491.108	26.4873
-37.8328	490.61	26.49707
-37.8332	490.762	26.5068
-37.8325	491.599	26.5166
-37.8303	497.695	26.5264
-37.831	495.152	26.5361
-37.8293	491.992	26.5459
-37.8288	487.2	26.5557
-37.8271	490.7439	26.56543
-37.8269	493.043	26.5752
-37.8258	491.742	26.585
-37.8256	495.547	26.5947
-37.8247	492.7363	26.6045
-37.8247	491.466	26.6143
-37.8225	488.864	26.624
-37.8222	488.506	26.6338
-37.8208	495.572	26.6436
-37.8206	496.109	26.65332
-37.8198	494.474	26.6631
-37.8186	491.121	26.6729
-37.8173	488.242	26.6826
-37.8174	491.172	26.6924
-37.8171	489.585	26.7021
-37.8149	495.984	26.7119
-37.8154	495.3121	26.72168
-37.8133	492.22	26.7314
-37.81324	489.603	26.7412
-37.8122	485.284	26.751
-37.81263	491.7641	26.7607
-37.8104	496.25	26.7705
-37.81	495.599	26.7803
-37.8091	491.982	26.79
-37.8083	487.8895	26.7998
-37.8072	489.878	26.80957
-37.8065	489.059	26.8193
-37.8058	491.914	26.8291
-37.8054	495.002	26.8389
-37.8038	494.342	26.8486
-37.80402	491.279	26.8584
-37.8024	485.244	26.8682
-37.8023	488.855	26.87793
-37.8012	492.627	26.8877
-37.7999	496.219	26.8975
-37.79937	492.039	26.9072
-37.798	488.054	26.917
-37.79755	487.009	26.9268
-37.7967	487.959	26.9365
-37.7964	488.364	26.9463
-37.79528	491.177	26.9561
-37.79467	492.295	26.96582
-37.7932	492.245	26.9756
-37.794	485.914	26.9854
-37.79166	486.693	26.9951
-37.7909	488.269	27.0049
-37.7912	492.926	27.0146
-37.7899	494.286	27.0244
-37.7877	488.436	27.03418
-37.7874	488.941	27.0439
-37.78751	488.026	27.0537
-37.7864	486.709	27.0635
-37.786	489.15	27.0732
-37.78381	489.757	27.083
-37.784	494.369	27.0928
-37.7831	489.639	27.1025
-37.7822	486.806	27.1123
-37.7823	487.062	27.12207
-37.7803	487.587	27.1318
-37.77903	492.094	27.1416
-37.77969	489.333	27.1514
-37.7783	490.599	27.1611
-37.77652	489.03	27.1709
-37.7761	486.823	27.1807
-37.775	485.489	27.19043
-37.7745	486.648	27.2002
-37.7742	491.829	27.21
-37.7725	492.684	27.2197
-37.7715	488.813	27.2295
-37.7717	484.183	27.2393
-37.7716	483.895	27.249
-37.7703	486.649	27.2588
-37.7689	487.033	27.2686
-37.7693	490.57	27.27832
-37.7668	489.837	27.2881
-37.7676	486.949	27.2979
-37.766	481.283	27.3076
-37.7645	480.232	27.3174
-37.76437	484.64	27.3271
-37.7633	489.959	27.3369
-37.7622	489.253	27.34668
-37.7623	483.585	27.3564
-37.7612	479.49	27.3662
-37.7607	483.521	27.376
-37.7588	482.055	27.3857
-37.759	486.419	27.3955
-37.7569	488.445	27.4053
-37.7572	485.851	27.415
-37.7562	481.086	27.4248
-37.7564	475.898	27.43457
-37.7542	478.606	27.4443
-37.7542	484.7	27.4541
-37.7532	484.901	27.4639
-37.7519	481.769	27.4736
-37.75071	474.8298	27.4834
-37.7512	475.3	27.4932
-37.7495	475.348	27.50293
-37.7492	476.544	27.5127
-37.7473	475.568	27.5225
-37.7469	473.147	27.5322
-37.7476	468.78	27.542
-37.7412	-65.7944	27.5518
-37.742	-39.0118	27.5615
-37.74102	-19.1919	27.5713
-37.7407	-41.4204	27.5811
-37.7407	-41.2578	27.59082
-37.7406	-47.6715	27.6006
-37.7388	-39.60004	27.6104
-37.739	-42.5002	27.6201
-37.7376	-43.1832	27.6299
-37.73737	-41.3098	27.6396
-37.737	-39.84037	27.6494
-37.7352	-37.0846	27.65918
-37.7346	-43.4525	27.6689
-37.7349	-43.9906	27.6787
-37.7338	-45.4832	27.6885
-37.7328	-40.6232	27.6982
-37.73193	-38.8342	27.708
-37.7316	-43.1198	27.7178
-37.7303	-40.9856	27.7275
-37.7292	-42.835	27.7373
-37.7288	-45.11829	27.74707
-37.7274	-43.1857	27.7568
-37.7272	-43.3959	27.7666
-37.7264	-36.1936	27.7764
-37.7258	-40.4327	27.7861
-37.7257	-41.9408	27.7959
-37.7232	-45.27187	27.8057
-37.7235	-44.7573	27.81543
-37.7216	-39.6425	27.8252
-37.7215	-42.002	27.835
-37.7212	-38.2496	27.8447
-37.7189	-40.1646	27.8545
-37.7197	-43.8124	27.8643
-37.7176	-45.5321	27.874
-37.7186	-45.9747	27.8838
-37.7169	-40.5681	27.8936
-37.7152	-36.2769	27.90332
-37.7152	-39.0528	27.9131
-37.714	-42.59396	27.9229
-37.7135	-46.2885	27.9326
-37.713	-43.3224	27.9424
-37.7122	-42.8657	27.9521
-37.71064	-38.849	27.9619
-37.7113	-39.0658	27.97168
-37.7097	-41.4289	27.9814
-37.7092	-44.2383	27.9912
-37.70837	-47.9472	28.001
-37.70718	-41.7061	28.0107
-37.7062	-37.6357	28.0205
-37.706	-37.4665	28.0303
-37.7048	-41.7518	28.04
-37.7031	-45.97192	28.0498
-37.7035	-45.2436	28.05957
-37.70237	-45.4681	28.0693
-37.7007	-40.0439	28.0791
-37.7007	-39.4751	28.0889
-37.6996	-41.1418	28.0986
-37.6988	-42.4009	28.1084
-37.6978	-48.77552	28.1182
-37.6971	-44.532	28.12793
-37.6963	-40.7334	28.1377
-37.6959	-39.0772	28.1475
-37.6953	-39.18182	28.1572
-37.6936	-44.1575	28.167
-37.6932	-44.9793	28.1768
-37.6922	-43.4143	28.1865
-37.6913	-42.7297	28.1963
-37.6904	-40.4781	28.2061
-37.6892	-41.2971	28.21582
-37.689	-38.6807	28.2256
-37.6896	-45.8068	28.2354
-37.68726	-47.0231	28.2451
-37.6867	-43.3919	28.2549
-37.6861	-41.93821	28.2646
-37.6846	-39.4161	28.2744
-37.6855	-42.6176	28.28418
-37.6829	-42.73703	28.2939
-37.6833	-41.7107	28.3037
-37.6818	-44.1986	28.3135
-37.6811	-42.9886	28.3232
-37.6799	-42.5158	28.333
-37.6804	-37.8774	28.3428
-37.6787	-42.108	28.3525
-37.6785	-42.7774	28.3623
-37.6767	-46.1294	28.37207
-37.6764	-44.2288	28.3818
-37.6754	-40.0138	28.3916
-37.6746	-41.5147	28.4014
-37.6737	-39.4939	28.4111
-37.6733	-42.5698	28.4209
-37.6721	-44.1683	28.4307
-37.6713	-43.8419	28.44043
-37.6703	-45.20417	28.4502
-37.6695	-38.3478	28.46
-37.66832	-38.9351	28.4697
-37.6684	-41.2897	28.4795
-37.6683	-44.8883	28.4893
-37.667	-47.6889	28.499
-37.6647	-42.5607	28.5088
-37.6641	-42.4912	28.5186
-37.665	-39.4795	28.52832
-37.6622	-39.7596	28.5381
-37.6624	-42.55	28.5479
-37.6609	-44.9933	28.5576
-37.6605	-47.243	28.5674
-37.6598	-41.7295	28.5771
-37.6587	-37.2104	28.5869
-37.6585	-40.3744	28.59668
-37.6573	-42.4347	28.6064
-37.6552	-46.5555	28.6162
-37.6565	-44.6648	28.626
-37.6555	-43.4195	28.6357
-37.6542	-39.7057	28.6455
-37.653	-38.5427	28.6553
-37.6524	-41.0406	28.665
-37.652	-44.4911	28.6748
-37.651	-47.4936	28.68457
-37.6508	-45.1273	28.6943
-37.6483	-39.0494	28.7041
-37.6475	-37.6137	28.7139
-37.647	-40.0595	28.7236
-37.6471	-46.3319	28.7334
-37.6459	-44.5026	28.7432
-37.64539	-43.6946	28.75293
-37.6442	-41.0984	28.7627
-37.6442	-40.277	28.7725
-37.643	-39.8515	28.7822
-37.64217	-40.3144	28.792
-37.6412	-47.7931	28.8018
-37.6392	-44.635	28.8115
-37.6394	-43.0644	28.8213
-37.6389	-39.0953	28.8311
-37.638	-37.1381	28.84082
-37.63728	-43.8628	28.8506
-37.6356	-43.2016	28.8604
-37.6359	-43.4395	28.8701
-37.6343	-43.9807	28.8799
-37.6331	-41.1777	28.8896
-37.6328	-41.6203	28.8994
-37.6315	-38.2559	28.90918
-37.6315	-42.2554	28.9189
-37.6313	-44.6274	28.9287
-37.6305	-43.3787	28.9385
-37.6287	-42.251	28.9482
-37.6284	-39.0167	28.958
-37.6272	-42.1364	28.9678
-37.6252	-41.9079	28.9775
-37.6262	-42.0253	28.9873
-37.6256	-44.7595	28.99707
-37.624	-45.1704	29.0068
-37.6228	-41.3046	29.0166
-37.6221	-38.7461	29.0264
-37.6208	-38.621	29.0361
-37.6209	-42.8547	29.0459
-37.6209	-46.3477	29.0557
-37.6192	-44.6311	29.06543
-37.6178	-42.3454	29.0752
-37.6175	-41.0273	29.085
-37.617	-38.7066	29.0947
-37.61591	-41.9851	29.1045
-37.6152	-42.2417	29.1143
-37.6138	-46.1346	29.124
-37.6135	-46.1145	29.1338
-37.613	-41.4065	29.1436
-37.612	-38.189	29.15332
-37.6109	-39.6908	29.1631
-37.61	-43.1645	29.1729
-37.60936	-49.0276	29.1826
-37.6084	-42.4787	29.1924
-37.6073	-42.72052	29.2021
-37.6079	-37.9931	29.2119
-37.6058	-39.5714	29.22168
-37.6056	-43.0496	29.2314
-37.6043	-44.0615	29.2412
-37.6044	-48.8569	29.251
-37.6037	-42.7636	29.2607
-37.6014	-36.8354	29.2705
-37.601	-38.1239	29.2803
-37.6009	-40.51614	29.29
-37.6008	-47.8946	29.2998
-37.5986	-45.4365	29.30957
-37.5977	-43.2679	29.3193
-37.5972	-41.09103	29.3291
-37.5968	-38.1153	29.3389
-37.5944	-41.12714	29.3486
-37.5945	-42.0589	29.3584
-37.5934	-48.5549	29.3682
-37.593	-45.0441	29.37793
-37.5925	-41.4835	29.3877
-37.5919	-37.7446	29.3975
-37.5909	-40.27454	29.4072
-37.5896	-45.26115	29.417
-37.58987	-45.7051	29.4268
-37.5877	-44.811	29.4365
-37.58757	-42.3661	29.4463
-37.5864	-41.3002	29.4561
-37.5855	-39.9361	29.46582
-37.58477	-40.19392	29.4756
-37.5837	-45.8843	29.4854
-37.58379	-43.4173	29.4951
-37.5832	-44.8762	29.5049
-37.5813	-40.9976	29.5146
-37.58046	-36.8729	29.5244
-37.57954	-42.8353	29.53418
-37.5798	-42.7529	29.5439
-37.5786	-43.0025	29.5537
-37.5774	-43.6442	29.5635
-37.5775	-41.8454	29.5732
-37.5757	-43.0854	29.583
-37.5752	-36.4669	29.5928
-37.5741	-41.7292	29.6025
-37.5742	-43.9473	29.6123
-37.5728	-44.9575	29.62207
-37.57209	-43.8062	29.6318
-37.5711	-39.5982	29.6416
-37.5699	-41.0329	29.6514
-37.5698	-39.57888	29.6611
-37.5683	-41.3179	29.6709
-37.5675	-44.2591	29.6807
-37.5675	-45.45932	29.69043
-37.5668	-44.8702	29.7002
-37.5656	-40.0664	29.71
-37.566	-36.8712	29.7197
-37.5636	-40.7253	29.7295
-37.5629	-44.5515	29.7393
-37.562	-46.2242	29.749
-37.5612	-43.5864	29.7588