File: data/processed_data_files/tensile/0.254_solid_uprint_typeiv_4545_r(3).dat
MTS793|BTW|ENU|1|2|.|/|:|1|0|0|A

Data Header:			0.254_solid_uprint_typeiv_4545_r0			Time:	20.0176	s	4/13/2019 6:50:46 PM
Data Acquisition:	Timed
Station Name:	ft40.cfg
Test File Name:	Type IV_Monotonic.tst
Displacement	Force	Running Time
mm	N	s
-40.046	-48.10844	0.0224609
-40.0451	-44.0835	0.0419922
-40.0466	-43.9944	0.0615234
-40.04657	-48.2198	0.0810547
-40.0458	-49.1246	0.100586
-40.0433	-39.6001	0.120117
-40.0421	-45.0089	0.139648
-40.0414	-44.0147	0.15918
-40.0395	-39.62962	0.178711
-40.0383	-39.3393	0.198242
-40.0356	-45.9341	0.217773
-40.034	-37.52121	0.237305
-40.0324	-34.1402	0.256836
-40.03096	-38.8878	0.276367
-40.0287	-33.9556	0.295898
-40.02668	-33.9752	0.31543
-40.0268	-35.4892	0.334961
-40.0244	-32.1207	0.354492
-40.0218	-24.9437	0.374023
-40.0219	-30.2551	0.393555
-40.0203	-29.1578	0.413086
-40.0171	-26.8541	0.432617
-40.0178	-25.8093	0.452148
-40.015	-29.1608	0.47168
-40.0129	-20.8801	0.491211
-40.0113	-22.22101	0.510742
-40.0115	-25.0039	0.530273
-40.0087	-22.4548	0.549805
-40.00679	-17.361	0.569336
-40.0047	-23.4439	0.588867
-40.0024	-15.9352	0.608398
-40.0013	-13.13493	0.62793
-40.0006	-18.1948	0.647461
-39.9989	-19.2712	0.666992
-39.9965	-9.60915	0.686523
-39.9945	-14.3916	0.706055
-39.9931	-12.0824	0.725586
-39.99184	-9.64758	0.745117
-39.9906	-10.6936	0.764648
-39.9876	-14.2491	0.78418
-39.9873	-4.14309	0.803711
-39.9862	-7.08525	0.823242
-39.9828	-8.86409	0.842773
-39.982	-3.23335	0.862305
-39.981	-2.08265	0.881836
-39.9778	-8.0308	0.901367
-39.9773	-2.27778	0.920898
-39.9745	3.25613	0.94043
-39.9738	-1.25782	0.959961
-39.9725	2.23535	0.979492
-39.97081	2.35261	0.999023
-39.9693	1.61315	1.01855
-39.9679	2.85466	1.03809
-39.9656	10.6564	1.05762
-39.9639	5.64602	1.07715
-39.9637	5.60741	1.09668
-39.9611	9.760993	1.11621
-39.9595	12.1964	1.13574
-39.9575	7.82334	1.15527
-39.9565	15.97578	1.1748
-39.9535	16.4166	1.19434
-39.9524	12.3118	1.21387
-39.9515	12.7131	1.2334
-39.9489	21.1791	1.25293
-39.9471	14.3466	1.27246
-39.9465	18.525	1.29199
-39.9452	23.4478	1.31152
-39.9426	19.2487	1.33105
-39.9421	15.8665	1.35059
-39.9395	26.1743	1.37012
-39.9378	22.7902	1.38965
-39.9361	23.90831	1.40918
-39.9353	28.6536	1.42871
-39.9328	26.0732	1.44824
-39.9337	21.15383	1.46777
-39.9312	31.4049	1.4873
-39.9279	32.7425	1.50684
-39.92728	26.63925	1.52637
-39.9244	32.4724	1.5459
-39.9229	33.0744	1.56543
-39.9205	30.4765	1.58496
-39.9204	33.9805	1.60449
-39.9177	40.391	1.62402
-39.9168	36.338	1.64355
-39.916	37.4091	1.66309
-39.9133	40.1221	1.68262
-39.9121	40.0981	1.70215
-39.9107	36.6327	1.72168
-39.908	46.7853	1.74121
-39.9057	45.4912	1.76074
-39.906	42.4641	1.78027
-39.9042	43.1188	1.7998
-39.9023	51.4634	1.81934
-39.90041	44.3428	1.83887
-39.8984	51.03854	1.8584
-39.898	52.7581	1.87793
-39.89669	48.5531	1.89746
-39.89328	47.9031	1.91699
-39.8928	57.4694	1.93652
-39.8905	51.6146	1.95605
-39.8879	51.7266	1.97559
-39.8879	59.2084	1.99512
-39.8857	56.2854	2.01465
-39.883	52.3699	2.03418
-39.8837	60.3457	2.05371
-39.8803	60.8212	2.07324
-39.8795	58.6559	2.09277
-39.879	63.8274	2.1123
-39.8763	62.2031	2.13184
-39.875	58.7076	2.15137
-39.8726	66.2543	2.1709
-39.8702	71.1543	2.19043
-39.8688	64.8614	2.20996
-39.8678	68.3625	2.22949
-39.8657	71.3032	2.24902
-39.8648	67.4736	2.26855
-39.8632	70.0911	2.28809
-39.8607	75.3406	2.30762
-39.8598	73.7528	2.32715
-39.8578	72.9512	2.34668
-39.85709	74.183	2.36621
-39.8558	76.7834	2.38574
-39.8529	72.7646	2.40527
-39.8514	81.0231	2.4248
-39.85041	83.4958	2.44434
-39.849	80.1323	2.46387
-39.8475	76.9495	2.4834
-39.8453	86.7437	2.50293
-39.844	80.8727	2.52246
-39.84304	84.3778	2.54199
-39.8402	89.108	2.56152
-39.8384	85.71096	2.58105
-39.8371	82.0847	2.60059
-39.8355	93.7694	2.62012
-39.8339	89.685	2.63965
-39.8313	88.5942	2.65918
-39.83112	94.1059	2.67871
-39.829	94.6656	2.69824
-39.8275	88.324	2.71777
-39.8257	96.0386	2.7373
-39.8244	98.5024	2.75684
-39.823	93.5014	2.77637
-39.8196	99.2817	2.7959
-39.8195	100.293	2.81543
-39.81702	95.76133	2.83496
-39.8161	100.236	2.85449
-39.8139	106.832	2.87402
-39.813	102.959	2.89355
-39.81081	103.112	2.91309
-39.8099	105.177	2.93262
-39.8067	104.405	2.95215
-39.8054	103.011	2.97168
-39.8038	112.2025	2.99121
-39.80283	109.329	3.01074
-39.80138	105.999	3.03027
-39.7995	109.479	3.0498
-39.7978	114.707	3.06934
-39.7959	110.81	3.08887
-39.7932	115.915	3.1084
-39.79269	118.865	3.12793
-39.7919	115.381	3.14746
-39.7897	112.748	3.16699
-39.7881	121.418	3.18652
-39.7859	117.8911	3.20605
-39.7861	119.03	3.22559
-39.7849	125.757	3.24512
-39.782	120.679	3.26465
-39.78038	116.919	3.28418
-39.7775	126.932	3.30371
-39.776	127.438	3.32324
-39.7754	123.6987	3.34277
-39.7742	129.243	3.3623
-39.7718	129.342	3.38184
-39.7701	125.76	3.40137
-39.7689	131.542	3.4209
-39.7674	132.81	3.44043
-39.7654	129.094	3.45996
-39.7632	133.958	3.47949
-39.7613	136.462	3.49902
-39.7593	131.885	3.51855
-39.7594	133.69	3.53809
-39.7571	142.498	3.55762
-39.7557	138.4505	3.57715
-39.7539	136.564	3.59668
-39.7518	138.936	3.61621
-39.7505	142.871	3.63574
-39.7495	139.509	3.65527
-39.74881	145.151	3.6748
-39.7456	146.304	3.69434
-39.7448	143.381	3.71387
-39.7432	144.9196	3.7334
-39.7407	152.385	3.75293
-39.7396	146.262	3.77246
-39.7371	149.424	3.79199
-39.7356	154.079	3.81152
-39.7354	149.569	3.83105
-39.7336	147.396	3.85059
-39.73122	158.109	3.87012
-39.7295	153.72	3.88965
-39.7279	152.074	3.90918
-39.7271	158.911	3.92871
-39.7249	157.424	3.94824
-39.7233	151.386	3.96777
-39.7217	160.901	3.9873
-39.7191	162.32	4.00684
-39.71735	157.8029	4.02637
-39.7173	162.688	4.0459
-39.714	164.844	4.06543
-39.7135	160.364	4.08496
-39.7113	164.439	4.10449
-39.7104	168.662	4.12402
-39.7092	165.155	4.14355
-39.7081	167.156	4.16309
-39.70414	170.05	4.18262
-39.7045	170.575	4.20215
-39.70224	167.588	4.22168
-39.7007	175.065	4.24121
-39.69854	172.388	4.26074
-39.6975	171.628	4.28027
-39.6963	173.526	4.2998
-39.69416	178.03	4.31934
-39.69244	172.299	4.33887
-39.6901	179.355	4.3584
-39.68932	182.578	4.37793
-39.6875	176.353	4.39746
-39.6862	175.475	4.41699
-39.6844	186.473	4.43652
-39.6822	180.875	4.45605
-39.68021	181.484	4.47559
-39.679	188.335	4.49512
-39.6767	184.501	4.51465
-39.6763	180.268	4.53418
-39.6744	190.257	4.55371
-39.6734	188.33	4.57324
-39.6722	185.258	4.59277
-39.6697	194.313	4.6123
-39.6676	191.8157	4.63184
-39.6664	186.497	4.65137
-39.6641	193.732	4.6709
-39.6628	196.835	4.69043
-39.6621	193.204	4.70996
-39.6601	196.396	4.72949
-39.6592	198.022	4.74902
-39.6555	194.606	4.76855
-39.6555	197.009	4.78809
-39.6529	204.737	4.80762
-39.6524	201.361	4.82715
-39.65041	199.756	4.84668
-39.6481	202.693	4.86621
-39.6466	205.651	4.88574
-39.6447	200.96	4.90527
-39.6434	207.852	4.9248
-39.6418	209.406	4.94434
-39.6409	205.799	4.96387
-39.6377	207.1026	4.9834
-39.6373	213.41	5.00293
-39.6347	208.239	5.02246
-39.6328	212.008	5.04199
-39.6337	216.215	5.06152
-39.6299	212.384	5.08105
-39.6288	207.991	5.10059
-39.6264	219.722	5.12012
-39.6273	214.8996	5.13965
-39.6241	214.495	5.15918
-39.622	220.914	5.17871
-39.6205	218.959	5.19824
-39.6193	211.954	5.21777
-39.6182	222.345	5.2373
-39.61586	224.57	5.25684
-39.6142	218.33	5.27637
-39.6135	223.976	5.2959
-39.6107	225.892	5.31543
-39.6088	221.3481	5.33496
-39.6077	224.964	5.35449
-39.6071	230.712	5.37402
-39.605	227.2429	5.39355
-39.6027	229.643	5.41309
-39.6005	232.168	5.43262
-39.6	230.95	5.45215
-39.5983	228.852	5.47168
-39.5961	237.084	5.49121
-39.5946	236.834	5.51074
-39.59388	233.009	5.53027
-39.5921	234.42	5.5498
-39.59	240.737	5.56934
-39.5882	234.526	5.58887
-39.58622	239.7825	5.6084
-39.5847	242.578	5.62793
-39.5838	238.56	5.64746
-39.5818	237.928	5.66699
-39.5803	247.6424	5.68652
-39.579	242.678	5.70605
-39.577	243.757	5.72559
-39.5756	250.403	5.74512
-39.57457	247.657	5.76465
-39.5707	241.902	5.78418
-39.5689	251.862	5.80371
-39.56847	250.909	5.82324
-39.56657	249.026	5.84277
-39.5661	254.127	5.8623
-39.5645	252.528	5.88184
-39.5622	245.623	5.90137
-39.5607	255.119	5.9209
-39.55888	258.133	5.94043
-39.5571	252.358	5.95996
-39.55505	256.544	5.97949
-39.5538	259.132	5.99902
-39.5523	255.379	6.01855
-39.551	257.401	6.03809
-39.5502	264.148	6.05762
-39.548	261.74	6.07715
-39.5469	262.923	6.09668
-39.5442	263.882	6.11621
-39.54282	265.513	6.13574
-39.5409	261.27	6.15527
-39.5389	269.9393	6.1748
-39.5377	271.205	6.19434
-39.5365	266.913	6.21387
-39.5345	265.223	6.2334
-39.5324	273.256	6.25293
-39.5317	268.047	6.27246
-39.5304	273.484	6.29199
-39.5282	276.952	6.31152
-39.5265	272.611	6.33105
-39.5257	270.393	6.35059
-39.523	281.51	6.37012
-39.5217	277.065	6.38965
-39.5204	275.34	6.40918
-39.5174	281.983	6.42871
-39.5176	281.21	6.44824
-39.5148	274.034	6.46777
-39.5138	283.555	6.4873
-39.5113	284.18	6.50684
-39.5096	280.764	6.52637
-39.5072	286.274	6.5459
-39.5064	286.3761	6.56543
-39.50499	280.435	6.58496
-39.5039	286.202	6.60449
-39.5008	292.0076	6.62402
-39.50069	288.239	6.64355
-39.49884	287.4122	6.66309
-39.4971	290.142	6.68262
-39.496	291.195	6.70215
-39.494	290.577	6.72168
-39.4929	296.216	6.74121
-39.4908	294.254	6.76074
-39.4891	293.283	6.78027
-39.4881	294.465	6.7998
-39.4856	299.722	6.81934
-39.4844	293.071	6.83887
-39.4826	299.072	6.8584
-39.4806	302.624	6.87793
-39.478	298.9129	6.89746
-39.4774	297.179	6.91699
-39.476	306.74	6.93652
-39.4741	301.301	6.95605
-39.473	303.864	6.97559
-39.4704	308.557	6.99512
-39.4695	304.5174	7.01465
-39.46698	299.625	7.03418
-39.465	311.4071	7.05371
-39.4646	308.609	7.07324
-39.46365	306.543	7.09277
-39.4617	311.804	7.1123
-39.4592	312.301	7.13184
-39.4576	308.062	7.15137
-39.4561	314.069	7.1709
-39.4548	317.346	7.19043
-39.4528	312.793	7.20996
-39.4513	316.654	7.22949
-39.4494	317.352	7.24902
-39.4491	314.896	7.26855
-39.44738	314.975	7.28809
-39.44455	323.694	7.30762
-39.443	320.3783	7.32715
-39.4419	321.846	7.34668
-39.4405	321.54	7.36621
-39.4384	324.5264	7.38574
-39.4377	319.711	7.40527
-39.4357	328.408	7.4248
-39.4336	328.149	7.44434
-39.4332	323.9335	7.46387
-39.4303	325.331	7.4834
-39.4285	333.177	7.50293
-39.4274	326.198	7.52246
-39.4265	329.415	7.54199
-39.4241	335.831	7.56152
-39.4223	332.47	7.58105
-39.4202	326.251	7.60059
-39.4196	339.018	7.62012
-39.4177	334.933	7.63965
-39.4161	333.048	7.65918
-39.41444	340.24	7.67871
-39.41317	337.1239	7.69824
-39.4117	330.662	7.71777
-39.4098	342.0657	7.7373
-39.4079	342.915	7.75684
-39.4058	338.853	7.77637
-39.4046	342.867	7.7959
-39.4039	343.4429	7.81543
-39.4007	338.9357	7.83496
-39.3999	343.716	7.85449
-39.3981	349.426	7.87402
-39.397	344.566	7.89355
-39.3943	344.489	7.91309
-39.3943	349.249	7.93262
-39.3899	346.3598	7.95215
-39.38974	345.001	7.97168
-39.3887	354.218	7.99121
-39.3872	351.909	8.01074
-39.3853	349.575	8.03027
-39.3845	351.514	8.0498
-39.38203	356.359	8.06934
-39.3802	349.989	8.08887
-39.3791	357.077	8.1084
-39.37727	360.343	8.12793
-39.3756	353.714	8.14746
-39.3735	354.364	8.16699
-39.3717	364.333	8.18652
-39.3695	357.3793	8.20605
-39.36834	359.1	8.22559
-39.3667	363.949	8.24512
-39.3665	361.934	8.26465
-39.3646	358.23	8.28418
-39.3631	368.624	8.30371
-39.3609	364.172	8.32324
-39.3588	362.38	8.34277
-39.3573	370.205	8.3623
-39.35606	370.165	8.38184
-39.3542	361.198	8.40137
-39.3521	368.5369	8.4209
-39.3508	371.961	8.44043
-39.3486	368.68	8.45996
-39.3473	371.0155	8.47949
-39.3457	373.814	8.49902
-39.3448	368.456	8.51855
-39.3431	371.063	8.53809
-39.3402	379.427	8.55762
-39.3398	374.292	8.57715
-39.3376	373.775	8.59668
-39.3354	376.9133	8.61621
-39.3332	378.84	8.63574
-39.333	374.965	8.65527
-39.3313	382.775	8.6748
-39.3287	383.566	8.69434
-39.32798	379.398	8.71387
-39.3259	380.446	8.7334
-39.325	387.165	8.75293
-39.3227	381.121	8.77246
-39.3217	384.845	8.79199
-39.3193	390.412	8.81152
-39.3182	386.356	8.83105
-39.3162	381.191	8.85059
-39.3146	394.314	8.87012
-39.3138	388.523	8.88965
-39.3128	387.777	8.90918
-39.3084	392.673	8.92871
-39.3076	394.045	8.94824
-39.3064	386.102	8.96777
-39.3059	397.889	8.9873
-39.3036	396.077	9.00684
-39.3022	391.069	9.02637
-39.3004	397.311	9.0459
-39.29858	399.065	9.06543
-39.2974	392.944	9.08496
-39.2956	397.822	9.10449
-39.2941	402.411	9.12402
-39.2916	397.985	9.14355
-39.29	400.0394	9.16309
-39.2882	402.624	9.18262
-39.2878	398.096	9.20215
-39.2854	399.735	9.22168
-39.2841	406.37	9.24121
-39.2828	406.209	9.26074
-39.2806	403.543	9.28027
-39.2794	403.941	9.2998
-39.2775	407.617	9.31934
-39.2759	402.306	9.33887
-39.2743	407.796	9.3584
-39.2725	411.8212	9.37793
-39.2712	408.625	9.39746
-39.2686	406.897	9.41699
-39.26725	415.3544	9.43652
-39.2667	409.22	9.45605
-39.2644	412.103	9.47559
-39.2631	417.3851	9.49512
-39.261	415.703	9.51465
-39.2597	408.11	9.53418
-39.2587	418.763	9.55371
-39.256	417.4982	9.57324
-39.2561	415.438	9.59277
-39.2545	421.253	9.6123
-39.2521	419.803	9.63184
-39.2505	412.442	9.65137
-39.2498	424.027	9.6709
-39.2477	424.562	9.69043
-39.24543	418.4754	9.70996
-39.2438	421.92	9.72949
-39.2425	425.413	9.74902
-39.24086	420.285	9.76855
-39.2388	422.7439	9.78809
-39.2371	428.984	9.80762
-39.2351	425.82	9.82715
-39.23439	425.4111	9.84668
-39.2318	429.4097	9.86621
-39.231	428.858	9.88574
-39.2299	425.4053	9.90527
-39.2274	434.841	9.9248
-39.22546	434.112	9.94434
-39.2247	430.583	9.96387
-39.223	431.144	9.9834
-39.2211	437.289	10.00293
-39.2186	431.953	10.0225
-39.2194	435.65	10.042
-39.2163	439.236	10.0615
-39.2143	434.603	10.0811
-39.2132	432.106	10.1006
-39.2101	443.518	10.1201
-39.2096	438.339	10.1396
-39.2073	436.6	10.15918
-39.2058	442.4267	10.1787
-39.204	442.01	10.1982
-39.202	435.173	10.2178
-39.202	445.619	10.2373
-39.1986	444.437	10.2568
-39.19685	440.563	10.2764
-39.1973	445.1767	10.2959
-39.1946	448.017	10.31543
-39.1936	439.478	10.335
-39.1914	446.0748	10.3545
-39.1896	451.1879	10.374
-39.1875	446.83	10.3936
-39.1871	447.029	10.4131
-39.18515	449.27	10.4326
-39.1827	447.341	10.4521
-39.1816	447.796	10.47168
-39.1803	454.133	10.4912
-39.1782	451.519	10.5107
-39.1761	449.239	10.5303
-39.1759	453.043	10.5498
-39.1728	454.889	10.5693
-39.1725	449.964	10.5889
-39.1696	456.051	10.6084
-39.1691	459.272	10.62793
-39.16584	456.525	10.6475
-39.167	453.39	10.667
-39.16267	461.78	10.6865
-39.1627	455.8718	10.7061
-39.161	459.833	10.7256
-39.1588	464.871	10.7451
-39.158	460.273	10.7646
-39.1547	454.978	10.78418
-39.1541	467.401	10.8037
-39.1522	464.2612	10.8232
-39.1502	461.1857	10.8428
-39.1478	467.625	10.8623
-39.1486	466.638	10.8818
-39.1462	459.0163	10.9014
-39.1449	467.25	10.9209
-39.1419	468.111	10.94043
-39.1407	465.353	10.96
-39.1394	468.657	10.9795
-39.1385	472.975	10.999
-39.1358	464.744	11.0186
-39.1338	469.802	11.0381
-39.1333	473.665	11.0576
-39.13089	472.184	11.0771
-39.1295	470.523	11.09668
-39.128	474.47	11.1162
-39.12661	472.8877	11.1357
-39.1241	471.957	11.1553
-39.1224	478.941	11.1748
-39.12138	477.013	11.1943
-39.1208	474.084	11.2139
-39.1177	475.88	11.2334
-39.1161	481.339	11.25293
-39.1146	474.794	11.2725
-39.1139	478.527	11.292
-39.1113	483.105	11.3115
-39.1097	480.58	11.3311
-39.1085	476.162	11.3506
-39.1062	485.305	11.3701
-39.1044	480.184	11.3896
-39.1021	480.274	11.40918
-39.10117	486.903	11.4287
-39.1009	486.528	11.4482
-39.0983	477.715	11.4678
-39.0982	488.154	11.4873
-39.0954	488.228	11.5068
-39.0942	485.021	11.5264
-39.0932	486.34	11.5459
-39.0896	490.506	11.56543
-39.089	482.995	11.585
-39.087	489.756	11.6045
-39.0863	493.588	11.624
-39.0847	488.642	11.6436
-39.0821	488.518	11.6631
-39.0806	493.724	11.6826
-39.08	489.514	11.7021
-39.0774	488.493	11.72168
-39.0766	495.388	11.7412
-39.075	493.666	11.7607
-39.0717	491.515	11.7803
-39.0711	494.639	11.7998
-39.06995	495.2485	11.8193
-39.06781	492.661	11.8389
-39.0665	498.203	11.8584
-39.0642	499.674	11.87793
-39.0621	495.649	11.8975
-39.062	493.375	11.917
-39.0604	501.468	11.9365
-39.05814	496.489	11.9561
-39.0572	499.319	11.9756
-39.0553	503.92	11.9951
-39.0539	502.157	12.0146
-39.0522	496.265	12.03418
-39.049	507.691	12.0537
-39.0485	502.721	12.0732
-39.0471	499.622	12.0928
-39.0445	506.461	12.1123
-39.043	507.9	12.1318
-39.04203	497.707	12.1514
-39.0397	505.355	12.1709
-39.0375	506.918	12.19043
-39.0362	505.2955	12.21
-39.035	506.65	12.2295
-39.0337	509.16	12.249
-39.03223	502.139	12.2686
-39.0303	507.89	12.2881
-39.0284	511.66	12.3076
-39.027	509.547	12.3271
-39.026	508.053	12.34668
-39.0238	511.2037	12.3662
-39.0213	509.6	12.3857
-39.01997	508.165	12.4053
-39.0197	512.573	12.4248
-39.0171	513.064	12.4443
-39.01524	511.081	12.4639
-39.0143	511.998	12.4834
-39.0132	516.018	12.50293
-39.0105	511.003	12.5225
-39.0079	514.317	12.542
-39.007	517.246	12.5615
-39.0064	515.848	12.5811
-39.0044	509.136	12.6006
-39.0024	520.057	12.6201
-39.0014	515.033	12.6396
-38.9999	515.175	12.65918
-38.99754	520.718	12.6787
-38.9975	519.138	12.6982
-38.9943	511.674	12.7178
-38.9934	522.707	12.7373
-38.9912	520.826	12.7568
-38.9895	515.788	12.7764
-38.9884	520.676	12.7959
-38.9862	523.791	12.81543
-38.9848	515.706	12.835
-38.9844	521.085	12.8545
-38.9822	523.103	12.874
-38.9804	520.2522	12.8936
-38.979	520.4129	12.9131
-38.9776	526.104	12.9326
-38.9758	518.238	12.9521
-38.9739	520.87	12.97168
-38.9719	527.16	12.9912
-38.9698	526.297	13.0107
-38.9684	523.333	13.0303
-38.9677	525.68	13.0498
-38.9654	525.895	13.0693
-38.9638	522.9209	13.0889
-38.9618	527.737	13.1084
-38.96	529.584	13.12793
-38.9594	524.25	13.1475
-38.9571	524.074	13.167
-38.9563	530.172	13.1865
-38.9536	525.1355	13.2061
-38.952	526.717	13.2256
-38.9515	532.039	13.2451
-38.9487	530.0611	13.2646
-38.9474	523.995	13.28418
-38.9454	532.231	13.3037
-38.9443	529.87	13.3232
-38.9425	528.798	13.3428
-38.9403	533.783	13.3623
-38.9396	534.783	13.3818
-38.9376	523.249	13.4014
-38.93539	535.196	13.4209
-38.935	534.05	13.44043
-38.9316	530.912	13.46
-38.931	531.985	13.4795
-38.9295	536.015	13.499
-38.9277	527.402	13.5186
-38.9254	533.46	13.5381
-38.925	536.717	13.5576
-38.9232	534.833	13.5771
-38.92083	532.731	13.59668
-38.9191	538.81	13.6162
-38.9184	534.177	13.6357
-38.9163	534.147	13.6553
-38.9156	538.112	13.6748
-38.9122	538.133	13.6943
-38.9117	534.009	13.7139
-38.9099	535.152	13.7334
-38.9077	538.527	13.75293
-38.907	535.107	13.7725
-38.9043	536.903	13.792
-38.9039	541.389	13.8115
-38.9014	537.567	13.8311
-38.901	533.249	13.8506
-38.8985	542.829	13.8701
-38.89537	539.626	13.8896
-38.8955	537.794	13.90918
-38.8935	541.183	13.9287
-38.8927	543.694	13.9482
-38.89	535.128	13.9678
-38.8892	543.1842	13.9873
-38.8885	541.8902	14.0068
-38.8855	538.97	14.0264
-38.8849	542.191	14.0459
-38.8825	546.886	14.06543
-38.8808	536.604	14.085
-38.8793	542.4505	14.1045
-38.8771	546.441	14.124
-38.8766	542.638	14.1436
-38.8748	542.49	14.1631
-38.8717	546.734	14.1826
-38.8698	539.881	14.2021
-38.8699	542.2359	14.22168
-38.86837	546.2356	14.2412
-38.8658	546.8739	14.2607
-38.8638	542.0672	14.2803
-38.8624	546.218	14.2998
-38.8607	545.203	14.3193
-38.8601	541.815	14.3389
-38.8584	544.935	14.3584
-38.8553	546.641	14.37793
-38.855	545.031	14.3975
-38.8526	543.514	14.417
-38.8514	547.152	14.4365
-38.84927	544.54	14.4561
-38.8486	545.955	14.4756
-38.8468	549.372	14.4951
-38.8445	545.767	14.5146
-38.8438	540.986	14.53418
-38.84185	550.063	14.5537
-38.8402	548.385	14.5732
-38.8386	543.679	14.5928
-38.837	547.8587	14.6123
-38.8344	549.849	14.6318
-38.8335	541.24	14.6514
-38.83157	550.034	14.6709
-38.8301	547.996	14.69043
-38.8275	545.863	14.71
-38.8262	549.5658	14.7295
-38.8252	554.221	14.749
-38.8244	543.0592	14.7686
-38.8222	546.528	14.7881
-38.8205	551.045	14.8076
-38.8178	548.489	14.8271
-38.816	545.35	14.84668
-38.8158	551.036	14.8662
-38.8134	545.886	14.8857
-38.81263	545.228	14.9053
-38.8108	550.127	14.9248
-38.8099	550.84	14.9443
-38.8072	544.795	14.9639
-38.8061	548.7395	14.9834
-38.804	550.371	15.00293
-38.802	547.721	15.0225
-38.7999	547.536	15.042
-38.7997	550.9834	15.0615
-38.7976	548.965	15.0811
-38.7962	547.93	15.1006
-38.7956	551.911	15.1201
-38.79089	548.756	15.1396
-38.7901	547.341	15.15918
-38.7885	552.315	15.1787
-38.788	553.093	15.1982
-38.7861	544.112	15.2178
-38.7842	551.917	15.2373
-38.7825	551.604	15.2568
-38.7811	548.935	15.2764
-38.77916	551.611	15.2959
-38.7775	553.601	15.31543
-38.77673	543.749	15.335
-38.7748	550.6969	15.3545
-38.77359	554.2002	15.374
-38.7717	549.296	15.3936
-38.7693	549.688	15.4131
-38.768	555.511	15.4326
-38.7672	547.632	15.4521
-38.7641	548.286	15.47168
-38.7647	551.029	15.4912
-38.7621	551.128	15.5107
-38.7608	548.213	15.5303
-38.7588	553.4812	15.5498
-38.7574	549.071	15.5693
-38.7557	546.286	15.5889
-38.7537	550.257	15.6084
-38.752	552.6369	15.62793
-38.7505	548.586	15.6475
-38.7486	549.762	15.667
-38.7476	551.264	15.6865
-38.745	548.249	15.7061
-38.7449	547.176	15.7256
-38.7425	553.362	15.7451
-38.7405	550.844	15.7646
-38.73848	545.571	15.78418
-38.7355	551.812	15.8037
-38.7364	550.556	15.8232
-38.7352	547.465	15.8428
-38.7327	551.094	15.8623
-38.7303	554.014	15.8818
-38.7292	543.82	15.9014
-38.7281	550.091	15.9209
-38.7263	551.661	15.94043
-38.724	548.347	15.96
-38.7229	552.589	15.9795
-38.721	554.591	15.999
-38.71899	544.775	16.0186
-38.7184	549.216	16.0381
-38.7156	552.237	16.0576
-38.7159	550.039	16.0771
-38.7129	546.692	16.09668
-38.7118	553.609	16.1162
-38.71	548.098	16.1357
-38.7086	548.462	16.1553
-38.70594	550.285	16.1748
-38.7052	551.896	16.1943
-38.7045	547.213	16.2139
-38.702	551.325	16.2334
-38.70013	550.156	16.25293
-38.6978	546.737	16.2725
-38.6969	546.1701	16.292
-38.6954	552.332	16.3115
-38.6945	548.979	16.3311
-38.6923	545.63	16.3506
-38.691	549.53	16.3701
-38.68869	549.321	16.3896
-38.6873	545.899	16.40918
-38.6847	550.634	16.4287
-38.6846	548.974	16.4482
-38.68224	542.5907	16.4678
-38.6809	549.237	16.4873
-38.6787	551.187	16.5068
-38.6777	544.115	16.5264
-38.6751	548.601	16.5459
-38.67432	553.61	16.56543
-38.671	542.69	16.585
-38.6703	548.1767	16.6045
-38.669	549.569	16.624
-38.6678	548.0921	16.6436
-38.6656	547.634	16.6631
-38.6639	553.035	16.6826
-38.6628	545.045	16.7021
-38.6611	546.73	16.72168
-38.6597	550.698	16.7412
-38.6574	550.026	16.7607
-38.6556	546.469	16.7803
-38.6535	549.124	16.7998
-38.652	545.018	16.8193
-38.6503	544.978	16.8389
-38.6502	547.99	16.8584
-38.6486	550.372	16.87793
-38.6462	545.4939	16.8975
-38.6456	545.172	16.917
-38.6422	549.597	16.9365
-38.6418	547.842	16.9561
-38.6388	543.945	16.9756
-38.6382	550.82	16.9951
-38.6366	548.643	17.0146
-38.6354	543.802	17.03418
-38.6322	547.267	17.0537
-38.6316	546.312	17.0732
-38.6311	544.277	17.0928
-38.62912	547.878	17.1123
-38.6258	550.222	17.1318
-38.6253	539.445	17.1514
-38.6232	546.58	17.1709
-38.6214	549.758	17.19043
-38.621	545.515	17.21
-38.6176	545.097	17.2295
-38.6175	550.287	17.249
-38.6147	542.95	17.2686
-38.6139	546.7627	17.2881
-38.6118	549.024	17.3076
-38.6104	546.2998	17.3271
-38.6088	543.806	17.34668
-38.6081	550.421	17.3662
-38.6052	544.567	17.3857
-38.6046	543.9895	17.4053
-38.6023	547.306	17.4248
-38.5997	550.138	17.4443
-38.5993	544.065	17.4639
-38.5976	546.608	17.4834
-38.59621	544.919	17.50293
-38.593	543.277	17.5225
-38.5924	543.913	17.542
-38.5905	550.267	17.5615
-38.5899	544.549	17.5811
-38.5868	543.312	17.6006
-38.5859	546.919	17.6201
-38.5838	546.422	17.6396
-38.5823	542.513	17.65918
-38.5806	547.857	17.6787
-38.5796	547.231	17.6982
-38.577	539.991	17.7178
-38.5773	547.082	17.7373
-38.5743	546.615	17.7568
-38.5734	540.495	17.7764
-38.5711	544.736	17.7959
-38.5686	550.064	17.81543
-38.5679	538.416	17.835
-38.5663	543.161	17.8545
-38.5643	547.856	17.874
-38.5629	542.8974	17.8936
-38.5607	542.4115	17.9131
-38.5606	547.53	17.9326
-38.5583	541.218	17.9521
-38.556	543.3952	17.97168
-38.5546	545.634	17.9912
-38.5539	545.012	18.0107
-38.5521	539.805	18.0303
-38.5497	546.592	18.0498
-38.5504	543.678	18.0693
-38.54805	541.5705	18.0889
-38.5447	543.621	18.1084
-38.5437	547.36	18.12793
-38.5423	542.417	18.1475
-38.5405	543.722	18.167
-38.539	545.187	18.1865
-38.5375	543.392	18.2061
-38.5357	540.729	18.2256
-38.5342	547.708	18.2451
-38.5321	544.552	18.2646
-38.5309	540.051	18.28418
-38.5291	543.783	18.3037
-38.5274	546.2478	18.3232
-38.5269	539.524	18.3428
-38.52422	544.3	18.3623
-38.5229	546.353	18.3818
-38.52039	537.053	18.4014
-38.5199	541.733	18.4209
-38.5178	547.19	18.44043
-38.516	541.1665	18.46
-38.5145	541.379	18.4795
-38.5123	547.381	18.499
-38.5119	539.498	18.5186
-38.50922	540.549	18.5381
-38.5076	546.469	18.5576
-38.5051	543.539	18.5771
-38.5045	539.658	18.59668
-38.5035	546.656	18.6162
-38.50145	539.518	18.6357
-38.5001	540.434	18.6553
-38.4974	543.671	18.6748
-38.4955	546.689	18.6943
-38.4945	538.517	18.7139
-38.493	543.859	18.7334
-38.4924	541.65	18.75293
-38.4886	541.54	18.7725
-38.4891	540.393	18.792
-38.4867	546.304	18.8115
-38.4839	541.284	18.8311
-38.48333	541.102	18.8506
-38.4836	542.53	18.8701
-38.48	541.376	18.8896
-38.4777	538.3103	18.90918
-38.4764	545.216	18.9287
-38.4757	543.845	18.9482
-38.4736	537.268	18.9678
-38.4715	540.9325	18.9873
-38.4709	544.047	19.0068
-38.4687	540.286	19.0264
-38.4669	542.551	19.0459
-38.4662	544.542	19.06543
-38.4642	534.255	19.085
-38.4625	538.481	19.1045
-38.4598	544.827	19.124
-38.4593	537.987	19.1436
-38.4575	538.293	19.1631
-38.4559	545.507	19.1826
-38.4533	537.7489	19.2021
-38.4531	539.1192	19.22168
-38.4511	543.133	19.2412
-38.4495	542.111	19.2607
-38.4476	537.575	19.2803
-38.4461	542.748	19.2998
-38.4448	539.091	19.3193
-38.44355	537.95	19.3389
-38.4412	539.975	19.3584
-38.43927	545.263	19.37793
-38.4376	537.498	19.3975
-38.4368	539.097	19.417
-38.4358	540.496	19.4365
-38.4324	541.614	19.4561
-38.4325	538.826	19.4756
-38.4293	543.409	19.4951
-38.4281	540.111	19.5146
-38.4258	537.471	19.53418
-38.4243	538.4024	19.5537
-38.4233	542.313	19.5732
-38.4211	535.413	19.5928
-38.4198	540.938	19.6123
-38.4187	544.44	19.6318
-38.4168	536.015	19.6514
-38.41468	539.1759	19.6709
-38.4144	542.985	19.69043
-38.4119	537.552	19.71
-38.4095	539.1	19.7295
-38.4073	544.802	19.749
-38.4062	536.698	19.7686
-38.4058	536.147	19.7881
-38.4041	542.38	19.8076
-38.403	541.776	19.8271
-38.4005	536.195	19.84668
-38.3989	544.8584	19.8662
-38.3979	537.152	19.8857
-38.3963	537.175	19.9053
-38.3939	541.898	19.9248
-38.3928	543.243	19.9443
-38.3905	535.922	19.9639
-38.38858	542.067	19.9834
-38.3869	539.23	20.00293
-38.3877	537.647	20.0127

Data Header:			0.254_solid_uprint_typeiv_4545_r0			Time:	39.9407	s	4/13/2019 6:51:06 PM
Data Acquisition:	Timed
Station Name:	ft40.cfg
Test File Name:	Type IV_Monotonic.tst
Displacement	Force	Running Time
mm	N	s
-38.3856	537.244	20.0225
-38.3851	536.845	20.042
-38.38279	544.208	20.0615
-38.3812	539.914	20.0811
-38.38	537.939	20.1006
-38.3766	539.838	20.1201
-38.3761	540.896	20.1396
-38.3751	536.23	20.15918
-38.3727	542.052	20.1787
-38.3706	540.01	20.1982
-38.3693	535.047	20.2178
-38.368	537.252	20.2373
-38.3661	541.6911	20.2568
-38.3643	534.278	20.2764
-38.3621	538.88	20.2959
-38.3609	542.895	20.31543
-38.3598	533.434	20.335
-38.358	535.281	20.3545
-38.35614	541.197	20.374
-38.355	535.083	20.3936
-38.3535	536.15	20.4131
-38.3508	543.865	20.4326
-38.3496	535.691	20.4521
-38.348	535.552	20.47168
-38.3468	539.603	20.4912
-38.3445	539.9729	20.5107
-38.3428	535.58	20.5303
-38.3412	539.996	20.5498
-38.341	536.068	20.5693
-38.3386	535.114	20.5889
-38.3358	536.876	20.6084
-38.3345	541.738	20.62793
-38.3343	535.56	20.6475
-38.33213	538.713	20.667
-38.3306	539.43	20.6865
-38.32795	536.918	20.7061
-38.3277	534.658	20.7256
-38.3259	541.359	20.7451
-38.3235	539.2746	20.7646
-38.32164	535.211	20.78418
-38.321	538.491	20.8037
-38.3183	539.48	20.8232
-38.3174	534.366	20.8428
-38.3161	539.656	20.8623
-38.3137	541.553	20.8818
-38.3126	533.164	20.9014
-38.3114	535.684	20.9209
-38.3087	541.213	20.94043
-38.30798	535.889	20.96
-38.3051	535.475	20.9795
-38.3057	542.256	20.999
-38.3034	533.6308	21.0186
-38.3004	534.673	21.0381
-38.2999	539.46	21.0576
-38.2972	536.55	21.0771
-38.2961	534.062	21.09668
-38.2938	540.3194	21.1162
-38.29245	535.458	21.1357
-38.2917	533.978	21.1553
-38.2893	537.342	21.1748
-38.2881	539.504	21.1943
-38.2871	532.456	21.2139
-38.285	538.594	21.2334
-38.2823	535.6593	21.25293
-38.2811	534.88	21.2725
-38.2807	535.329	21.292
-38.2776	540.043	21.3115
-38.2766	535.656	21.3311
-38.27557	534.746	21.3506
-38.2732	536.934	21.3701
-38.2709	537.242	21.3896
-38.2704	531.2868	21.40918
-38.2678	538.6214	21.4287
-38.2664	538.6153	21.4482
-38.2648	533.698	21.4678
-38.2635	536.04	21.4873
-38.2625	538.652	21.5068
-38.26067	532.228	21.5264
-38.2595	536.99	21.5459
-38.25676	540.156	21.56543
-38.2555	532.649	21.585
-38.254	531.304	21.6045
-38.2515	540.492	21.624
-38.2498	534.6756	21.6436
-38.2496	533.45	21.6631
-38.2468	539.337	21.6826
-38.2461	532.826	21.7021
-38.24509	532.146	21.72168
-38.2417	538.245	21.7412
-38.2402	537.576	21.7607
-38.2407	531.127	21.7803
-38.2377	539.046	21.7998
-38.23632	536.479	21.8193
-38.2345	533.569	21.8389
-38.232	535.358	21.8584
-38.2306	540.503	21.87793
-38.2306	532.633	21.8975
-38.22842	536.036	21.917
-38.2274	535.833	21.9365
-38.2247	534.1073	21.9561
-38.2225	531.965	21.9756
-38.2212	540.464	21.9951
-38.2203	537.263	22.0146
-38.218	533.281	22.03418
-38.2155	533.795	22.0537
-38.215	538.405	22.0732
-38.2125	530.73	22.0928
-38.2119	537.469	22.1123
-38.2102	538.544	22.1318
-38.2081	532.58	22.1514
-38.2079	533.375	22.1709
-38.206	539.829	22.19043
-38.2036	532.285	22.21
-38.2018	533.7312	22.2295
-38.2002	538.541	22.249
-38.1991	534.123	22.2686
-38.1966	529.844	22.2881
-38.1952	537.5816	22.3076
-38.1944	535.124	22.3271
-38.1914	530.838	22.34668
-38.1896	539.558	22.3662
-38.1889	534.323	22.3857
-38.1869	531.349	22.4053
-38.1852	536.203	22.4248
-38.185	536.4068	22.4443
-38.1823	531.65	22.4639
-38.1802	535.338	22.4834
-38.1789	534.662	22.50293
-38.1766	532.608	22.5225
-38.1759	532.9967	22.542
-38.1752	538.498	22.5615
-38.1731	532.93	22.5811
-38.1708	533.55	22.6006
-38.17	535.8869	22.6201
-38.16732	535.009	22.6396
-38.166	529.991	22.65918
-38.16378	536.842	22.6787
-38.1626	536.807	22.6982
-38.1613	532.929	22.7178
-38.16	533.293	22.7373
-38.15794	537.873	22.7568
-38.1563	529.701	22.7764
-38.1543	535.3374	22.7959
-38.1527	538.962	22.81543
-38.1521	531.355	22.835
-38.1499	528.826	22.8545
-38.1485	539.32	22.874
-38.1467	533.619	22.8936
-38.1446	530.172	22.9131
-38.1426	537.764	22.9326
-38.1412	534.2207	22.9521
-38.13942	528.927	22.97168
-38.1381	536.613	22.9912
-38.1368	534.887	23.0107
-38.1342	529.781	23.0303
-38.1332	536.758	23.0498
-38.1313	534.634	23.0693
-38.1299	529.717	23.0889
-38.1291	533.923	23.1084
-38.1266	536.893	23.12793
-38.1252	530.05	23.1475
-38.1226	533.855	23.167
-38.1217	533.604	23.1865
-38.1203	531.677	23.2061
-38.1185	530.836	23.2256
-38.118	537.9408	23.2451
-38.117	532.668	23.2646
-38.1127	532.281	23.28418
-38.1115	532.691	23.3037
-38.111	536.406	23.3232
-38.1095	529.191	23.3428
-38.1078	535.13	23.3623
-38.1063	536.439	23.3818
-38.1037	531.091	23.4014
-38.1028	530.562	23.4209
-38.1011	536.7934	23.44043
-38.0993	531.114	23.46
-38.0982	532.641	23.4795
-38.0951	537.36	23.499
-38.0947	532.774	23.5186
-38.0934	527.636	23.5381
-38.0911	538.723	23.5576
-38.0895	533.999	23.5771
-38.0892	530.992	23.59668
-38.0851	535.839	23.6162
-38.0838	534.183	23.6357
-38.0835	528.305	23.6553
-38.081	535.694	23.6748
-38.0794	535.234	23.6943
-38.0775	529.295	23.7139
-38.0764	534.258	23.7334
-38.0745	534.351	23.75293
-38.0729	529.508	23.7725
-38.0709	532.721	23.792
-38.0701	536.569	23.8115
-38.06765	530.724	23.8311
-38.0666	531.703	23.8506
-38.065	534.276	23.8701
-38.0637	533.605	23.8896
-38.0624	528.901	23.90918
-38.0595	536.417	23.9287
-38.0587	534.843	23.9482
-38.0581	531.3512	23.9678
-38.0552	532.548	23.9873
-38.0537	537.294	24.0068
-38.052	528.336	24.0264
-38.0506	534.805	24.0459
-38.049	535.952	24.06543
-38.0467	530.638	24.085
-38.0461	529.352	24.1045
-38.0439	538.31	24.124
-38.0425	529.556	24.1436
-38.0398	531.689	24.1631
-38.0394	537.946	24.1826
-38.0367	532.316	24.2021
-38.0352	525.099	24.22168
-38.03476	535.621	24.2412
-38.03334	533.472	24.2607
-38.0306	529.243	24.2803
-38.0289	535.497	24.2998
-38.0272	533.628	24.3193
-38.0251	525.658	24.3389
-38.0239	534.259	24.3584
-38.0214	535.354	24.37793
-38.0204	529.062	24.3975
-38.0199	532.231	24.417
-38.0184	533.084	24.4365
-38.0158	530.354	24.4561
-38.0153	530.08	24.4756
-38.01276	536.473	24.4951
-38.0117	531.7	24.5146
-38.0095	531.045	24.53418
-38.0089	531.79	24.5537
-38.0063	533.955	24.5732
-38.0048	525.3653	24.5928
-38.0025	533.498	24.6123
-38.0015	534.678	24.6318
-38.0004	529.071	24.6514
-38	529.159	24.6709
-37.9966	535.962	24.69043
-37.9946	528.227	24.71
-37.99308	531.8252	24.7295
-37.9916	536.126	24.749
-37.9898	529.87	24.7686
-37.9878	527.518	24.7881
-37.9872	535.56	24.8076
-37.9851	531.004	24.8271
-37.9843	528.113	24.84668
-37.981	535.141	24.8662
-37.98003	533.357	24.8857
-37.97958	526.035	24.9053
-37.9772	533.837	24.9248
-37.9756	531.9408	24.9443
-37.9733	527.648	24.9639
-37.9723	532.89	24.9834
-37.97	532.442	25.00293
-37.9694	526.735	25.0225
-37.9672	530.063	25.042
-37.9656	534.409	25.0615
-37.96426	528.915	25.0811
-37.9626	530.96	25.1006
-37.9608	532.146	25.1201
-37.9597	530.106	25.1396
-37.958	529.4599	25.15918
-37.9556	534.859	25.1787
-37.9546	531.3692	25.1982
-37.9533	527.594	25.2178
-37.9511	530.662	25.2373
-37.94838	534.1236	25.2568
-37.9474	527.303	25.2764
-37.9463	530.535	25.2959
-37.9434	534.571	25.31543
-37.9433	530.182	25.335
-37.9421	526.847	25.3545
-37.93964	536.156	25.374
-37.9384	528.767	25.3936
-37.9363	530.561	25.4131
-37.9344	535.37	25.4326
-37.9335	532.007	25.4521
-37.9315	522.42	25.47168
-37.9307	533.792	25.4912
-37.9279	532.471	25.5107
-37.9263	528.705	25.5303
-37.9253	533.243	25.5498
-37.9236	533.717	25.5693
-37.9222	523.932	25.5889
-37.9193	532.244	25.6084
-37.9187	531.8338	25.62793
-37.9171	527.037	25.6475
-37.9155	531.881	25.667
-37.9141	533.189	25.6865
-37.9125	526.085	25.7061
-37.9101	528.987	25.7256
-37.9087	534.557	25.7451
-37.907	529.468	25.7646
-37.9054	529.569	25.78418
-37.90477	530.8476	25.8037
-37.9021	529.166	25.8232
-37.9011	526.961	25.8428
-37.89901	533.147	25.8623
-37.8967	533.079	25.8818
-37.8963	528.18	25.9014
-37.8943	527.949	25.9209
-37.8931	533.649	25.94043
-37.8912	527.46	25.96
-37.88929	529.798	25.9795
-37.8872	532.9201	25.999
-37.8858	531.033	26.0186
-37.8841	525.83	26.0381
-37.8826	533.787	26.0576
-37.882	529.11	26.0771
-37.8803	528.498	26.09668
-37.8781	533.163	26.1162
-37.8766	532.562	26.1357
-37.8761	522.252	26.1553
-37.8722	531.7	26.1748
-37.8707	531.277	26.1943
-37.86924	528.69	26.2139
-37.8685	530.521	26.2334
-37.8661	532.562	26.25293
-37.8646	524.267	26.2725
-37.8634	530.429	26.292
-37.8613	533.391	26.3115
-37.8598	527.585	26.3311
-37.8585	527.9444	26.3506
-37.8566	532.406	26.3701
-37.8544	528.132	26.3896
-37.854	526.94	26.40918
-37.853	531.372	26.4287
-37.8498	528.379	26.4482
-37.8489	528.787	26.4678
-37.8476	529.964	26.4873
-37.8452	528.827	26.5068
-37.8443	526.153	26.5264
-37.8418	530.6062	26.5459
-37.8403	532.636	26.56543
-37.8389	527.188	26.585
-37.83633	526.038	26.6045
-37.8365	533.435	26.624
-37.8337	526.491	26.6436
-37.8322	529.68	26.6631
-37.8294	532.764	26.6826
-37.8289	530.871	26.7021
-37.8276	523.28	26.72168
-37.8254	533.792	26.7412
-37.8242	529.874	26.7607
-37.823	527.329	26.7803
-37.8216	530.1723	26.7998
-37.819	532.905	26.8193
-37.81736	523.938	26.8389
-37.8165	531.681	26.8584
-37.8136	532.216	26.87793
-37.8126	527.55	26.8975
-37.8109	527.557	26.917
-37.809	531.668	26.9365
-37.8083	522.748	26.9561
-37.8064	527.044	26.9756
-37.805	532.1839	26.9951
-37.8041	529.839	27.0146
-37.801	527.113	27.03418
-37.8013	530.027	27.0537
-37.7981	528.972	27.0732
-37.7967	528.021	27.0928
-37.7955	532.199	27.1123
-37.79377	530.46	27.1318
-37.7923	527.389	27.1514
-37.7904	527.796	27.1709
-37.7889	531.279	27.19043
-37.7864	526.909	27.21
-37.7855	528.793	27.2295
-37.7833	531.817	27.249
-37.7819	529.779	27.2686
-37.78083	525.57	27.2881
-37.7785	532.264	27.3076
-37.7751	528.14	27.3271
-37.7757	526.21	27.34668
-37.77356	532.792	27.3662
-37.7716	531.208	27.3857
-37.7702	521.62	27.4053
-37.7682	531.364	27.4248
-37.7668	531.349	27.4443
-37.7658	526.967	27.4639
-37.7646	529.385	27.4834
-37.7615	532.016	27.50293
-37.76141	523.509	27.5225
-37.7589	529.861	27.542
-37.7575	531.537	27.5615
-37.7567	526.5824	27.5811
-37.7539	527.314	27.6006
-37.7527	532.945	27.6201
-37.7511	524.728	27.6396
-37.7501	525.858	27.65918
-37.7478	529.5528	27.6787
-37.7467	528.979	27.6982
-37.743	526.597	27.7178
-37.7432	529.104	27.7373
-37.7403	526.7771	27.7568
-37.7396	525.968	27.7764
-37.7383	529.341	27.7959
-37.7361	530.13	27.81543
-37.7351	524.911	27.835
-37.7334	524.804	27.8545
-37.7316	530.57	27.874
-37.7292	526.704	27.8936
-37.7276	526.489	27.9131
-37.7269	529.303	27.9326
-37.7238	529.074	27.9521
-37.7233	523.7442	27.97168
-37.7223	529.383	27.9912
-37.7203	527.14	28.0107
-37.7172	524.644	28.0303
-37.7174	529.867	28.0498
-37.71492	532.314	28.0693
-37.7139	520.873	28.0889
-37.7121	527.506	28.1084
-37.7098	529.881	28.12793
-37.7077	527.461	28.1475
-37.7074	526.917	28.167
-37.7053	531.945	28.1865
-37.7045	523.047	28.2061
-37.702	526.749	28.2256
-37.7008	530.391	28.2451
-37.6987	528.484	28.2646
-37.6974	523.746	28.28418
-37.6965	530.287	28.3037
-37.6935	525.999	28.3232
-37.6927	525.936	28.3428
-37.6903	527.305	28.3623
-37.69	529.755	28.3818
-37.6881	524.471	28.4014
-37.6868	528.0318	28.4209
-37.6842	528.213	28.44043
-37.6825	525.326	28.46
-37.6814	525.641	28.4795
-37.6792	531.512	28.499
-37.6774	527.228	28.5186
-37.6751	523.226	28.5381
-37.6739	528.729	28.5576
-37.6725	526.939	28.5771
-37.6716	525.293	28.59668
-37.6707	529.232	28.6162
-37.6682	528.867	28.6357
-37.667	521.576	28.6553
-37.6643	528.58	28.6748
-37.6623	527.646	28.6943
-37.661	523.576	28.7139
-37.6592	526.54	28.7334
-37.6587	531.156	28.75293
-37.6576	522.932	28.7725
-37.6553	526.425	28.792
-37.65303	530.027	28.8115
-37.6526	525.975	28.8311
-37.6496	526.927	28.8506
-37.6485	532.792	28.8701
-37.6466	522.767	28.8896
-37.6459	526.238	28.90918
-37.6433	531.475	28.9287
-37.6419	531.628	28.9482
-37.6395	524.221	28.9678
-37.639	529.954	28.9873
-37.6374	525.503	29.0068
-37.6352	524.32	29.0264
-37.6332	525.825	29.0459
-37.6331	529.7724	29.06543
-37.63	523.82	29.085
-37.6296	525.407	29.1045
-37.6275	529.443	29.124
-37.6254	523.993	29.1436
-37.623	522.858	29.1631
-37.6217	528.991	29.1826
-37.6208	527.161	29.2021
-37.6195	522.696	29.22168
-37.6167	528.176	29.2412
-37.6151	528.498	29.2607
-37.6146	524.364	29.2803
-37.6129	529.779	29.2998
-37.6104	529.487	29.3193
-37.6096	520.474	29.3389
-37.6088	525.963	29.3584
-37.60622	529.698	29.37793
-37.6047	524.414	29.3975
-37.6026	525.777	29.417
-37.6003	530.957	29.4365
-37.5991	522.73	29.4561
-37.5974	524.417	29.4756
-37.596	529.335	29.4951
-37.5947	526.243	29.5146
-37.5938	524.407	29.53418
-37.592	530.391	29.5537
-37.5887	525.483	29.5732
-37.5876	524.914	29.5928
-37.5863	527.602	29.6123
-37.5855	529.715	29.6318
-37.5829	524.375	29.6514
-37.5812	526.439	29.6709
-37.58	525.667	29.69043
-37.5783	524.907	29.71
-37.5758	525.8847	29.7295
-37.5754	529.475	29.749
-37.5734	524.678	29.7686
-37.5733	522.929	29.7881
-37.57151	526.425	29.8076
-37.5684	526.856	29.8271
-37.5665	522.292	29.84668
-37.5661	527.54	29.8662
-37.56311	527.866	29.8857
-37.5626	521.73	29.9053
-37.561	524.526	29.9248
-37.5578	526.936	29.9443
-37.5563	522.857	29.9639
-37.5551	524.248	29.9834
-37.55497	531.287	30.00293
-37.5528	520.276	30.0225
-37.5506	523.4787	30.042
-37.549	527.907	30.0615
-37.5484	525.597	30.0811
-37.5452	522.628	30.1006
-37.5437	529.122	30.1201
-37.5431	521.789	30.1396
-37.5406	522.907	30.15918
-37.5383	527.378	30.1787
-37.5375	528.349	30.1982
-37.537	521.352	30.2178
-37.5337	528.278	30.2373
-37.5331	526.172	30.2568
-37.5308	523.238	30.2764
-37.5296	523.821	30.2959
-37.528	528.869	30.31543
-37.5264	523.459	30.335
-37.5254	524.166	30.3545
-37.5232	526.522	30.374
-37.5215	524.265	30.3936
-37.5196	523.504	30.4131
-37.5172	529.854	30.4326
-37.5168	526.144	30.4521
-37.51479	522.02	30.47168
-37.5126	524.946	30.4912
-37.5112	527.602	30.5107
-37.5097	523.252	30.5303
-37.5082	526.794	30.5498
-37.5073	528.244	30.5693
-37.5051	520.504	30.5889
-37.5055	524.511	30.6084
-37.5023	528.265	30.62793
-37.4998	521.554	30.6475
-37.4984	522.36	30.667
-37.4977	531.204	30.6865
-37.4959	523.021	30.7061
-37.4942	522.48	30.7256
-37.4923	528.62	30.7451
-37.4908	526.62	30.7646
-37.4889	523.209	30.78418
-37.4873	530.742	30.8037
-37.4858	523.442	30.8232
-37.4838	522.681	30.8428
-37.4815	526.048	30.8623
-37.4805	528.974	30.8818
-37.4782	521.14	30.9014
-37.4781	526.485	30.9209
-37.4765	524.517	30.94043
-37.4741	524.619	30.96
-37.4725	523.042	30.9795
-37.4714	528.4881	30.999
-37.4698	523.813	31.0186
-37.4677	524.547	31.0381
-37.4661	526.103	31.0576
-37.4636	526.683	31.0771
-37.46244	520.063	31.09668
-37.46114	527.469	31.1162
-37.45837	526.726	31.1357
-37.4571	522.086	31.1553
-37.4562	523.023	31.1748
-37.4545	527.431	31.1943
-37.4523	521.31	31.2139
-37.4523	525.315	31.2334
-37.45034	527.635	31.25293
-37.4479	520.153	31.2725
-37.4465	521.691	31.292
-37.4446	529.531	31.3115
-37.44434	524.494	31.3311
-37.4428	521.377	31.3506
-37.441	530.555	31.3701
-37.4382	522.59	31.3896
-37.4361	521.668	31.40918
-37.43499	526.304	31.4287
-37.4334	525.019	31.4482
-37.4316	521.4718	31.4678
-37.431	528.225	31.4873
-37.4283	522.559	31.5068
-37.4283	522.245	31.5264
-37.4263	524.067	31.5459
-37.4236	527.612	31.56543
-37.423	522.406	31.585
-37.4206	524.141	31.6045
-37.4184	524.226	31.624
-37.417	523.697	31.6436
-37.4162	520.319	31.6631
-37.4138	528.4823	31.6826
-37.411	524.19	31.7021
-37.4114	521.159	31.72168
-37.4092	523.888	31.7412
-37.4074	527.687	31.7607
-37.4066	520.848	31.7803
-37.4037	526.478	31.7998
-37.4028	527.477	31.8193
-37.4013	521.694	31.8389
-37.3989	522.595	31.8584
-37.3976	529.182	31.87793
-37.396	519.281	31.8975
-37.3952	523.35	31.917
-37.3925	529.354	31.9365
-37.392	521.293	31.9561
-37.3894	519.175	31.9756
-37.3877	528.114	31.9951
-37.3872	524.063	32.0146
-37.3847	519.474	32.03418
-37.3834	527.164	32.0537
-37.38203	523.849	32.0732
-37.3804	520.007	32.0928
-37.3797	525.955	32.1123
-37.3751	526.07	32.1318
-37.376	519.272	32.1514
-37.3727	525.096	32.1709
-37.3714	525.001	32.19043
-37.3701	522.308	32.21
-37.3688	520.916	32.2295
-37.3662	528.767	32.249
-37.3657	523.737	32.2686
-37.3619	523.338	32.2881
-37.361	525.417	32.3076
-37.36047	524.486	32.3271
-37.3593	520.049	32.34668
-37.356	527.292	32.3662
-37.3557	524.725	32.3857
-37.3536	521.269	32.4053
-37.3532	521.6076	32.4248
-37.3508	528.219	32.4443
-37.3486	520.102	32.4639
-37.3479	524.516	32.4834
-37.3464	525.56	32.50293
-37.3448	520.2157	32.5225
-37.3425	519.983	32.542
-37.3416	527.735	32.5615
-37.3397	521.311	32.5811
-37.3369	520.992	32.6006
-37.3355	528.956	32.6201
-37.3346	523.51	32.6396
-37.33268	518.034	32.65918
-37.3296	528.118	32.6787
-37.3291	525.836	32.6982
-37.3281	520.837	32.7178
-37.3271	527.016	32.7373
-37.324	523.89	32.7568
-37.3225	517.838	32.7764
-37.3204	523.465	32.7959
-37.3195	528.428	32.81543
-37.3184	520.809	32.835
-37.316	522.12	32.8545
-37.3156	524.881	32.874
-37.31324	522.763	32.8936
-37.3118	520.484	32.9131
-37.3109	527.315	32.9326
-37.308	522.717	32.9521
-37.3071	522.588	32.97168
-37.3046	522.469	32.9912
-37.3034	525.219	33.0107
-37.3018	519.36	33.0303
-37.2997	525.658	33.0498
-37.2977	526.254	33.0693
-37.2972	519.9165	33.0889
-37.2956	519.951	33.1084
-37.29351	526.4953	33.12793
-37.2914	519.207	33.1475
-37.2892	522.427	33.167
-37.289	527.927	33.1865
-37.2879	521.148	33.2061
-37.2858	517.016	33.2256
-37.2845	529.938	33.2451
-37.28196	522.304	33.2646
-37.28	519.655	33.28418
-37.2798	526.922	33.3037
-37.277	524.206	33.3232
-37.276	517.083	33.3428
-37.2741	525.216	33.3623
-37.27285	525.11	33.3818
-37.2708	520.033	33.4014
-37.26939	525.02	33.4209
-37.268	525.105	33.44043
-37.2661	516.817	33.46
-37.266	520.882	33.4795
-37.2631	526.573	33.499
-37.2609	521.782	33.5186
-37.2586	522.502	33.5381
-37.258	525.71	33.5576
-37.2565	523.535	33.5771
-37.2551	519.487	33.59668
-37.2523	526.258	33.6162
-37.251	523.742	33.6357
-37.24818	520.883	33.6553
-37.2481	521.729	33.6748
-37.2458	528.748	33.6943
-37.24469	518.3609	33.7139
-37.2425	523.745	33.7334
-37.2412	525.528	33.75293
-37.2406	520.915	33.7725
-37.2389	518.961	33.792
-37.2359	526.855	33.8115
-37.236	519.893	33.8311
-37.2335	521.71	33.8506
-37.23204	527.256	33.8701
-37.2296	523.794	33.8896
-37.2287	516.373	33.90918
-37.2267	526.94	33.9287
-37.2252	524.2345	33.9482
-37.2227	518.642	33.9678
-37.2212	526.302	33.9873
-37.2209	525.696	34.0068
-37.2193	515.544	34.0264
-37.2163	523.403	34.0459
-37.2161	525.492	34.06543
-37.2127	520.536	34.085
-37.212	523.3797	34.1045
-37.2101	524.409	34.124
-37.2084	518.239	34.1436
-37.2068	521	34.1631
-37.20483	527.1532	34.1826
-37.2037	521.4	34.2021
-37.2024	522.001	34.22168
-37.2004	523.068	34.2412
-37.1995	523.2713	34.2607
-37.1971	518.096	34.2803
-37.1952	524.636	34.2998
-37.1943	524.8905	34.3193
-37.1928	519.737	34.3389
-37.1909	517.754	34.3584
-37.1893	525.021	34.37793
-37.1878	519.398	34.3975
-37.1867	522.2392	34.417
-37.185	525.908	34.4365
-37.1821	520.869	34.4561
-37.1815	516.556	34.4756
-37.1795	527.137	34.4951
-37.1781	520.466	34.5146
-37.1764	520.166	34.53418
-37.1743	526.562	34.5537
-37.17263	523.513	34.5732
-37.1708	515.937	34.5928
-37.1706	524.177	34.6123
-37.1679	523.403	34.6318
-37.1657	518.973	34.6514
-37.16468	524.047	34.6709
-37.1639	525.745	34.69043
-37.1615	517.647	34.71
-37.1597	522.46	34.7295
-37.1586	525.713	34.749
-37.1569	520.551	34.7686
-37.1552	521.102	34.7881
-37.1544	523.434	34.8076
-37.1522	520.959	34.8271
-37.1503	519.588	34.84668
-37.1493	523.688	34.8662
-37.1474	523.586	34.8857
-37.1453	521.086	34.9053
-37.1436	522.5882	34.9248
-37.1423	522.455	34.9443
-37.1396	517.534	34.9639
-37.1394	521.996	34.9834
-37.1376	525.209	35.00293
-37.1358	519.702	35.0225
-37.1335	517.354	35.042
-37.1333	525.142	35.0615
-37.1318	518.195	35.0811
-37.1303	521.347	35.1006
-37.1271	524.788	35.1201
-37.1261	521.799	35.1396
-37.1245	516.365	35.15918
-37.12162	526.132	35.1787
-37.1213	520.804	35.1982
-37.1193	517.974	35.2178
-37.1181	523.625	35.2373
-37.1168	522.963	35.2568
-37.1153	514.6933	35.2764
-37.1125	522.43	35.2959
-37.1115	521.758	35.31543
-37.1097	517.709	35.335
-37.1079	519.976	35.3545
-37.1055	524.949	35.374
-37.1053	517.1153	35.3936
-37.1028	519.597	35.4131
-37.1011	525.374	35.4326
-37.0998	520.42	35.4521
-37.0984	518.244	35.47168
-37.0968	522.055	35.4912
-37.0946	519.837	35.5107
-37.0933	519.593	35.5303
-37.0924	522.591	35.5498
-37.0913	522.791	35.5693
-37.088	518.269	35.5889
-37.0864	518.704	35.6084
-37.0847	523.244	35.62793
-37.0831	517.89	35.6475
-37.0817	519.317	35.667
-37.0798	523.524	35.6865
-37.07896	520.56	35.7061
-37.0764	515.755	35.7256
-37.0755	523.058	35.7451
-37.0741	519.706	35.7646
-37.0723	519.053	35.78418
-37.0699	524.235	35.8037
-37.0692	522.5293	35.8232
-37.0684	513.473	35.8428
-37.06662	524.478	35.8623
-37.0634	522.252	35.8818
-37.0622	519.948	35.9014
-37.0605	521.831	35.9209
-37.0595	524.15	35.94043
-37.0567	513.358	35.96
-37.0557	521.874	35.9795
-37.0554	522.911	35.999
-37.0529	518.048	36.0186
-37.0503	519.3653	36.0381
-37.0503	524.464	36.0576
-37.048	517.254	36.0771
-37.045	517.948	36.09668
-37.0458	522.344	36.1162
-37.0424	520.2229	36.1357
-37.0416	518.17	36.1553
-37.0394	518.554	36.1748
-37.0383	519.2843	36.1943
-37.0357	517.191	36.2139
-37.0354	520.649	36.2334
-37.0332	523.766	36.25293
-37.0319	518.735	36.2725
-37.0307	517.15	36.292
-37.0285	523.0141	36.3115
-37.02721	519.174	36.3311
-37.0261	517.683	36.3506
-37.0234	522.176	36.3701
-37.0215	519.5556	36.3896
-37.0213	514.554	36.40918
-37.0193	522.978	36.4287
-37.0169	520.033	36.4482
-37.0153	517.434	36.4678
-37.0142	521.047	36.4873
-37.0123	524.19	36.5068
-37.0098	514.149	36.5264
-37.0079	520.865	36.5459
-37.0076	520.843	36.56543
-37.0044	518.075	36.585
-37.00375	520.47	36.6045
-37.0018	523.676	36.624
-37.0007	515.168	36.6436
-36.9981	518.02	36.6631
-36.9977	523.206	36.6826
-36.9964	519.639	36.7021
-36.9937	516.408	36.72168
-36.9925	521.518	36.7412
-36.9914	516.961	36.7607
-36.9886	517.788	36.7803
-36.9885	520.273	36.7998
-36.9855	521.91	36.8193
-36.9845	517.078	36.8389
-36.9825	518.9668	36.8584
-36.9807	521.203	36.87793
-36.9801	516.943	36.8975
-36.97839	518.564	36.917
-36.9762	523.4129	36.9365
-36.9737	517.995	36.9561
-36.9722	515.0849	36.9756
-36.9711	521.779	36.9951
-36.97	519.271	37.0146
-36.9679	518.218	37.03418
-36.9666	521.5564	37.0537
-36.9635	522.755	37.0732
-36.9638	513.939	37.0928
-36.962	521.635	37.1123
-36.9597	522.072	37.1318
-36.9585	515.929	37.1514
-36.9562	519.365	37.1709
-36.9555	521.777	37.19043
-36.9528	515.155	37.21
-36.9512	518.817	37.2295
-36.9498	521.241	37.249
-36.9491	518.423	37.2686
-36.9473	516.839	37.2881
-36.9454	523.276	37.3076
-36.9433	514.5293	37.3271
-36.9412	516.122	37.34668
-36.9398	519.338	37.3662
-36.9383	520.487	37.3857
-36.9378	515.311	37.4053
-36.9358	519.172	37.4248
-36.9335	516.893	37.4443
-36.9335	517.489	37.4639
-36.9304	518.154	37.4834
-36.929	522.0293	37.50293
-36.9271	515.186	37.5225
-36.9257	517.461	37.542
-36.9243	519.725	37.5615
-36.9215	515.913	37.5811
-36.9206	515.551	37.6006
-36.9193	520.573	37.6201
-36.9176	520.542	37.6396
-36.9166	513.707	37.65918
-36.914	519.07	37.6787
-36.9136	517.877	37.6982
-36.9118	513.808	37.7178
-36.91048	520.002	37.7373
-36.9071	520.207	37.7568
-36.9064	511.29	37.7764
-36.90527	518.066	37.7959
-36.9031	519.933	37.81543
-36.9004	515.445	37.835
-36.89941	515.867	37.8545
-36.8985	520.007	37.874
-36.8962	514.149	37.8936
-36.89497	516.997	37.9131
-36.8934	519.664	37.9326
-36.89098	516.966	37.9521
-36.8896	513.646	37.97168
-36.8886	520.34	37.9912
-36.8868	514.9884	38.0107
-36.8848	515.662	38.0303
-36.8844	515.974	38.0498
-36.8821	520.1814	38.0693
-36.8803	515.029	38.0889
-36.8783	517.7691	38.1084
-36.8774	515.007	38.12793
-36.8761	514.773	38.1475
-36.8747	515.378	38.167
-36.8726	520.7959	38.1865
-36.8704	514.043	38.2061
-36.8693	513.498	38.2256
-36.8672	518.748	38.2451
-36.865	516.636	38.2646
-36.8644	512.559	38.28418
-36.862	517.07	38.3037
-36.8601	518.426	38.3232
-36.8597	510.877	38.3428
-36.8575	516.855	38.3623
-36.8557	517.541	38.3818
-36.8544	512.785	38.4014
-36.8508	514.366	38.4209
-36.8511	520.594	38.44043
-36.8497	510.655	38.46
-36.8482	514.116	38.4795
-36.8455	519.511	38.499
-36.8437	516.0481	38.5186
-36.8424	513.68	38.5381
-36.8405	519.437	38.5576
-36.8391	512.554	38.5771
-36.8378	513.333	38.59668
-36.8364	517.5	38.6162
-36.835	516.628	38.6357
-36.83366	511.972	38.6553
-36.8317	518.571	38.6748
-36.8301	513.826	38.6943
-36.8275	512.716	38.7139
-36.8263	514.206	38.7334
-36.8248	518.914	38.75293
-36.82333	512.066	38.7725
-36.8203	513.663	38.792
-36.8208	512.59	38.8115
-36.8185	513.458	38.8311
-36.8165	511.532	38.8506
-36.8154	516.597	38.8701
-36.8127	512.7002	38.8896
-36.8116	509.954	38.90918
-36.8106	513.297	38.9287
-36.8086	515.269	38.9482
-36.8075	508.894	38.9678
-36.8052	513.526	38.9873
-36.80452	515.259	39.0068
-36.8009	508.18	39.0264
-36.7994	509.304	39.0459
-36.7986	514.825	39.06543
-36.797	508.872	39.085
-36.7947	509.99	39.1045
-36.7925	516.29	39.124
-36.792	507.989	39.1436
-36.791	508.468	39.1631
-36.7886	512.934	39.1826
-36.7882	509.641	39.2021
-36.786	507.095	39.22168
-36.7839	512.944	39.2412
-36.7828	506.514	39.2607
-36.7811	507.171	39.2803
-36.7791	507.9913	39.2998
-36.7782	511.886	39.3193
-36.7762	503.116	39.3389
-36.7751	503.943	39.3584
-36.7719	502.671	39.37793
-36.7672	-163.071	39.3975
-36.7662	-39.8003	39.417
-36.7673	-41.2399	39.4365
-36.76532	-41.1745	39.4561
-36.7643	-41.00544	39.4756
-36.7615	-39.95591	39.4951
-36.7607	-38.7369	39.5146
-36.7586	-43.4783	39.53418
-36.7565	-37.9818	39.5537
-36.7553	-38.6663	39.5732
-36.75462	-43.2461	39.5928
-36.75293	-40.7148	39.6123
-36.7508	-38.4946	39.6318
-36.7494	-42.8558	39.6514
-36.7477	-39.3079	39.6709
-36.7451	-36.0466	39.69043
-36.74332	-44.7218	39.71
-36.7426	-42.5322	39.7295
-36.7424	-36.9238	39.749
-36.7396	-42.151	39.7686
-36.7392	-43.2474	39.7881
-36.7368	-35.8487	39.8076
-36.7345	-42.5413	39.8271
-36.7329	-43.0171	39.84668
-36.7317	-39.2416	39.8662
-36.7306	-39.3064	39.8857
-36.7299	-42.6554	39.9053
-36.7277	-36.6407	39.9248