File: data/processed_data_files/tensile/0.254_solid_uprint_typeiv_090_r(6).dat
MTS793|BTW|ENU|1|2|.|/|:|1|0|0|A

Data Header:			0.254_solid_uprint_typeiv_090_r0			Time:	20.0254	s	4/14/2019 1:11:27 AM
Data Acquisition:	Timed
Station Name:	ft40.cfg
Test File Name:	monotonic_0.2540_typeiv_solid_090_uprint.tst
Displacement	Force	Running Time
mm	N	s
-40.0409	-154.082	0.0302734
-40.0405	-157.714	0.0498047
-40.0405	-154.3024	0.0693359
-40.0409	-152.753	0.0888672
-40.039	-155.456	0.108398
-40.0361	-155.6	0.12793
-40.0348	-149.411	0.147461
-40.0334	-149.6313	0.166992
-40.0313	-150.906	0.186523
-40.0297	-149.042	0.206055
-40.0264	-147.643	0.225586
-40.0266	-148.916	0.245117
-40.0256	-143.13	0.264648
-40.0234	-140.985	0.28418
-40.0221	-144.1418	0.303711
-40.02018	-145.667	0.323242
-40.0189	-137.382	0.342773
-40.0169	-141.798	0.362305
-40.014	-140.446	0.381836
-40.0147	-135.473	0.401367
-40.0124	-136.981	0.420898
-40.0111	-140.915	0.44043
-40.0089	-130.686	0.459961
-40.0068	-135.314	0.479492
-40.0054	-135.203	0.499023
-40.0027	-129.666	0.518555
-40.0011	-126.761	0.538086
-40.0019	-135.536	0.557617
-39.9994	-125.78	0.577148
-39.998	-126.8238	0.59668
-39.997	-126.858	0.616211
-39.9934	-124.834	0.635742
-39.9924	-121.6645	0.655273
-39.9906	-127.777	0.674805
-39.989	-123.27	0.694336
-39.9879	-118.477	0.713867
-39.98613	-122.027	0.733398
-39.9842	-122.29	0.75293
-39.98288	-118.657	0.772461
-39.981	-119.216	0.791992
-39.979	-118.67	0.811523
-39.9775	-114.717	0.831055
-39.977	-113.7	0.850586
-39.9747	-115.328	0.870117
-39.9733	-113.284	0.889648
-39.971	-111.052	0.90918
-39.9701	-113.16	0.928711
-39.96957	-107.967	0.948242
-39.96714	-105.082	0.967773
-39.9644	-108.347	0.987305
-39.9641	-111.8764	1.00684
-39.9621	-101.681	1.02637
-39.9596	-105.572	1.0459
-39.95829	-105.043	1.06543
-39.9565	-99.8804	1.08496
-39.955	-100.565	1.10449
-39.9527	-106.565	1.12402
-39.9522	-94.6375	1.14355
-39.9502	-98.1567	1.16309
-39.95	-100.164	1.18262
-39.948	-94.9514	1.20215
-39.945	-91.2422	1.22168
-39.9447	-99.3678	1.24121
-39.9416	-93.6836	1.26074
-39.9409	-91.44545	1.28027
-39.9381	-92.3634	1.2998
-39.9375	-92.7412	1.31934
-39.9352	-87.5375	1.33887
-39.93391	-92.12677	1.3584
-39.9325	-88.9133	1.37793
-39.9314	-83.9408	1.39746
-39.9288	-85.2438	1.41699
-39.9284	-87.9652	1.43652
-39.9264	-83.7762	1.45605
-39.9244	-81.9946	1.47559
-39.9234	-84.3545	1.49512
-39.9214	-79.53	1.51465
-39.92	-78.7436	1.53418
-39.9182	-80.5212	1.55371
-39.91716	-79.9344	1.57324
-39.9147	-73.0557	1.59277
-39.9136	-77.315	1.6123
-39.9111	-74.8099	1.63184
-39.90905	-69.88752	1.65137
-39.9082	-70.8965	1.6709
-39.907	-78.0286	1.69043
-39.9057	-68.345	1.70996
-39.9019	-69.971	1.72949
-39.9006	-69.3457	1.74902
-39.9	-64.9613	1.76855
-39.8985	-65.0502	1.78809
-39.8982	-71.3663	1.80762
-39.8951	-61.9304	1.82715
-39.8937	-61.6602	1.84668
-39.8926	-64.6916	1.86621
-39.891	-62.4711	1.88574
-39.8891	-55.9355	1.90527
-39.8862	-64.4886	1.9248
-39.8857	-60.4577	1.94434
-39.8835	-55.6461	1.96387
-39.8825	-56.1393	1.9834
-39.8805	-57.7188	2.00293
-39.8786	-52.1546	2.02246
-39.8772	-57.2318	2.04199
-39.876	-54.6062	2.06152
-39.8734	-48.2045	2.08105
-39.8728	-48.1424	2.10059
-39.8716	-52.8135	2.12012
-39.8688	-49.7337	2.13965
-39.8668	-47.4558	2.15918
-39.8658	-47.7536	2.17871
-39.8646	-45.7268	2.19824
-39.8619	-42.2556	2.21777
-39.86124	-44.4976	2.2373
-39.8589	-45.6559	2.25684
-39.8578	-38.8768	2.27637
-39.8572	-42.9828	2.2959
-39.8544	-41.46	2.31543
-39.8532	-35.6743	2.33496
-39.8507	-35.3247	2.35449
-39.8512	-42.5276	2.37402
-39.8471	-34.3412	2.39355
-39.846	-33.91	2.41309
-39.845	-35.3692	2.43262
-39.8424	-32.5193	2.45215
-39.841	-27.6358	2.47168
-39.8406	-36.8259	2.49121
-39.8384	-27.318	2.51074
-39.8376	-26.8385	2.53027
-39.8351	-28.3409	2.5498
-39.833	-28.0304	2.56934
-39.8308	-22.8045	2.58887
-39.82999	-28.3012	2.6084
-39.8281	-23.0994	2.62793
-39.8274	-22.9067	2.64746
-39.8259	-20.2368	2.66699
-39.8233	-21.9628	2.68652
-39.8216	-17.4899	2.70605
-39.8203	-20.0188	2.72559
-39.8191	-20.1962	2.74512
-39.81678	-15.6186	2.76465
-39.8163	-13.0561	2.78418
-39.8129	-15.04	2.80371
-39.8126	-16.8272	2.82324
-39.8109	-12.5794	2.84277
-39.8089	-13.5981	2.8623
-39.8077	-10.617	2.88184
-39.8052	-8.43151	2.90137
-39.803	-11.0507	2.9209
-39.8029	-11.4222	2.94043
-39.8006	-4.60038	2.95996
-39.7994	-6.10424	2.97949
-39.7982	-8.705802	2.99902
-39.7958	-2.10685	3.01855
-39.7945	1.91865	3.03809
-39.7942	-6.83002	3.05762
-39.7916	0.5623734	3.07715
-39.7901	2.7006	3.09668
-39.787	1.03325	3.11621
-39.7859	2.37744	3.13574
-39.7848	8.03974	3.15527
-39.7834	-1.088732	3.1748
-39.7816	4.54498	3.19434
-39.7791	9.536561	3.21387
-39.7785	9.55361	3.2334
-39.77491	6.07787	3.25293
-39.774	11.3088	3.27246
-39.7743	8.98777	3.29199
-39.7717	9.72809	3.31152
-39.7692	13.6868	3.33105
-39.7687	13.4312	3.35059
-39.76638	11.6114	3.37012
-39.7644	15.4238	3.38965
-39.7623	17.5532	3.40918
-39.7631	15.988	3.42871
-39.7606	17.4761	3.44824
-39.75943	22.787	3.46777
-39.757	19.2803	3.4873
-39.7558	17.5034	3.50684
-39.753	20.9621	3.52637
-39.7523	23.7218	3.5459
-39.7513	22.688	3.56543
-39.7483	27.7123	3.58496
-39.747	27.9162	3.60449
-39.7445	19.89197	3.62402
-39.744	30.358	3.64355
-39.742	30.0223	3.66309
-39.7406	27.3543	3.68262
-39.7395	32.2298	3.70215
-39.737	36.51112	3.72168
-39.7357	28.5723	3.74121
-39.7349	34.3918	3.76074
-39.7326	37.2734	3.78027
-39.73035	35.1188	3.7998
-39.7291	35.8481	3.81934
-39.7273	42.1226	3.83887
-39.72488	34.1385	3.8584
-39.7249	37.9977	3.87793
-39.72221	42.97121	3.89746
-39.7211	44.55389	3.91699
-39.7203	40.9676	3.93652
-39.7179	45.8538	3.95605
-39.71608	42.8078	3.97559
-39.71524	46.1915	3.99512
-39.7132	47.223	4.01465
-39.711	51.7224	4.03418
-39.70895	46.1103	4.05371
-39.708	47.978	4.07324
-39.7054	52.1381	4.09277
-39.7044	51.3257	4.1123
-39.7035	51.109	4.13184
-39.7019	56.7854	4.15137
-39.7001	56.018	4.1709
-39.6984	52.14	4.19043
-39.6958	56.7817	4.20996
-39.69574	58.5028	4.22949
-39.6931	56.272	4.24902
-39.6905	61.0543	4.26855
-39.69009	64.3729	4.28809
-39.6892	56.3819	4.30762
-39.6872	62.7641	4.32715
-39.6857	65.4514	4.34668
-39.6836	63.2282	4.36621
-39.68198	62.9199	4.38574
-39.68111	73.0653	4.40527
-39.6805	63.6623	4.4248
-39.6758	68.7621	4.44434
-39.6747	71.4898	4.46387
-39.6748	70.9529	4.4834
-39.6724	69.9862	4.50293
-39.6712	77.0888	4.52246
-39.6694	72.2437	4.54199
-39.6682	72.0044	4.56152
-39.6657	76.5127	4.58105
-39.6646	80.2645	4.60059
-39.66172	74.9256	4.62012
-39.6602	78.8539	4.63965
-39.6581	78.4173	4.65918
-39.6574	80.2937	4.67871
-39.656	81.32	4.69824
-39.6547	86.57251	4.71777
-39.6525	82.5068	4.7373
-39.6508	81.601	4.75684
-39.6498	86.3409	4.77637
-39.6491	89.8731	4.7959
-39.64682	83.92131	4.81543
-39.6444	90.443	4.83496
-39.6431	91.6983	4.85449
-39.6421	86.676	4.87402
-39.6401	91.9104	4.89355
-39.6378	92.7428	4.91309
-39.6372	90.3227	4.93262
-39.6357	95.1007	4.95215
-39.6337	99.4478	4.97168
-39.6316	90.1353	4.99121
-39.6298	95.9315	5.01074
-39.6284	101.9	5.03027
-39.6264	98.85273	5.0498
-39.6251	97.64415	5.06934
-39.62373	105.475	5.08887
-39.6206	97.6004	5.1084
-39.6204	101.084	5.12793
-39.619	107.7822	5.14746
-39.6175	106.479	5.16699
-39.616	103.051	5.18652
-39.613	110.503	5.20605
-39.6125	106.498	5.22559
-39.6112	107.517	5.24512
-39.6093	109.797	5.26465
-39.6062	115.982	5.28418
-39.60659	111.0363	5.30371
-39.6035	113.0038	5.32324
-39.6025	112.929	5.34277
-39.6013	113.908	5.3623
-39.60014	114.962	5.38184
-39.5963	121.9789	5.40137
-39.5964	119.35	5.4209
-39.5951	115.241	5.44043
-39.59272	120.901	5.45996
-39.5913	124.202	5.47949
-39.59	119.628	5.49902
-39.58643	124.081	5.51855
-39.5862	127.931	5.53809
-39.5834	119.54	5.55762
-39.5822	126.392	5.57715
-39.5814	129.777	5.59668
-39.58054	124.417	5.61621
-39.5771	127.919	5.63574
-39.5757	135.43	5.65527
-39.57597	127.003	5.6748
-39.5726	129.741	5.69434
-39.5709	135.302	5.71387
-39.57	136.109	5.7334
-39.5673	134.373	5.75293
-39.5662	140.0374	5.77246
-39.5664	134.312	5.79199
-39.5639	137.164	5.81152
-39.5625	139.999	5.83105
-39.5599	140.954	5.85059
-39.55899	136.43	5.87012
-39.5569	144.088	5.88965
-39.5548	143.7924	5.90918
-39.554	142.828	5.92871
-39.5511	142.43	5.94824
-39.5514	148.763	5.96777
-39.54842	145.165	5.9873
-39.5471	144.627	6.00684
-39.5435	147.292	6.02637
-39.5444	150.059	6.0459
-39.5411	146.908	6.06543
-39.5395	155.468	6.08496
-39.539	153.1779	6.10449
-39.53722	148.513	6.12402
-39.5358	151.957	6.14355
-39.534	159.562	6.16309
-39.5329	153.172	6.18262
-39.5316	155.529	6.20215
-39.52977	160.571	6.22168
-39.5279	154.201	6.24121
-39.5267	159.421	6.26074
-39.52356	163.752	6.28027
-39.5238	160.569	6.2998
-39.5219	159.752	6.31934
-39.5196	169.135	6.33887
-39.5179	160.464	6.3584
-39.5158	163.458	6.37793
-39.5148	168.249	6.39746
-39.5132	170.19	6.41699
-39.511	166.396	6.43652
-39.5091	173.2702	6.45605
-39.5075	168.324	6.47559
-39.5073	168.729	6.49512
-39.505	171.298	6.51465
-39.5039	176.031	6.53418
-39.5009	170.519	6.55371
-39.5	175.22	6.57324
-39.4969	176.686	6.59277
-39.4974	178.055	6.6123
-39.495	175.2686	6.63184
-39.4929	181.469	6.65137
-39.4917	178.309	6.6709
-39.49	176.869	6.69043
-39.48867	182.619	6.70996
-39.4868	184.661	6.72949
-39.4854	179.169	6.74902
-39.4843	185.9928	6.76855
-39.4829	188.558	6.78809
-39.4803	180.191	6.80762
-39.479	184.7	6.82715
-39.4771	191.129	6.84668
-39.4761	188.253	6.86621
-39.47496	189.655	6.88574
-39.4719	194.804	6.90527
-39.4704	186.505	6.9248
-39.4694	191.167	6.94434
-39.4676	195.995	6.96387
-39.4653	194.395	6.9834
-39.4641	191.404	7.00293
-39.4631	200.781	7.02246
-39.4623	195.9803	7.04199
-39.4589	196.972	7.06152
-39.4579	200.568	7.08105
-39.45689	203.85	7.10059
-39.4548	198.281	7.12012
-39.4536	204.7934	7.13965
-39.4518	203.222	7.15918
-39.4503	204.741	7.17871
-39.448	203.902	7.19824
-39.4463	212.124	7.21777
-39.4451	205.632	7.2373
-39.44297	205.623	7.25684
-39.4418	207.424	7.27637
-39.4401	210.009	7.2959
-39.4376	206.885	7.31543
-39.4367	213.191	7.33496
-39.435	212.552	7.35449
-39.4327	211.568	7.37402
-39.43137	215.209	7.39355
-39.4297	218.9	7.41309
-39.4275	211.2719	7.43262
-39.4265	218.183	7.45215
-39.4262	222.522	7.47168
-39.4237	212.867	7.49121
-39.42038	217.208	7.51074
-39.4199	224.854	7.53027
-39.4185	220.396	7.5498
-39.4168	220.122	7.56934
-39.4152	228.737	7.58887
-39.4141	221.96	7.6084
-39.4122	222.038	7.62793
-39.4112	229.99	7.64746
-39.4094	228.853	7.66699
-39.4077	224.018	7.68652
-39.4058	232.254	7.70605
-39.4043	228.7253	7.72559
-39.4022	231.298	7.74512
-39.4017	233.591	7.76465
-39.3987	237.3885	7.78418
-39.3972	232.049	7.80371
-39.3956	235.456	7.82324
-39.395	235.299	7.84277
-39.3934	234.619	7.8623
-39.3913	233.705	7.88184
-39.3897	243.362	7.90137
-39.3876	237.901	7.9209
-39.3866	237.6223	7.94043
-39.3842	239.665	7.95996
-39.3828	244.003	7.97949
-39.3811	240.146	7.99902
-39.3801	243.947	8.01855
-39.3778	246.782	8.03809
-39.3765	242.3412	8.05762
-39.3755	244.53	8.07715
-39.3722	252.231	8.09668
-39.3711	246.092	8.11621
-39.3702	248.269	8.13574
-39.3683	254.202	8.15527
-39.3661	249.223	8.1748
-39.3644	248.065	8.19434
-39.3639	256.743	8.21387
-39.3605	254.937	8.2334
-39.3597	251.381	8.25293
-39.3588	259.192	8.27246
-39.3562	254.669	8.29199
-39.3544	253.415	8.31152
-39.3536	261.108	8.33105
-39.3518	262.69	8.35059
-39.3499	257.203	8.37012
-39.3493	262.147	8.38965
-39.346	263.136	8.40918
-39.3457	262.724	8.42871
-39.3434	262.4166	8.44824
-39.3427	269.1749	8.46777
-39.34024	265.025	8.4873
-39.33889	267.174	8.50684
-39.3367	268.9111	8.52637
-39.3351	268.86	8.5459
-39.334	265.974	8.56543
-39.3332	275.09	8.58496
-39.3313	272.221	8.60449
-39.3294	269.629	8.62402
-39.3281	271.979	8.64355
-39.3252	278.186	8.66309
-39.324	272.663	8.68262
-39.3224	276.8494	8.70215
-39.32082	279.7363	8.72168
-39.3194	273.484	8.74121
-39.3174	275.084	8.76074
-39.3149	284.185	8.78027
-39.31448	278.313	8.7998
-39.3131	278.757	8.81934
-39.31068	285.617	8.83887
-39.3105	281.122	8.8584
-39.3088	279.514	8.87793
-39.3069	287.224	8.89746
-39.3053	285.754	8.91699
-39.3031	283.549	8.93652
-39.3014	291.494	8.95605
-39.2996	287.539	8.97559
-39.2981	286.699	8.99512
-39.2961	290.669	9.01465
-39.2953	295.337	9.03418
-39.293	289.368	9.05371
-39.2918	293.744	9.07324
-39.2904	292.801	9.09277
-39.28825	295.719	9.1123
-39.2858	293.0542	9.13184
-39.2835	300.364	9.15137
-39.2844	296.891	9.1709
-39.2819	298.609	9.19043
-39.2801	300.584	9.20996
-39.2793	302.698	9.22949
-39.2779	296.168	9.24902
-39.2736	303.7775	9.26855
-39.2732	304.294	9.28809
-39.2722	300.944	9.30762
-39.269	301.429	9.32715
-39.2694	308.221	9.34668
-39.2678	303.152	9.36621
-39.2661	306.818	9.38574
-39.2636	312.001	9.40527
-39.263	305.716	9.4248
-39.2616	303.208	9.44434
-39.2594	314.52	9.46387
-39.2567	311.732	9.4834
-39.2554	305.963	9.50293
-39.2535	315.461	9.52246
-39.2521	313.532	9.54199
-39.251	310.327	9.56152
-39.2494	317.089	9.58105
-39.2484	318.834	9.60059
-39.2462	313.208	9.62012
-39.2449	321.201	9.63965
-39.2432	319.7117	9.65918
-39.241	316.709	9.67871
-39.2395	319.096	9.69824
-39.2366	325.775	9.71777
-39.2358	322.3775	9.7373
-39.2354	321.51	9.75684
-39.233	322.866	9.77637
-39.23106	326.722	9.7959
-39.2291	322.475	9.81543
-39.228	329.729	9.83496
-39.2263	327.46	9.85449
-39.2249	325.48	9.87402
-39.2241	329.143	9.89355
-39.2212	333.971	9.91309
-39.2195	326.491	9.93262
-39.219	332.465	9.95215
-39.2171	335.095	9.97168
-39.2155	332.275	9.99121
-39.2133	331.455	10.0107
-39.2118	338.147	10.0303
-39.211	334.614	10.0498
-39.2081	334.299	10.0693
-39.2073	341.362	10.0889
-39.206	337.765	10.1084
-39.2033	334.74	10.12793
-39.2025	343.324	10.1475
-39.201	342.203	10.167
-39.1997	336.466	10.1865
-39.1976	345.3486	10.2061
-39.1962	342.321	10.2256
-39.19352	340.537	10.2451
-39.1927	345.75	10.2646
-39.19146	349.097	10.28418
-39.18837	342.324	10.3037
-39.18787	347.7774	10.3232
-39.1869	349.7681	10.3428
-39.1841	347.583	10.3623
-39.1827	348.144	10.3818
-39.1812	354.076	10.4014
-39.1801	351.685	10.4209
-39.1773	350.177	10.44043
-39.177	351.884	10.46
-39.1752	355.256	10.4795
-39.1722	350.5022	10.499
-39.1717	358.186	10.5186
-39.1703	358.432	10.5381
-39.1689	353.404	10.5576
-39.1659	356.268	10.5771
-39.1636	365.16	10.59668
-39.1636	356.6485	10.6162
-39.1617	361.716	10.6357
-39.1594	363.515	10.6553
-39.1571	359.198	10.6748
-39.1566	358.675	10.6943
-39.155	367.787	10.7139
-39.1533	364.14	10.7334
-39.1527	362.5415	10.75293
-39.15	370.931	10.7725
-39.149	365.4931	10.792
-39.1462	362.024	10.8115
-39.145	370.864	10.8311
-39.1436	372.3284	10.8506
-39.142	366.96	10.8701
-39.1404	371.722	10.8896
-39.1387	372.857	10.90918
-39.136	371.778	10.9287
-39.1356	372.124	10.9482
-39.1332	378.961	10.9678
-39.1323	372.753	10.9873
-39.13	376.2352	11.0068
-39.1299	377.009	11.0264
-39.1278	378.367	11.0459
-39.1263	373.796	11.06543
-39.1235	383.603	11.085
-39.1213	382.521	11.1045
-39.1203	379.604	11.124
-39.1189	379.457	11.1436
-39.1175	383.661	11.1631
-39.1167	379.842	11.1826
-39.1133	387.131	11.2021
-39.1125	388.683	11.22168
-39.1116	382.284	11.2412
-39.10815	381.71	11.2607
-39.1078	392.993	11.2803
-39.1068	386.11	11.2998
-39.1052	386.371	11.3193
-39.1024	393.015	11.3389
-39.1015	388.8967	11.3584
-39.09956	385.794	11.37793
-39.0981	394.311	11.3975
-39.096	390.446	11.417
-39.0947	389.514	11.4365
-39.0934	397.1572	11.4561
-39.091	394.883	11.4756
-39.0901	389.286	11.4951
-39.0876	396.321	11.5146
-39.0868	402.15	11.53418
-39.0845	395.026	11.5537
-39.0842	396.716	11.5732
-39.0807	398.784	11.5928
-39.0793	397.204	11.6123
-39.0789	398.077	11.6318
-39.0774	406.874	11.6514
-39.0749	398.947	11.6709
-39.073	399.253	11.69043
-39.0728	403.554	11.71
-39.0704	407.27	11.7295
-39.07	398.158	11.749
-39.0677	407.9863	11.7686
-39.06493	407.855	11.7881
-39.0645	405.191	11.8076
-39.0636	403.443	11.8271
-39.0618	411.348	11.84668
-39.05859	405.599	11.8662
-39.0571	409.829	11.8857
-39.0553	415.679	11.9053
-39.05518	409.112	11.9248
-39.0523	405.95	11.9443
-39.0509	417.203	11.9639
-39.0488	413.772	11.9834
-39.0472	412.826	12.00293
-39.0462	417.971	12.0225
-39.0442	414.135	12.042
-39.0441	409.262	12.0615
-39.041	419.086	12.0811
-39.0388	418.183	12.1006
-39.03701	413.885	12.1201
-39.0356	420.333	12.1396
-39.03447	420.129	12.15918
-39.0327	415.466	12.1787
-39.0315	418.018	12.1982
-39.0294	425.408	12.2178
-39.0284	420.75	12.2373
-39.0259	420.838	12.2568
-39.02459	423.728	12.2764
-39.0237	423.545	12.2959
-39.02203	422.453	12.31543
-39.0208	429.548	12.335
-39.0188	425.173	12.3545
-39.0165	423.159	12.374
-39.0151	425.338	12.3936
-39.0137	432.553	12.4131
-39.01202	423.123	12.4326
-39.0111	429.622	12.4521
-39.009	433.105	12.47168
-39.0067	428.623	12.4912
-39.0048	426.952	12.5107
-39.0029	435.481	12.5303
-39.0026	429.689	12.5498
-39.0009	430.797	12.5693
-38.9988	437.366	12.5889
-38.997	432.081	12.6084
-38.996	427.938	12.62793
-38.9945	439.4158	12.6475
-38.9927	438.379	12.667
-38.9898	431.673	12.6865
-38.9885	438.6	12.7061
-38.9866	437.938	12.7256
-38.9867	433.225	12.7451
-38.9849	440.146	12.7646
-38.982	441.672	12.78418
-38.981	436.246	12.8037
-38.9797	440.248	12.8232
-38.9787	442.682	12.8428
-38.9769	438.139	12.8623
-38.974	438.289	12.8818
-38.9721	447.449	12.9014
-38.9704	442.589	12.9209
-38.9701	443.337	12.94043
-38.9682	443.577	12.96
-38.9682	445.085	12.9795
-38.9647	441.226	12.999
-38.9632	448.857	13.0186
-38.9617	449.6712	13.0381
-38.9591	442.156	13.0576
-38.95816	445.2157	13.0771
-38.9567	453.396	13.09668
-38.9547	445.822	13.1162
-38.9524	448.48	13.1357
-38.9521	451.721	13.1553
-38.9507	447.536	13.1748
-38.9484	445.504	13.1943
-38.94772	455.379	13.2139
-38.9449	448.735	13.2334
-38.9436	449.54	13.25293
-38.942	455.036	13.2725
-38.9407	452.678	13.292
-38.93969	445.191	13.3115
-38.9362	456.687	13.3311
-38.9357	457.572	13.3506
-38.9326	450.455	13.3701
-38.9325	455.396	13.3896
-38.9305	455.028	13.40918
-38.9291	451.87	13.4287
-38.9268	456.253	13.4482
-38.9254	460.851	13.4678
-38.9242	453.513	13.4873
-38.9215	455.8093	13.5068
-38.9212	457.84	13.5264
-38.9184	458.944	13.5459
-38.918	452.618	13.56543
-38.9154	462.743	13.585
-38.9144	460.3707	13.6045
-38.913	456.587	13.624
-38.9112	458.245	13.6436
-38.9091	462.25	13.6631
-38.9074	456.581	13.6826
-38.9056	461.6275	13.7021
-38.905	464.013	13.72168
-38.9031	458.117	13.7412
-38.9016	457.379	13.7607
-38.8988	465.93	13.7803
-38.897	460.694	13.7998
-38.8953	460.208	13.8193
-38.8948	465.028	13.8389
-38.8925	462.053	13.8584
-38.89019	457.797	13.87793
-38.8902	468.0593	13.8975
-38.8881	462.251	13.917
-38.8862	458.568	13.9365
-38.8848	467.357	13.9561
-38.88237	465.991	13.9756
-38.8798	457.801	13.9951
-38.8802	465.319	14.0146
-38.8782	468.707	14.03418
-38.8773	461.715	14.0537
-38.8756	464.5806	14.0732
-38.8732	465.304	14.0928
-38.8717	462.757	14.1123
-38.8707	464.668	14.1318
-38.8678	469.708	14.1514
-38.8663	464.547	14.1709
-38.8658	462.444	14.19043
-38.8642	466.307	14.21
-38.8622	469.472	14.2295
-38.86076	461.644	14.249
-38.85939	468.359	14.2686
-38.8565	468.834	14.2881
-38.8562	465.881	14.3076
-38.8529	464.455	14.3271
-38.8525	470.584	14.34668
-38.8499	462.691	14.3662
-38.8495	467.171	14.3857
-38.8468	473.254	14.4053
-38.8456	466.134	14.4248
-38.8454	463.228	14.4443
-38.8425	472.387	14.4639
-38.8406	468.639	14.4834
-38.8383	465.861	14.50293
-38.8382	470.924	14.5225
-38.83625	468.039	14.542
-38.8342	462.815	14.5615
-38.83271	472.083	14.5811
-38.8304	472.065	14.6006
-38.8302	464.549	14.6201
-38.8273	470.172	14.6396
-38.8256	470.477	14.65918
-38.8235	463.037	14.6787
-38.82328	467.499	14.6982
-38.8215	472.703	14.7178
-38.82	466.704	14.7373
-38.8178	467.869	14.7568
-38.8162	469.507	14.7764
-38.8151	468.507	14.7959
-38.8129	465.4205	14.81543
-38.8111	473.659	14.835
-38.8091	470.923	14.8545
-38.8092	465.245	14.874
-38.80706	468.097	14.8936
-38.8047	473.4964	14.9131
-38.803	465.726	14.9326
-38.802	469.3808	14.9521
-38.7995	472.841	14.97168
-38.798	467.448	14.9912
-38.7963	464.815	15.0107
-38.795	473.095	15.0303
-38.7934	465.563	15.0498
-38.793	466.555	15.0693
-38.79031	474.054	15.0889
-38.7891	469.326	15.1084
-38.7883	461.3121	15.12793
-38.7854	473.852	15.1475
-38.7838	468.299	15.167
-38.7821	464.209	15.1865
-38.7804	470.257	15.2061
-38.779	469.168	15.2256
-38.778	463.414	15.2451
-38.77565	469.99	15.2646
-38.7733	472.202	15.28418
-38.7717	464.27	15.3037
-38.7703	468.0177	15.3232
-38.7689	470.756	15.3428
-38.767	465.431	15.3623
-38.7653	465.175	15.3818
-38.7641	470.963	15.4014
-38.7633	468.083	15.4209
-38.7611	465.834	15.44043
-38.7597	466.936	15.46
-38.7561	468.2695	15.4795
-38.7572	462.938	15.499
-38.754	471.621	15.5186
-38.7526	469.163	15.5381
-38.7519	464.408	15.5576
-38.7497	463.157	15.5771
-38.7479	472.669	15.59668
-38.74651	464.675	15.6162
-38.7446	466.446	15.6357
-38.7428	469.241	15.6553
-38.7416	465.57	15.6748
-38.7392	461.68	15.6943
-38.7378	471.004	15.7139
-38.7379	464.643	15.7334
-38.7355	464.352	15.75293
-38.7327	469.379	15.7725
-38.7315	466.392	15.792
-38.7304	457.4812	15.8115
-38.7284	468.279	15.8311
-38.7267	468.668	15.8506
-38.72575	460.798	15.8701
-38.7233	466.24	15.8896
-38.7222	465.228	15.90918
-38.7204	460.624	15.9287
-38.7194	464.976	15.9482
-38.7181	469.178	15.9678
-38.7154	460.645	15.9873
-38.7134	463.02	16.0068
-38.7119	465.393	16.0264
-38.7104	464.702	16.0459
-38.7082	459.5	16.06543
-38.7077	466.035	16.085
-38.7057	463.22	16.1045
-38.7052	462.795	16.124
-38.703	462.296	16.1436
-38.7002	464.6637	16.1631
-38.6991	458.068	16.1826
-38.696	465.124	16.2021
-38.6951	467.955	16.22168
-38.6946	459.298	16.2412
-38.69257	458.13	16.2607
-38.6908	467.386	16.2803
-38.6902	460.522	16.2998
-38.6882	461.252	16.3193
-38.687	464.68	16.3389
-38.6843	461.139	16.3584
-38.6824	456.027	16.37793
-38.6813	465.937	16.3975
-38.6804	462.824	16.417
-38.6787	458.089	16.4365
-38.67725	463.346	16.4561
-38.6743	462.235	16.4756
-38.6721	453.3	16.4951
-38.6718	460.527	16.5146
-38.6705	464.073	16.53418
-38.6681	457.671	16.5537
-38.6671	460.969	16.5732
-38.6654	461.081	16.5928
-38.664	456.652	16.6123
-38.6625	458.3075	16.6318
-38.6603	463.53	16.6514
-38.6589	457.515	16.6709
-38.6564	457.709	16.69043
-38.6571	458.639	16.71
-38.6541	459.609	16.7295
-38.6516	455.099	16.749
-38.6501	461.004	16.7686
-38.6491	462.125	16.7881
-38.6465	457.376	16.8076
-38.6463	456.547	16.8271
-38.6435	462.184	16.84668
-38.6422	455.009	16.8662
-38.6415	458.393	16.8857
-38.6385	463.496	16.9053
-38.6379	457.052	16.9248
-38.6349	450.912	16.9443
-38.6336	463.17	16.9639
-38.6327	458.411	16.9834
-38.6308	455.7507	17.00293
-38.63	460.088	17.0225
-38.6276	456.22	17.042
-38.6264	451.427	17.0615
-38.6246	460.688	17.0811
-38.623	459.176	17.1006
-38.6217	452.463	17.1201
-38.62	458.167	17.1396
-38.6179	458.894	17.15918
-38.616	452.2648	17.1787
-38.6149	455.203	17.1982
-38.6126	460.406	17.2178
-38.612	453.46	17.2373
-38.6095	455.065	17.2568
-38.6084	455.935	17.2764
-38.6065	455.104	17.2959
-38.6051	453.288	17.31543
-38.6024	460.602	17.335
-38.601	456.496	17.3545
-38.6005	452.4321	17.374
-38.5985	454.983	17.3936
-38.5976	459.707	17.4131
-38.5946	450.3681	17.4326
-38.5926	454.997	17.4521
-38.5918	457.552	17.47168
-38.5902	453.941	17.4912
-38.58881	451.809	17.5107
-38.5862	457.389	17.5303
-38.5864	452.914	17.5498
-38.5825	454.0249	17.5693
-38.5826	458.265	17.5889
-38.5805	453.812	17.6084
-38.5798	447.642	17.62793
-38.5769	459.043	17.6475
-38.57526	455.374	17.667
-38.5735	449.8497	17.6865
-38.5727	455.406	17.7061
-38.5708	453.498	17.7256
-38.5682	448.343	17.7451
-38.5677	455.136	17.7646
-38.5653	456.685	17.78418
-38.5635	449.436	17.8037
-38.56184	452.947	17.8232
-38.561	454.969	17.8428
-38.56015	450.043	17.8623
-38.55756	449.518	17.8818
-38.5555	456.931	17.9014
-38.5554	451.919	17.9209
-38.5526	450.765	17.94043
-38.5509	451.905	17.96
-38.5495	453.916	17.9795
-38.5487	447.392	17.999
-38.5469	455.608	18.0186
-38.5452	453.775	18.0381
-38.543	449.161	18.0576
-38.54108	449.576	18.0771
-38.5395	457.643	18.09668
-38.5374	448.105	18.1162
-38.537	452.289	18.1357
-38.5349	454.246	18.1553
-38.5334	450.93	18.1748
-38.5308	447.65	18.1943
-38.529	456.773	18.2139
-38.5286	449.98	18.2334
-38.5277	448.876	18.25293
-38.5248	456.015	18.2725
-38.5232	451.6315	18.292
-38.5216	445.481	18.3115
-38.5213	452.75	18.3311
-38.5184	452.749	18.3506
-38.5164	447.998	18.3701
-38.5152	451.272	18.3896
-38.51376	449.473	18.40918
-38.5121	446.779	18.4287
-38.5095	451.248	18.4482
-38.5084	455.947	18.4678
-38.507	447.299	18.4873
-38.5058	449.796	18.5068
-38.5039	452.327	18.5264
-38.5013	449.358	18.5459
-38.5005	446.168	18.56543
-38.4997	454.4516	18.585
-38.49736	450.894	18.6045
-38.4954	448.649	18.624
-38.4961	450.25	18.6436
-38.4915	451.897	18.6631
-38.4907	445.021	18.6826
-38.4886	452.312	18.7021
-38.4876	451.718	18.72168
-38.4859	447.2572	18.7412
-38.4845	445.368	18.7607
-38.4827	455.029	18.7803
-38.4806	448.1745	18.7998
-38.4793	448.285	18.8193
-38.4779	452.948	18.8389
-38.47636	449.666	18.8584
-38.4737	443.873	18.87793
-38.473	453.406	18.8975
-38.4719	448.781	18.917
-38.47	445.248	18.9365
-38.4667	452.209	18.9561
-38.4666	450.766	18.9756
-38.46505	443.244	18.9951
-38.4627	450.029	19.0146
-38.46109	454.205	19.03418
-38.4605	445.933	19.0537
-38.45895	448.921	19.0732
-38.457	450.632	19.0928
-38.4557	447.72	19.1123
-38.4539	446.914	19.1318
-38.4517	453.582	19.1514
-38.44994	450.121	19.1709
-38.4488	447.248	19.19043
-38.4473	448.279	19.21
-38.4447	452.232	19.2295
-38.443	444.963	19.249
-38.44157	452.373	19.2686
-38.4404	453.091	19.2881
-38.4388	446.497	19.3076
-38.4378	445.925	19.3271
-38.4358	452.608	19.34668
-38.4342	444.78	19.3662
-38.432	448.6329	19.3857
-38.431	453.258	19.4053
-38.4296	447.2121	19.4248
-38.4272	444.279	19.4443
-38.4259	453.693	19.4639
-38.42395	447.039	19.4834
-38.4223	445.7446	19.50293
-38.4217	451.543	19.5225
-38.4199	447.917	19.542
-38.4183	441.409	19.5615
-38.416	452.993	19.5811
-38.4149	449.103	19.6006
-38.4136	442.3851	19.6201
-38.4109	449.144	19.6396
-38.40979	450.703	19.65918
-38.4074	442.481	19.6787
-38.4061	444.575	19.6982
-38.4048	452.573	19.7178
-38.40316	445.7225	19.7373
-38.4013	447.248	19.7568
-38.3999	447.6622	19.7764
-38.3974	447.236	19.7959
-38.3969	444.09	19.81543
-38.3961	452.349	19.835
-38.3929	447.912	19.8545
-38.3922	445.753	19.874
-38.3906	446.735	19.8936
-38.388	451.037	19.9131
-38.3869	443.528	19.9326
-38.38493	447.874	19.9521
-38.3826	449.501	19.97168
-38.3821	445.856	19.9912
-38.379	444.962	20.0107
-38.3799	448.19	20.0205

Data Header:			0.254_solid_uprint_typeiv_090_r0			Time:	26.8816	s	4/14/2019 1:11:34 AM
Data Acquisition:	Timed
Station Name:	ft40.cfg
Test File Name:	monotonic_0.2540_typeiv_solid_090_uprint.tst
Displacement	Force	Running Time
mm	N	s
-38.3799	449.658	20.0303
-38.3778	451.392	20.04
-38.3768	442.8157	20.0498
-38.3762	441.112	20.05957
-38.376	444.313	20.0693
-38.3748	448.029	20.0791
-38.3734	453.9191	20.0889
-38.3725	448.569	20.0986
-38.3721	447.044	20.1084
-38.37072	444.829	20.1182
-38.3693	440.57	20.12793
-38.3698	445.981	20.1377
-38.3689	451.191	20.1475
-38.3682	450.396	20.1572
-38.3669	447.853	20.167
-38.3675	440.596	20.1768
-38.3659	441.761	20.1865
-38.3661	446.52	20.1963
-38.3638	449.145	20.2061
-38.3634	450.585	20.21582
-38.3616	446.903	20.2256
-38.3615	445.035	20.2354
-38.35936	441.511	20.2451
-38.3592	443.641	20.2549
-38.3591	446.132	20.2646
-38.3587	451.6	20.2744
-38.3575	449.098	20.28418
-38.3568	443.404	20.2939
-38.356	442.787	20.3037
-38.356	444.932	20.3135
-38.35453	447.062	20.3232
-38.353	448.343	20.333
-38.3523	448.319	20.3428
-38.3525	449.132	20.3525
-38.3508	444.307	20.3623
-38.3501	442.641	20.37207
-38.34898	443.02	20.3818
-38.3494	447.82	20.3916
-38.3476	451.248	20.4014
-38.347	445.619	20.4111
-38.3453	445.524	20.4209
-38.3453	442.6265	20.4307
-38.3451	444.449	20.44043
-38.3436	444.339	20.4502
-38.3443	446.106	20.46
-38.34267	451.582	20.4697
-38.3416	446.815	20.4795
-38.3403	444.589	20.4893
-38.3401	441.734	20.499
-38.3384	442.985	20.5088
-38.3382	448.5939	20.5186
-38.3374	447.5231	20.52832
-38.3367	449.6669	20.5381
-38.3361	446.508	20.5479
-38.3345	443.182	20.5576
-38.3344	443.712	20.5674
-38.3332	442.782	20.5771
-38.3314	448.958	20.5869
-38.3318	449.951	20.59668
-38.3303	446.481	20.6064
-38.3293	443.483	20.6162
-38.3296	440.293	20.626
-38.3261	445.293	20.6357
-38.3275	447.424	20.6455
-38.3274	449.546	20.6553
-38.3266	448.3407	20.665
-38.32523	443.859	20.6748
-38.3231	443.003	20.68457
-38.3232	443.262	20.6943
-38.3214	446.148	20.7041
-38.3212	451.537	20.7139
-38.3206	451.078	20.7236
-38.3204	443.806	20.7334
-38.3206	441.319	20.7432
-38.3179	443.93	20.75293
-38.318	446.945	20.7627
-38.3156	450.162	20.7725
-38.3149	448.123	20.7822
-38.3147	445.696	20.792
-38.3138	445.544	20.8018
-38.3135	438.479	20.8115
-38.3136	444.503	20.8213
-38.312	448.257	20.8311
-38.3119	449.23	20.84082
-38.3105	450.065	20.8506
-38.3097	439.715	20.8604
-38.3092	443.206	20.8701
-38.30809	444.037	20.8799
-38.3077	447.25	20.8896
-38.3061	448.393	20.8994
-38.3051	447.223	20.90918
-38.3025	446.847	20.9189
-38.3041	441.744	20.9287
-38.3032	440.67	20.9385
-38.3015	445.241	20.9482
-38.302	448.036	20.958
-38.3003	451.534	20.9678
-38.2999	444.868	20.9775
-38.2991	443.084	20.9873
-38.29784	443.368	20.99707
-38.2979	444.171	21.0068
-38.29631	446.525	21.0166
-38.2958	446.672	21.0264
-38.2956	446.204	21.0361
-38.2937	444.634	21.0459
-38.2936	442.522	21.0557
-38.2928	441.703	21.06543
-38.2925	445.272	21.0752
-38.2895	449.278	21.085
-38.29002	445.5217	21.0947
-38.2885	447.387	21.1045
-38.2887	442.563	21.1143
-38.2879	444.305	21.124
-38.287	444.779	21.1338
-38.2854	443.908	21.1436
-38.2852	449.211	21.15332
-38.2847	449.032	21.1631
-38.2835	446.121	21.1729
-38.28149	442.201	21.1826
-38.2821	441.319	21.1924
-38.2799	447.088	21.2021
-38.2806	447.017	21.2119
-38.2794	450.071	21.22168
-38.27832	445.99	21.2314
-38.2772	443.429	21.2412
-38.2768	442.433	21.251
-38.2768	442.026	21.2607
-38.27459	448.9068	21.2705
-38.27298	452.02	21.2803
-38.27346	446.619	21.29
-38.27309	443.9469	21.2998
-38.2719	438.712	21.30957
-38.271	443.174	21.3193
-38.2696	446.575	21.3291
-38.2703	448.8761	21.3389
-38.2691	447.322	21.3486
-38.2684	444.665	21.3584
-38.26685	442.384	21.3682
-38.2663	441.4404	21.37793
-38.2653	444.315	21.3877
-38.2637	449.447	21.3975
-38.2634	449.842	21.4072
-38.2629	446.432	21.417
-38.263	440.154	21.4268
-38.2604	440.229	21.4365
-38.2597	445.5069	21.4463
-38.2609	449.037	21.4561
-38.2593	446.8421	21.46582
-38.2601	446.483	21.4756
-38.2575	446.341	21.4854
-38.2567	438.524	21.4951
-38.255	444.561	21.5049
-38.2546	444.7149	21.5146
-38.2537	449.74	21.5244
-38.2537	450.263	21.53418
-38.2522	442.421	21.5439
-38.2513	442.365	21.5537
-38.2513	443.907	21.5635
-38.2501	446.191	21.5732
-38.2497	448.843	21.583
-38.2484	445.87	21.5928
-38.2471	448.413	21.6025
-38.2476	443.745	21.6123
-38.2467	440.782	21.62207
-38.2451	443.506	21.6318
-38.2443	445.56	21.6416
-38.2427	449.358	21.6514
-38.2419	444.5899	21.6611
-38.24213	443.647	21.6709
-38.2414	443.23	21.6807
-38.2395	443.3183	21.69043
-38.23938	443.8385	21.7002
-38.2402	446.011	21.71
-38.2379	447.752	21.7197
-38.2379	447.516	21.7295
-38.237	444.583	21.7393
-38.2352	440.08	21.749
-38.2344	443.442	21.7588
-38.23418	446.476	21.7686
-38.2321	447.209	21.77832
-38.2319	449.1546	21.7881
-38.2316	445.065	21.7979
-38.2301	443.624	21.8076
-38.2299	442.284	21.8174
-38.2284	441.379	21.8271
-38.2286	447.676	21.8369
-38.227	449.14	21.84668
-38.2261	446.702	21.8564
-38.2255	441.685	21.8662
-38.22493	438.291	21.876
-38.2232	446.142	21.8857
-38.223	446.2178	21.8955
-38.2213	450.354	21.9053
-38.22192	445.89	21.915
-38.22123	442.953	21.9248
-38.2195	441.53	21.93457
-38.2192	439.139	21.9443
-38.2183	446.175	21.9541
-38.2171	449.514	21.9639
-38.2171	446.953	21.9736
-38.2162	444.499	21.9834
-38.2149	438.555	21.9932
-38.2137	441.901	22.00293
-38.2129	445.805	22.0127
-38.212	447.376	22.0225
-38.2109	448.673	22.0322
-38.2115	445.668	22.042
-38.211	442.608	22.0518
-38.2083	439.01	22.0615
-38.2083	442.097	22.0713
-38.2064	446.142	22.0811
-38.2073	448.552	22.09082
-38.2061	446.572	22.1006
-38.2049	442.471	22.1104
-38.2053	438.914	22.1201
-38.2038	442.707	22.1299
-38.2021	445.477	22.1396
-38.2028	446.7991	22.1494
-38.2004	444.542	22.15918
-38.1997	445.107	22.1689
-38.1991	439.667	22.1787
-38.1979	442.165	22.1885
-38.1987	443.101	22.1982
-38.1969	447.628	22.208
-38.1954	449.918	22.2178
-38.1969	441.738	22.2275
-38.1939	442.325	22.2373
-38.1931	442.381	22.24707
-38.1932	444.111	22.2568
-38.192	444.1123	22.2666
-38.1915	443.209	22.2764
-38.1911	447.8602	22.2861
-38.1893	443.4924	22.2959
-38.1897	441.216	22.3057
-38.1882	439.357	22.31543
-38.1881	443.85	22.3252
-38.1865	449.334	22.335
-38.1857	444.573	22.3447
-38.1848	444.515	22.3545
-38.1841	443.687	22.3643
-38.1838	440.938	22.374
-38.1823	443.992	22.3838
-38.1822	444.316	22.3936
-38.181	447.548	22.40332
-38.1798	448.2038	22.4131
-38.179	443.073	22.4229
-38.1782	439.19	22.4326
-38.1776	439.737	22.4424
-38.1777	446.308	22.4521
-38.1752	446.935	22.4619
-38.1747	447.148	22.47168
-38.1744	443.744	22.4814
-38.1732	442.171	22.4912
-38.1731	440.367	22.501
-38.1716	439.502	22.5107
-38.1703	446.046	22.5205
-38.17	449.636	22.5303
-38.1696	448.115	22.54
-38.1688	441.643	22.5498
-38.1682	437.615	22.55957
-38.1679	443.877	22.5693
-38.165	444.389	22.5791
-38.1645	448.249	22.5889
-38.1645	446.17	22.5986
-38.1633	442.269	22.6084
-38.1626	441.4093	22.6182
-38.1631	437.81	22.62793
-38.1614	443.348	22.6377
-38.16013	448.351	22.6475
-38.1597	447.037	22.6572
-38.1581	445.543	22.667
-38.1574	437.801	22.6768
-38.1588	440.789	22.6865
-38.1559	442.509	22.6963
-38.1557	447.163	22.7061
-38.1556	447.742	22.71582
-38.1546	443.325	22.7256
-38.1546	445.111	22.7354
-38.1527	439.786	22.7451
-38.1504	440.779	22.7549
-38.151	445.67	22.7646
-38.149	447.97	22.7744
-38.1498	447.774	22.78418
-38.1477	441.6131	22.7939
-38.1466	438.414	22.8037
-38.1482	441.8	22.8135
-38.1457	442.524	22.8232
-38.1455	444.479	22.833
-38.1436	444.544	22.8428
-38.1451	444.917	22.8525
-38.1428	439.985	22.8623
-38.1427	440.911	22.87207
-38.1414	440.464	22.8818
-38.13884	445.104	22.8916
-38.1413	448.6478	22.9014
-38.1389	444.692	22.9111
-38.1378	443.5275	22.9209
-38.1369	440.626	22.9307
-38.1359	442.683	22.94043
-38.1346	443.688	22.9502
-38.1344	442.615	22.96
-38.1333	446.288	22.9697
-38.1333	445.855	22.9795
-38.1319	441.645	22.9893
-38.1309	440.215	22.999
-38.1298	439.642	23.0088
-38.1304	447.488	23.0186
-38.1291	444.482	23.02832
-38.128	446.304	23.0381
-38.1279	442.708	23.0479
-38.1256	439.5596	23.0576
-38.125	441.818	23.0674
-38.1245	441.126	23.0771
-38.1242	446.405	23.0869
-38.1221	449.161	23.09668
-38.1225	442.42	23.1064
-38.12228	440.978	23.1162
-38.1212	438.91	23.126
-38.1203	442.21	23.1357
-38.1198	446.665	23.1455
-38.1187	447.465	23.1553
-38.1173	444.34	23.165
-38.1164	442.161	23.1748
-38.115	439.097	23.18457
-38.1153	438.209	23.1943
-38.1136	444.537	23.2041
-38.1139	448.231	23.2139
-38.11274	448.093	23.2236
-38.1117	442.144	23.2334
-38.1109	436.944	23.2432
-38.1098	439.794	23.25293
-38.1097	443.58	23.2627
-38.1077	448.217	23.2725
-38.1066	446.599	23.2822
-38.1069	441.918	23.292
-38.1055	442.443	23.3018
-38.1055	436.865	23.3115
-38.1042	440.991	23.3213
-38.1032	445.409	23.3311
-38.1032	446.084	23.34082
-38.1017	446.6084	23.3506
-38.1011	438.712	23.3604
-38.1009	439.717	23.3701
-38.0997	441.723	23.3799
-38.0996	443.548	23.3896
-38.0983	444.154	23.3994
-38.0966	443.21	23.40918
-38.0974	442.756	23.4189
-38.095	439.681	23.4287
-38.0946	439.827	23.4385
-38.0935	441.221	23.4482
-38.093	446.091	23.458
-38.0918	447.765	23.4678
-38.09153	441.887	23.4775
-38.09082	440.5148	23.4873
-38.0907	442.236	23.49707
-38.0893	441.142	23.5068
-38.0883	442.983	23.5166
-38.0867	443.363	23.5264
-38.088	443.582	23.5361
-38.0848	443.576	23.5459
-38.0847	440.204	23.5557
-38.084	437.446	23.56543
-38.083	442.302	23.5752
-38.08223	445.41	23.585
-38.0814	443.3	23.5947
-38.0811	444.555	23.6045
-38.0796	439.528	23.6143
-38.0799	440.317	23.624
-38.0783	440.647	23.6338
-38.07748	441.054	23.6436
-38.0766	446.609	23.65332
-38.0762	446.1915	23.6631
-38.075	441.362	23.6729
-38.0741	437.64	23.6826
-38.0737	437.91	23.6924
-38.0727	444.56	23.7021
-38.0715	445.29	23.7119
-38.0716	445.981	23.72168
-38.0705	442.629	23.7314
-38.0687	439.626	23.7412
-38.06834	439.8338	23.751
-38.0684	438.841	23.7607
-38.0673	444.309	23.7705
-38.066	448.6788	23.7803
-38.0654	444.777	23.79
-38.0646	439.888	23.7998
-38.0646	436.157	23.80957
-38.0619	441.16	23.8193
-38.0623	444.4169	23.8291
-38.06086	445.065	23.8389
-38.0599	444.7724	23.8486
-38.0596	441.495	23.8584
-38.0585	437.981	23.8682
-38.0582	437.771	23.87793
-38.05698	442.3147	23.8877
-38.0563	446.103	23.8975
-38.0565	447.602	23.9072
-38.0554	443.624	23.917
-38.05365	436.289	23.9268
-38.0534	437.817	23.9365
-38.053	441.014	23.9463
-38.051	444.93	23.9561
-38.0508	443.798	23.96582
-38.0504	442.133	23.9756
-38.0502	441.52	23.9854
-38.04792	435.942	23.9951
-38.047	439.505	24.0049
-38.0473	441.008	24.0146
-38.04554	444.951	24.0244
-38.0442	444.622	24.03418
-38.045	437.693	24.0439
-38.0429	438.176	24.0537
-38.0423	439.974	24.0635
-38.0418	440.252	24.0732
-38.04081	443.381	24.083
-38.0408	440.943	24.0928
-38.038	442.789	24.1025
-38.0385	440.004	24.1123
-38.0379	435.742	24.12207
-38.03743	438.457	24.1318
-38.0362	441.168	24.1416
-38.0359	446.9631	24.1514
-38.03334	441.066	24.1611
-38.0341	440.166	24.1709
-38.0333	441.42	24.1807
-38.0322	437.413	24.19043
-38.0298	440.226	24.2002
-38.0311	441.402	24.21
-38.0293	443.629	24.2197
-38.0293	443.254	24.2295
-38.0268	437.907	24.2393
-38.0274	435.081	24.249
-38.0254	437.909	24.2588
-38.02409	442.593	24.2686
-38.0247	441.831	24.27832
-38.0241	444.067	24.2881
-38.0236	437.847	24.2979
-38.0229	438.241	24.3076
-38.0216	436.551	24.3174
-38.02	435.98	24.3271
-38.0198	443.662	24.3369
-38.0197	443.021	24.34668
-38.0191	442.357	24.3564
-38.0173	436.46	24.3662
-38.0166	432.288	24.376
-38.0156	439.178	24.3857
-38.015	442.638	24.3955
-38.0145	443.298	24.4053
-38.0138	440.627	24.415
-38.0121	437.395	24.4248
-38.0105	437.812	24.43457
-38.0102	435.824	24.4443
-38.0097	439.672	24.4541
-38.0094	444.018	24.4639
-38.0076	442.445	24.4736
-38.0076	438.324	24.4834
-38.007	431.656	24.4932
-38.0063	432.268	24.50293
-38.0051	439.739	24.5127
-38.0047	439.602	24.5225
-38.0035	440.777	24.5322
-38.0022	437.256	24.542
-38.0015	435.385	24.5518
-38.0006	432.118	24.5615
-38.0006	436.083	24.5713
-37.9999	439.772	24.5811
-37.9981	442.712	24.59082
-37.99749	438.15	24.6006
-37.9972	432.872	24.6104
-37.9962	433.086	24.6201
-37.99585	436.383	24.6299
-37.994	438.456	24.6396
-37.9945	438.739	24.6494
-37.9928	436.084	24.65918
-37.9917	435.5632	24.6689
-37.9916	430.135	24.6787
-37.9893	430.673	24.6885
-37.99	432.37	24.6982
-37.9874	436.521	24.708
-37.9881	438.909	24.7178
-37.9871	430.151	24.7275
-37.9862	427.806	24.7373
-37.9855	72.2734	24.74707
-37.9802	-48.9346	24.7568
-37.9812	-53.7634	24.7666
-37.9821	-50.1541	24.7764
-37.9809	-33.851	24.7861
-37.9811	-36.8916	24.7959
-37.9798	-47.8114	24.8057
-37.9786	-43.5774	24.81543
-37.9767	-44.3793	24.8252
-37.9775	-38.1492	24.835
-37.977	-40.1198	24.8447
-37.976	-41.7981	24.8545
-37.9747	-44.535	24.8643
-37.9749	-45.1824	24.874
-37.9735	-42.70314	24.8838
-37.9718	-43.4983	24.8936
-37.9713	-38.9688	24.90332
-37.9694	-37.9509	24.9131
-37.971	-43.5751	24.9229
-37.96954	-47.1225	24.9326
-37.969	-48.6423	24.9424
-37.9678	-41.8895	24.9521
-37.96714	-38.4347	24.9619
-37.9671	-38.45499	24.97168
-37.9656	-41.8875	24.9814
-37.9646	-41.964	24.9912
-37.9636	-45.1832	25.001
-37.96191	-44.762	25.0107
-37.9622	-39.4319	25.0205
-37.9611	-37.985	25.0303
-37.9606	-38.9507	25.04
-37.96	-45.8674	25.0498
-37.9586	-50.0915	25.05957
-37.9577	-44.4131	25.0693
-37.958	-39.5631	25.0791
-37.9568	-37.6951	25.0889
-37.9565	-40.2423	25.0986
-37.954	-45.1805	25.1084
-37.9528	-43.2896	25.1182
-37.9538	-47.3903	25.12793
-37.9528	-42.6205	25.1377
-37.9518	-40.5724	25.1475
-37.951	-39.4977	25.1572
-37.95	-40.4143	25.167
-37.9506	-48.2471	25.1768
-37.9487	-48.2015	25.1865
-37.94743	-40.7243	25.1963
-37.9473	-40.4817	25.2061
-37.9458	-38.0244	25.21582
-37.9444	-41.8247	25.2256
-37.9453	-43.228	25.2354
-37.9439	-47.0519	25.2451
-37.94294	-44.568	25.2549
-37.94265	-41.9642	25.2646
-37.9411	-38.3754	25.2744
-37.94	-40.0815	25.28418
-37.9394	-44.9164	25.2939
-37.9387	-47.0192	25.3037
-37.9384	-45.6191	25.3135
-37.9385	-41.4485	25.3232
-37.9362	-41.6657	25.333
-37.9349	-41.2381	25.3428
-37.9363	-41.2576	25.3525
-37.9339	-42.2861	25.3623
-37.9334	-45.4851	25.37207
-37.9319	-46.7958	25.3818
-37.9322	-41.9059	25.3916
-37.9304	-38.231	25.4014
-37.9295	-43.7916	25.4111
-37.92897	-42.4591	25.4209
-37.9292	-45.6132	25.4307
-37.9281	-45.44738	25.44043
-37.9264	-43.1537	25.4502
-37.9257	-43.6476	25.46
-37.9245	-39.3839	25.4697
-37.9243	-39.95853	25.4795
-37.9236	-43.8094	25.4893
-37.9217	-45.1387	25.499
-37.9219	-46.12368	25.5088
-37.9206	-39.8146	25.5186
-37.9201	-42.4488	25.52832
-37.92	-41.02319	25.5381
-37.9172	-42.7426	25.5479
-37.9182	-45.8948	25.5576
-37.9171	-46.1931	25.5674
-37.9172	-44.9885	25.5771
-37.9148	-40.1552	25.5869
-37.9146	-37.23624	25.59668
-37.9132	-41.1929	25.6064
-37.9127	-45.7844	25.6162
-37.9123	-48.0605	25.626
-37.9104	-43.81744	25.6357
-37.9112	-39.1476	25.6455
-37.9095	-38.7033	25.6553
-37.9082	-40.3688	25.665
-37.9072	-43.6357	25.6748
-37.90807	-45.0135	25.68457
-37.9062	-47.7561	25.6943
-37.9053	-41.80106	25.7041
-37.9048	-39.2151	25.7139
-37.9039	-37.7801	25.7236
-37.9022	-44.2618	25.7334
-37.9028	-48.5118	25.7432
-37.90205	-44.8941	25.75293
-37.90049	-41.4668	25.7627
-37.8989	-39.3918	25.7725
-37.8993	-39.9516	25.7822
-37.8967	-42.5976	25.792
-37.8973	-44.7854	25.8018
-37.8966	-48.33984	25.8115
-37.8954	-43.97739	25.8213
-37.8957	-40.6349	25.8311
-37.8937	-39.9534	25.84082
-37.8933	-39.1977	25.8506
-37.8928	-47.8554	25.8604
-37.8915	-46.5728	25.8701
-37.89119	-44.3897	25.8799
-37.8892	-42.4139	25.8896
-37.8895	-38.88	25.8994
-37.8889	-43.011	25.90918
-37.88866	-42.7761	25.9189
-37.8876	-45.36095	25.9287
-37.88583	-45.5508	25.9385
-37.8854	-42.7352	25.9482
-37.8843	-40.1365	25.958
-37.8845	-38.0374	25.9678
-37.88348	-42.883	25.9775
-37.8826	-44.939	25.9873
-37.8806	-46.1268	25.99707
-37.8804	-42.5252	26.0068
-37.8804	-42.4143	26.0166
-37.8781	-42.1305	26.0264
-37.8777	-41.2782	26.0361
-37.8765	-42.878	26.0459
-37.8766	-44.513	26.0557
-37.87508	-47.38839	26.06543
-37.874	-43.9525	26.0752
-37.8732	-38.82095	26.085
-37.8724	-40.2693	26.0947
-37.8723	-39.0829	26.1045
-37.8709	-45.9647	26.1143
-37.8709	-43.6678	26.124
-37.8699	-43.547	26.1338
-37.8692	-44.6606	26.1436
-37.8688	-38.81786	26.15332
-37.868	-39.7762	26.1631
-37.8666	-43.8099	26.1729
-37.8656	-46.3548	26.1826
-37.8649	-48.30381	26.1924
-37.8636	-40.02565	26.2021
-37.8623	-40.0077	26.2119
-37.8627	-38.8805	26.22168
-37.8623	-42.0215	26.2314
-37.8615	-46.1505	26.2412
-37.8592	-45.0502	26.251
-37.8595	-46.6369	26.2607
-37.8576	-40.7075	26.2705
-37.8576	-36.9756	26.2803
-37.8571	-41.3871	26.29
-37.8554	-45.0674	26.2998
-37.854	-49.2465	26.30957
-37.8551	-44.67	26.3193
-37.8542	-40.0935	26.3291
-37.8532	-37.9528	26.3389
-37.852	-39.0992	26.3486
-37.8507	-44.53	26.3584
-37.851	-45.695	26.3682
-37.8489	-48.0517	26.37793
-37.8496	-42.4912	26.3877
-37.8474	-40.4901	26.3975
-37.8462	-37.3614	26.4072
-37.8458	-42.6525	26.417
-37.8461	-47.7578	26.4268
-37.8443	-46.57	26.4365
-37.8451	-42.0467	26.4463
-37.8431	-39.08839	26.4561
-37.8412	-39.8618	26.46582
-37.8419	-42.3355	26.4756
-37.8396	-40.663	26.4854
-37.8393	-47.9073	26.4951
-37.8378	-43.6718	26.5049
-37.8383	-42.086	26.5146
-37.8375	-40.8782	26.5244
-37.8364	-37.5034	26.53418
-37.8354	-46.0268	26.5439
-37.8349	-44.8611	26.5537
-37.8334	-44.5178	26.5635
-37.832	-42.5895	26.5732
-37.8313	-40.42519	26.583
-37.8321	-42.6194	26.5928
-37.8303	-41.2118	26.6025
-37.8289	-43.0459	26.6123
-37.82933	-45.622	26.62207
-37.8278	-46.362	26.6318
-37.8274	-42.6321	26.6416
-37.8269	-39.6035	26.6514
-37.8253	-40.5937	26.6611
-37.825	-42.9783	26.6709
-37.8241	-43.9608	26.6807
-37.8219	-43.7216	26.69043
-37.8223	-43.177	26.7002
-37.8223	-42.3542	26.71
-37.8214	-40.57206	26.7197
-37.8202	-40.5328	26.7295
-37.8197	-45.3005	26.7393
-37.8185	-47.6982	26.749
-37.8169	-44.1733	26.7588
-37.817	-40.1135	26.7686
-37.8158	-41.0423	26.77832
-37.81538	-39.7076	26.7881
-37.8139	-44.8274	26.7979
-37.813	-45.9288	26.8076
-37.8139	-43.6285	26.8174
-37.811	-45.5974	26.8271
-37.8117	-38.3628	26.8369
-37.8106	-39.3457	26.84668
-37.8096	-41.3826	26.8564
-37.8087	-45.6708	26.8662
-37.8073	-49.6299	26.876