File: data/processed_data_files/tensile/0.254_hd_dimension_typeiv_090_r(7).dat
MTS793|BTW|ENU|1|2|.|/|:|1|0|0|A

Data Header:			0.254_hd_dimension_typeiv_090_r0			Time:	20.0183	s	4/14/2019 12:35:48 AM
Data Acquisition:	Timed
Station Name:	ft40.cfg
Test File Name:	monotonic_0.2540_typeiv_hd_090_dimension.tst
Displacement	Force	Running Time
mm	N	s
-40.0399	-158.896	0.0234375
-40.0409	-157.323	0.04296875
-40.0409	-158.228	0.0625
-40.0415	-159.567	0.08203125
-40.03896	-156.418	0.1015625
-40.0381	-157.106	0.121094
-40.0359	-158.466	0.140625
-40.03558	-153.078	0.160156
-40.033	-150.924	0.1796875
-40.0318	-157.025	0.199219
-40.0294	-149.051	0.21875
-40.0282	-148.086	0.238281
-40.0275	-153.3324	0.2578125
-40.0261	-149.863	0.277344
-40.02441	-140.153	0.296875
-40.0226	-149.5195	0.316406
-40.0196	-144.135	0.3359375
-40.0193	-142.296	0.355469
-40.0165	-143.547	0.375
-40.0164	-144.318	0.394531
-40.015	-136.353	0.4140625
-40.0126	-140.511	0.433594
-40.0107	-140.758	0.453125
-40.0094	-136.837	0.472656
-40.0078	-134.97	0.4921875
-40.0052	-136.987	0.511719
-40.00375	-134.374	0.53125
-40.0015	-134.2027	0.550781
-40	-133.557	0.5703125
-39.999	-133.405	0.589844
-39.9979	-127.248	0.609375
-39.9964	-130.77	0.628906
-39.9943	-128.955	0.6484375
-39.9924	-124.5439	0.667969
-39.9903	-125.751	0.6875
-39.9888	-129.043	0.707031
-39.9884	-124.203	0.7265625
-39.9859	-121.345	0.746094
-39.9845	-125.684	0.765625
-39.9828	-120.403	0.785156
-39.9812	-120.763	0.8046875
-39.9801	-124.811	0.824219
-39.9788	-117.7906	0.84375
-39.9766	-112.48	0.863281
-39.9748	-122.603	0.8828125
-39.9735	-115.387	0.902344
-39.9716	-112.783	0.921875
-39.97002	-114.888	0.941406
-39.9674	-115.928	0.9609375
-39.9664	-105.203	0.980469
-39.9656	-113.53	1
-39.9635	-109.374	1.01953
-39.9621	-106.691	1.03906
-39.9607	-107.271	1.05859
-39.9589	-109.37	1.078125
-39.9566	-101.565	1.09766
-39.95454	-105.433	1.11719
-39.9529	-106.062	1.13672
-39.952	-104.041	1.15625
-39.9496	-99.19915	1.17578
-39.9491	-102.559	1.19531
-39.94838	-99.8696	1.21484
-39.9445	-98.3754	1.234375
-39.9448	-99.2961	1.25391
-39.9428	-99.00602	1.27344
-39.9403	-91.95269	1.29297
-39.938	-95.15815	1.3125
-39.9377	-96.4539	1.33203
-39.9353	-90.89135	1.35156
-39.9354	-91.7826	1.37109
-39.9337	-93.0192	1.390625
-39.932	-89.2918	1.41016
-39.929	-85.0996	1.42969
-39.9273	-89.8374	1.44922
-39.9261	-87.8876	1.46875
-39.925	-83.36338	1.48828
-39.9216	-87.2868	1.50781
-39.921	-84.93261	1.52734
-39.9204	-78.0747	1.546875
-39.917	-86.2473	1.56641
-39.9168	-81.4426	1.58594
-39.915	-78.0632	1.60547
-39.9132	-78.6919	1.625
-39.91172	-81.7067	1.64453
-39.9085	-73.1236	1.66406
-39.9075	-78.7068	1.68359
-39.9074	-75.3287	1.703125
-39.9047	-72.6948	1.72266
-39.9032	-71.2067	1.74219
-39.9015	-74.8014	1.76172
-39.8997	-68.4686	1.78125
-39.8985	-68.3107	1.80078
-39.8961	-70.3647	1.82031
-39.8951	-71.5794	1.83984
-39.8937	-63.8576	1.859375
-39.891	-65.3254	1.87891
-39.8897	-65.7614	1.89844
-39.8888	-63.746	1.91797
-39.8872	-63.5827	1.9375
-39.8861	-66.2197	1.95703
-39.8846	-59.1531	1.97656
-39.8816	-58.4417	1.99609
-39.8799	-64.1509	2.015625
-39.8796	-57.9366	2.03516
-39.8771	-55.8063	2.05469
-39.8748	-57.53672	2.07422
-39.8734	-56.15	2.09375
-39.8715	-50.7148	2.11328
-39.8707	-56.9105	2.13281
-39.8694	-52.3555	2.15234
-39.8685	-51.04866	2.171875
-39.8656	-53.4817	2.19141
-39.8646	-50.97	2.21094
-39.8634	-43.4223	2.23047
-39.8604	-52.0916	2.25
-39.8596	-48.3343	2.26953
-39.8578	-43.93663	2.28906
-39.85582	-42.9908	2.30859
-39.8548	-45.2963	2.328125
-39.8526	-39.516	2.34766
-39.8506	-42.8201	2.36719
-39.8495	-42.9987	2.38672
-39.8473	-40.5539	2.40625
-39.8464	-37.1516	2.42578
-39.8459	-41.5466	2.44531
-39.8435	-37.0228	2.46484
-39.84	-33.3347	2.484375
-39.8402	-35.1925	2.50391
-39.8385	-37.9002	2.52344
-39.8377	-30.7085	2.54297
-39.834	-31.9384	2.5625
-39.83392	-32.1242	2.58203
-39.8319	-29.58346	2.60156
-39.8311	-28.5151	2.62109
-39.82859	-31.611	2.640625
-39.8265	-25.1969	2.66016
-39.8244	-24.1715	2.67969
-39.8233	-29.84	2.69922
-39.822	-25.80616	2.71875
-39.8214	-20.334	2.73828
-39.8188	-25.0421	2.75781
-39.8171	-23.24613	2.77734
-39.8155	-16.176	2.796875
-39.8138	-23.5159	2.81641
-39.8132	-18.4654	2.83594
-39.8102	-15.5347	2.85547
-39.8093	-18.8565	2.875
-39.807	-18.0834	2.89453
-39.8053	-9.506012	2.91406
-39.80344	-16.0403	2.93359
-39.8024	-14.6563	2.953125
-39.8008	-13.507	2.97266
-39.7989	-8.4687	2.99219
-39.7976	-11.9079	3.01172
-39.7966	-5.52338	3.03125
-39.7929	-10.1273	3.05078
-39.7932	-8.35524	3.07031
-39.7905	-9.189373	3.08984
-39.7896	-0.873828	3.109375
-39.7877	-5.87893	3.12891
-39.7863	-5.64736	3.14844
-39.7837	-1.99446	3.16797
-39.7836	-1.30034	3.1875
-39.7813	-5.57079	3.20703
-39.7797	2.03891	3.22656
-39.7787	3.0558	3.24609
-39.7773	-0.379735	3.265625
-39.7743	3.27823	3.28516
-39.7728	5.97833	3.30469
-39.7718	0.645891	3.32422
-39.7703	6.01767	3.34375
-39.7679	13.26543	3.36328
-39.7661	4.52868	3.38281
-39.7647	8.04182	3.40234
-39.7631	12.4991	3.421875
-39.7617	10.1326	3.44141
-39.7601	9.66657	3.46094
-39.7582	19.559	3.48047
-39.7578	12.20687	3.5
-39.7551	13.7204	3.51953
-39.7527	18.0096	3.53906
-39.752	18.7015	3.55859
-39.7504	13.752	3.578125
-39.7478	22.7108	3.59766
-39.7473	20.2659	3.61719
-39.7462	18.8399	3.63672
-39.7445	19.2593	3.65625
-39.742	26.3399	3.67578
-39.7408	22.17828	3.69531
-39.7395	26.0118	3.71484
-39.7364	25.1767	3.734375
-39.7352	26.5611	3.75391
-39.7337	24.8291	3.77344
-39.7317	32.2138	3.79297
-39.73	30.88076	3.8125
-39.7299	28.6977	3.83203
-39.7284	31.9255	3.85156
-39.7262	35.0217	3.87109
-39.7248	30.5994	3.890625
-39.72261	35.3693	3.91016
-39.7221	38.541	3.92969
-39.7185	34.5164	3.94922
-39.7183	36.9035	3.96875
-39.7154	40.7313	3.98828
-39.71331	36.7512	4.00781
-39.7141	38.1102	4.02734
-39.7109	45.3844	4.046875
-39.7095	40.9415	4.06641
-39.707	41.0989	4.08594
-39.7078	46.0185	4.10547
-39.7059	45.2426	4.125
-39.7037	42.83252	4.14453
-39.7017	51.9114	4.16406
-39.7	47.307	4.18359
-39.6988	46.1378	4.203125
-39.6973	50.8711	4.22266
-39.6956	52.6242	4.24219
-39.6931	48.924	4.26172
-39.6927	56.4228	4.28125
-39.6903	54.232	4.30078
-39.689	54.6398	4.32031
-39.6876	51.2988	4.33984
-39.6861	59.5978	4.359375
-39.6846	57.3881	4.37891
-39.682	58.8121	4.39844
-39.6806	60.0328	4.41797
-39.6786	62.0207	4.4375
-39.6771	56.8209	4.45703
-39.6755	65.0264	4.47656
-39.674	65.7078	4.49609
-39.6721	61.9394	4.515625
-39.6714	64.4301	4.53516
-39.6689	68.7331	4.55469
-39.6678	64.1207	4.57422
-39.66515	68.113	4.59375
-39.6641	72.8293	4.61328
-39.6622	66.7656	4.63281
-39.6621	68.6802	4.65234
-39.6592	75.9771	4.671875
-39.65733	71.1473	4.69141
-39.6565	69.4799	4.71094
-39.65461	80.3343	4.73047
-39.65234	74.6692	4.75
-39.6513	74.5797	4.76953
-39.6497	80.0112	4.78906
-39.6483	79.9886	4.80859
-39.6469	78.0501	4.828125
-39.6457	85.0619	4.84766
-39.6421	80.73893	4.86719
-39.6413	81.3936	4.88672
-39.6403	82.6934	4.90625
-39.6384	88.5013	4.92578
-39.6359	82.1333	4.94531
-39.6354	86.8888	4.96484
-39.6347	89.0693	4.984375
-39.6319	88.4572	5.00391
-39.6311	86.7937	5.02344
-39.6279	94.3586	5.04297
-39.6267	91.8351	5.0625
-39.6257	91.318	5.08203
-39.6239	92.9639	5.10156
-39.6218	95.8589	5.12109
-39.6204	91.1834	5.140625
-39.6185	97.2318	5.16016
-39.6176	101.0539	5.17969
-39.6152	95.7278	5.19922
-39.61277	96.2051	5.21875
-39.6118	102.891	5.23828
-39.6109	98.7254	5.25781
-39.6091	100.741	5.27734
-39.6066	107.089	5.296875
-39.6058	101.5165	5.31641
-39.6041	101.018	5.33594
-39.6028	108.974	5.35547
-39.6004	105.874	5.375
-39.5994	103.2479	5.39453
-39.5978	112.823	5.41406
-39.5953	109.11	5.43359
-39.5947	107.908	5.453125
-39.5935	111.012	5.47266
-39.5913	114.358	5.49219
-39.5883	110.306	5.51172
-39.5879	118.033	5.53125
-39.5864	115.204	5.55078
-39.5849	114.856	5.57031
-39.5827	114.303	5.58984
-39.5824	122.532	5.609375
-39.5797	118.481	5.62891
-39.5771	118.667	5.64844
-39.5769	120.062	5.66797
-39.57465	123.17	5.6875
-39.5739	119.157	5.70703
-39.57209	126.284	5.72656
-39.5706	125.084	5.74609
-39.5673	123.804	5.765625
-39.5666	125.859	5.78516
-39.56456	130.7868	5.80469
-39.5632	124.907	5.82422
-39.56155	130.467	5.84375
-39.5606	134.016	5.86328
-39.5571	129.404	5.88281
-39.5566	130.2784	5.90234
-39.5551	134.997	5.921875
-39.55402	132.594	5.94141
-39.5515	131.618	5.96094
-39.5501	139.953	5.98047
-39.5504	134.337	6
-39.5478	132.892	6.01953
-39.5445	140.314	6.03906
-39.5448	139.05	6.05859
-39.5425	135.5038	6.078125
-39.5413	142.972	6.09766
-39.5398	142.26	6.11719
-39.5377	140.337	6.13672
-39.5364	141.345	6.15625
-39.5337	147.22	6.17578
-39.5332	142.581	6.19531
-39.53157	147.919	6.21484
-39.52877	149.192	6.234375
-39.5279	147.151	6.25391
-39.5266	145.869	6.27344
-39.5251	154.055	6.29297
-39.5236	152.411	6.3125
-39.5205	150.955	6.33203
-39.5205	152.948	6.35156
-39.5184	156.335	6.37109
-39.5161	151.682	6.390625
-39.5147	157.889	6.41016
-39.5127	158.591	6.42969
-39.5119	154.812	6.44922
-39.5104	158.8051	6.46875
-39.509	164.492	6.48828
-39.5061	157.975	6.50781
-39.5052	159.7973	6.52734
-39.5031	166.882	6.546875
-39.5017	162.304	6.56641
-39.5001	162.297	6.58594
-39.49876	168.614	6.60547
-39.4968	165.66	6.625
-39.4948	163.813	6.64453
-39.4934	172.263	6.66406
-39.4919	166.047	6.68359
-39.4905	165.315	6.703125
-39.4894	171.892	6.72266
-39.48698	175.022	6.74219
-39.4858	168.654	6.76172
-39.484	175.254	6.78125
-39.4827	175.526	6.80078
-39.4802	174.27	6.82031
-39.4781	174.594	6.83984
-39.4778	179.451	6.859375
-39.4767	176.2019	6.87891
-39.4745	177.859	6.89844
-39.4724	181.041	6.91797
-39.4708	181.354	6.9375
-39.4689	177.385	6.95703
-39.4675	186.377	6.97656
-39.4651	186.181	6.99609
-39.4633	182.7811	7.015625
-39.4622	183.674	7.03516
-39.4611	190.165	7.05469
-39.46	181.993	7.07422
-39.4577	188.789	7.09375
-39.4573	194.074	7.11328
-39.4539	187.1252	7.13281
-39.4534	189.013	7.15234
-39.4509	195.692	7.171875
-39.45002	190.35	7.19141
-39.4474	190.554	7.21094
-39.4467	197.458	7.23047
-39.4448	193.79	7.25
-39.4426	190.594	7.26953
-39.4415	198.485	7.28906
-39.4396	197.078	7.30859
-39.4378	193.782	7.328125
-39.4366	204.494	7.34766
-39.4346	200.488	7.36719
-39.4332	197.761	7.38672
-39.4316	201.277	7.40625
-39.4303	206.277	7.42578
-39.4287	200.057	7.44531
-39.4278	207.044	7.46484
-39.425	206.106	7.484375
-39.4236	207.894	7.50391
-39.4233	205.411	7.52344
-39.41983	214.015	7.54297
-39.41906	210.526	7.5625
-39.4165	209.8383	7.58203
-39.4151	214.247	7.60156
-39.4142	215.728	7.62109
-39.41341	208.077	7.640625
-39.4104	215.702	7.66016
-39.4094	217.536	7.67969
-39.4073	213.96	7.69922
-39.4056	214.866	7.71875
-39.4046	221.2668	7.73828
-39.4021	214.23	7.75781
-39.3997	217.834	7.77734
-39.4	225.038	7.796875
-39.3976	218.523	7.81641
-39.3965	216.766	7.83594
-39.3946	226.369	7.85547
-39.3925	223.239	7.875
-39.39003	219.189	7.89453
-39.3896	228.669	7.91406
-39.3871	227.981	7.93359
-39.3864	223.164	7.953125
-39.3841	230.772	7.97266
-39.3835	229.445	7.99219
-39.3814	224.8181	8.01172
-39.3795	234.682	8.03125
-39.3782	234.308	8.05078
-39.3756	229.451	8.07031
-39.3737	231.483	8.08984
-39.3726	237.667	8.109375
-39.3721	233.233	8.12891
-39.3697	235.188	8.14844
-39.3689	237.518	8.16797
-39.3665	239.194	8.1875
-39.3644	234.549	8.20703
-39.3643	243.662	8.22656
-39.3607	241.13	8.24609
-39.3601	240.601	8.265625
-39.358	241.827	8.28516
-39.3568	249.692	8.30469
-39.3549	239.506	8.32422
-39.353	243.435	8.34375
-39.352	251.126	8.36328
-39.3495	245.775	8.38281
-39.3484	245.589	8.40234
-39.34745	253.226	8.421875
-39.3457	245.646	8.44141
-39.3439	249.654	8.46094
-39.3423	256.799	8.48047
-39.3405	251.451	8.5
-39.3395	246.226	8.51953
-39.3371	257.141	8.53906
-39.3363	254.739	8.55859
-39.3345	251.773	8.578125
-39.3325	258.983	8.59766
-39.3306	258.234	8.61719
-39.3289	253.814	8.63672
-39.3271	258.614	8.65625
-39.3275	261.4881	8.67578
-39.3237	256.271	8.69531
-39.3225	262.671	8.71484
-39.3217	263.864	8.734375
-39.319	262.622	8.75391
-39.3171	260.891	8.77344
-39.3149	267.876	8.79297
-39.3144	265.178	8.8125
-39.3135	265.183	8.83203
-39.3107	267.626	8.85156
-39.3113	272.065	8.87109
-39.3072	264.3631	8.890625
-39.3062	273.055	8.91016
-39.3062	273.394	8.92969
-39.3037	269.425	8.94922
-39.3014	272.2991	8.96875
-39.3003	278.7511	8.98828
-39.2974	271.31	9.00781
-39.298	272.778	9.02734
-39.2953	279.829	9.046875
-39.2923	276.52	9.06641
-39.2925	274.796	9.08594
-39.2899	284.992	9.10547
-39.2884	279.143	9.125
-39.2871	277.781	9.14453
-39.2851	286.067	9.16406
-39.28392	283.584	9.18359
-39.2817	277.986	9.203125
-39.2794	286.279	9.22266
-39.2779	286.076	9.24219
-39.2778	283.098	9.26172
-39.275	287.825	9.28125
-39.2741	288.925	9.30078
-39.2723	285.589	9.32031
-39.2705	288.383	9.33984
-39.2693	293.285	9.359375
-39.26767	287.024	9.37891
-39.2656	290.901	9.39844
-39.2655	294.248	9.41797
-39.2626	293.574	9.4375
-39.2609	289.455	9.45703
-39.2589	296.71	9.47656
-39.2584	296.607	9.49609
-39.256	294.429	9.515625
-39.2546	296.949	9.53516
-39.2525	302.317	9.55469
-39.2504	294.166	9.57422
-39.249	301.991	9.59375
-39.2473	305.098	9.61328
-39.2464	298.9642	9.63281
-39.2449	298.364	9.65234
-39.2425	308.0264	9.671875
-39.2415	302.335	9.69141
-39.2392	301.474	9.71094
-39.2375	310.646	9.73047
-39.2366	306.2197	9.75
-39.2342	304.137	9.76953
-39.2327	313.239	9.78906
-39.231	309.404	9.80859
-39.22982	305.549	9.828125
-39.22842	313.761	9.84766
-39.2277	314.044	9.86719
-39.2255	307.595	9.88672
-39.2239	313.272	9.90625
-39.2205	316.087	9.92578
-39.2207	310.86	9.94531
-39.2185	315.265	9.96484
-39.2166	318.347	9.984375
-39.2153	315.019	10.0039
-39.214	315.389	10.0234
-39.2131	322.634	10.043
-39.2109	318.748	10.0625
-39.2089	318.101	10.082
-39.2066	322.162	10.1016
-39.2046	325.193	10.1211
-39.2048	317.018	10.1406
-39.2018	324.612	10.1602
-39.2006	325.703	10.1797
-39.1986	324.645	10.1992
-39.1968	324.76	10.21875
-39.19537	332.437	10.2383
-39.1945	322.929	10.2578
-39.1935	328.403	10.2773
-39.1904	334.716	10.2969
-39.18948	329.69	10.3164
-39.1878	325.835	10.3359
-39.1851	335.812	10.3555
-39.1849	330.61	10.375
-39.1831	330.184	10.3945
-39.1812	337.185	10.4141
-39.1792	334.954	10.4336
-39.1781	330.497	10.4531
-39.175	339.845	10.4727
-39.1739	339.212	10.4922
-39.173	333.75	10.5117
-39.1714	340.599	10.53125
-39.17	342.573	10.5508
-39.16869	337.398	10.5703
-39.1666	339.629	10.5898
-39.165	345.445	10.6094
-39.1631	339.985	10.6289
-39.1621	344.113	10.6484
-39.1602	344.744	10.668
-39.158	344.981	10.6875
-39.1565	341.864	10.707
-39.1549	349.77	10.7266
-39.1536	348.502	10.7461
-39.1521	346.794	10.7656
-39.1499	348.107	10.7852
-39.1483	353.042	10.8047
-39.1466	345.893	10.8242
-39.1452	351.961	10.84375
-39.14312	356.436	10.8633
-39.1418	352.196	10.8828
-39.1413	350.083	10.9023
-39.1396	358.486	10.9219
-39.1375	351.934	10.9414
-39.1356	353.09	10.9609
-39.134	360.676	10.9805
-39.1319	357.704	11
-39.129	351.404	11.0195
-39.1288	360.892	11.0391
-39.12714	359.306	11.0586
-39.1255	356.652	11.0781
-39.1247	363.247	11.0977
-39.1222	362.61	11.1172
-39.1206	357.262	11.1367
-39.1186	364.692	11.15625
-39.1176	366.477	11.1758
-39.1153	359.75	11.1953
-39.1144	364.737	11.2148
-39.1123	368.703	11.2344
-39.1106	365.52	11.2539
-39.1089	363.785	11.2734
-39.1083	371.127	11.293
-39.1072	369.13	11.3125
-39.1039	367.708	11.332
-39.1035	371.87	11.3516
-39.1008	371.868	11.3711
-39.0989	366.246	11.3906
-39.0979	375.846	11.4102
-39.096	376.971	11.4297
-39.0952	372.046	11.4492
-39.09317	372.002	11.46875
-39.0926	380.942	11.4883
-39.0904	372.218	11.5078
-39.0887	375.863	11.5273
-39.0866	381.342	11.5469
-39.0852	377.7186	11.5664
-39.0836	375.113	11.5859
-39.0821	384.319	11.6055
-39.0799	379.921	11.625
-39.0781	375.748	11.6445
-39.0774	385.792	11.6641
-39.0739	385.3056	11.6836
-39.0735	378.019	11.7031
-39.0715	386.534	11.7227
-39.0704	385.5325	11.7422
-39.0694	382.336	11.7617
-39.0674	389.0434	11.78125
-39.0655	388.2814	11.8008
-39.06353	383.691	11.8203
-39.0614	387.888	11.8398
-39.0612	391.8168	11.8594
-39.0596	385.3165	11.8789
-39.0573	388.74	11.8984
-39.0555	392.372	11.918
-39.0537	391.941	11.9375
-39.0521	388.931	11.957
-39.0508	395.397	11.9766
-39.0498	393.943	11.9961
-39.04834	393.376	12.0156
-39.0454	395.091	12.0352
-39.0449	397.898	12.0547
-39.0426	390.703	12.0742
-39.0415	397.241	12.09375
-39.0391	402.073	12.1133
-39.0389	396.686	12.1328
-39.0367	394.294	12.1523
-39.0342	405.06	12.1719
-39.033	397.66	12.1914
-39.0316	398.614	12.2109
-39.0304	404.398	12.2305
-39.0268	401.132	12.25
-39.0268	396.7446	12.2695
-39.0249	408.416	12.2891
-39.0239	403.65	12.3086
-39.0223	398.762	12.3281
-39.0205	407.525	12.3477
-39.0187	407.28	12.3672
-39.01556	401.343	12.3867
-39.01482	406.556	12.40625
-39.0139	409.453	12.4258
-39.0117	405.326	12.4453
-39.0098	410.024	12.4648
-39.0086	410.52	12.4844
-39.0072	408.042	12.5039
-39.0053	407.089	12.5234
-39.0047	416.097	12.543
-39.0027	410.963	12.5625
-39.0003	410.978	12.582
-38.9992	414.0079	12.6016
-38.9977	415.859	12.6211
-38.99556	411.249	12.6406
-38.99297	416.071	12.6602
-38.9925	415.823	12.6797
-38.9918	413.588	12.6992
-38.989	415.064	12.71875
-38.9868	421.895	12.7383
-38.98542	411.887	12.7578
-38.9841	415.659	12.7773
-38.9823	422.304	12.7969
-38.9807	418.965	12.8164
-38.9784	414.838	12.8359
-38.9781	423.475	12.8555
-38.9762	418.275	12.875
-38.9743	420.423	12.8945
-38.973	425.27	12.9141
-38.9717	423.363	12.9336
-38.9691	415.877	12.9531
-38.9676	425.845	12.9727
-38.9666	425.9433	12.9922
-38.96542	418.533	13.0117
-38.963	426.775	13.03125
-38.9616	428.795	13.0508
-38.9592	423.066	13.0703
-38.959	424.337	13.0898
-38.9556	429.83	13.1094
-38.95396	423.863	13.1289
-38.9544	428.206	13.1484
-38.95195	429.127	13.168
-38.9496	427.861	13.1875
-38.9486	423.7265	13.207
-38.9463	433.1098	13.2266
-38.9458	431.878	13.2461
-38.9438	426.735	13.2656
-38.94096	429.775	13.2852
-38.9402	434.124	13.3047
-38.9386	428.183	13.3242
-38.9378	433.003	13.34375
-38.9352	436.025	13.3633
-38.93343	431.359	13.3828
-38.9326	430.914	13.4023
-38.9305	439.316	13.4219
-38.9288	431.405	13.4414
-38.9268	432.233	13.4609
-38.9262	438.22	13.4805
-38.9231	435.174	13.5
-38.9216	431.294	13.5195
-38.9207	439.953	13.5391
-38.919	436.055	13.5586
-38.9177	432.556	13.5781
-38.9155	440.966	13.5977
-38.914	439.152	13.6172
-38.9128	433.4213	13.6367
-38.9118	441.017	13.65625
-38.9089	442.108	13.6758
-38.9068	436.519	13.6953
-38.9061	438.6741	13.7148
-38.9036	444.167	13.7344
-38.90295	438.048	13.7539
-38.9002	439.026	13.7734
-38.8999	444.333	13.793
-38.8979	439.7995	13.8125
-38.8968	441.4	13.832
-38.8947	445.451	13.8516
-38.89172	443.762	13.8711
-38.8914	437.693	13.8906
-38.8902	444.711	13.9102
-38.8867	446.546	13.9297
-38.8865	441.987	13.9492
-38.8851	441.266	13.96875
-38.8835	448.008	13.9883
-38.881	440.3862	14.0078
-38.8793	444.928	14.0273
-38.8779	449.02	14.0469
-38.8766	445.015	14.0664
-38.8744	442.248	14.0859
-38.8732	450.053	14.1055
-38.8712	444.63	14.125
-38.8704	442.295	14.1445
-38.8683	450.048	14.1641
-38.8668	449.01	14.1836
-38.8657	440.861	14.2031
-38.8647	450.2832	14.2227
-38.8613	447.995	14.2422
-38.8604	442.991	14.2617
-38.8581	451.123	14.28125
-38.858	452.058	14.3008
-38.8562	443.071	14.3203
-38.8541	448.407	14.3398
-38.8529	453.3848	14.3594
-38.8509	446.26	14.3789
-38.85	449.405	14.3984
-38.8472	450.985	14.418
-38.8452	451.082	14.4375
-38.8448	447.48	14.457
-38.8433	453.1709	14.4766
-38.8408	449.8092	14.4961
-38.8393	448.9682	14.5156
-38.8374	451.68	14.5352
-38.8368	455.66	14.5547
-38.8344	445.983	14.5742
-38.8325	452.8671	14.59375
-38.8306	455.807	14.6133
-38.8299	451.424	14.6328
-38.8268	447.704	14.6523
-38.8262	455.538	14.6719
-38.8253	448.965	14.6914
-38.82291	450.59	14.7109
-38.8217	456.084	14.7305
-38.8197	451.728	14.75
-38.8178	447.634	14.7695
-38.8166	458.299	14.7891
-38.8137	452.133	14.8086
-38.8132	448.414	14.8281
-38.8119	455.476	14.8477
-38.8094	457.521	14.8672
-38.8093	449.517	14.8867
-38.8069	454.883	14.90625
-38.8049	456.052	14.9258
-38.8034	450.5397	14.9453
-38.8017	454.357	14.9648
-38.7996	456.1084	14.9844
-38.7986	450.1105	15.0039
-38.7965	451.274	15.0234
-38.7952	458.113	15.043
-38.7938	452.998	15.0625
-38.7921	453.2576	15.082
-38.7902	454.003	15.1016
-38.7892	454.963	15.1211
-38.7877	449.754	15.1406
-38.785	456.603	15.1602
-38.7847	455.212	15.1797
-38.78207	454.48	15.1992
-38.7804	452.961	15.21875
-38.7797	459.991	15.2383
-38.777	448.897	15.2578
-38.7753	453.815	15.2773
-38.7755	458.509	15.2969
-38.77264	454.419	15.3164
-38.7703	450.207	15.3359
-38.7696	458.479	15.3555
-38.7673	452.354	15.375
-38.7663	451.984	15.3945
-38.7649	458.364	15.4141
-38.762	456.137	15.4336
-38.7612	448.258	15.4531
-38.7595	458.846	15.4727
-38.7576	456.749	15.4922
-38.75602	450.276	15.5117
-38.7552	456.266	15.53125
-38.7526	457.056	15.5508
-38.7513	450.189	15.5703
-38.7499	454.129	15.5898
-38.7478	456.063	15.6094
-38.7469	451.2634	15.6289
-38.7449	452.958	15.6484
-38.7432	455.992	15.668
-38.7416	451.792	15.6875
-38.7409	447.699	15.707
-38.7379	456.282	15.7266
-38.7375	454.138	15.7461
-38.7352	451.751	15.7656
-38.7326	451.506	15.7852
-38.7321	455.667	15.8047
-38.7303	448.3866	15.8242
-38.72971	452.534	15.84375
-38.7266	455.829	15.8633
-38.7252	450.794	15.8828
-38.724	449.61	15.9023
-38.7228	457.92	15.9219
-38.7214	447.486	15.9414
-38.7182	449.564	15.9609
-38.7175	456.95	15.9805
-38.7158	453.635	16
-38.7145	448.048	16.0195
-38.7142	454.955	16.0391
-38.7124	449.651	16.0586
-38.7097	447.547	16.0781
-38.70808	453.938	16.0977
-38.7062	454.889	16.1172
-38.704	444.583	16.1367
-38.7031	451.953	16.15625
-38.70076	455.36	16.1758
-38.6991	446.268	16.1953
-38.6975	450.421	16.2148
-38.6957	452.746	16.2344
-38.6951	447.909	16.2539
-38.6936	448.873	16.2734
-38.6901	454.587	16.293
-38.6889	447.544	16.3125
-38.6874	448.038	16.332
-38.6857	452.178	16.3516
-38.685	450.786	16.3711
-38.6825	444.843	16.3906
-38.6812	452.1044	16.4102
-38.6802	451.641	16.4297
-38.6786	446.623	16.4492
-38.6759	446.059	16.46875
-38.6741	453.295	16.4883
-38.6728	443.354	16.5078
-38.67123	449.067	16.5273
-38.6691	453.484	16.5469
-38.6685	447.68	16.5664
-38.6671	444.104	16.5859
-38.6647	453.98	16.6055
-38.6634	447.466	16.625
-38.6616	443.586	16.6445
-38.6604	450.355	16.6641
-38.6586	449.106	16.6836
-38.65662	442.849	16.7031
-38.6562	450.405	16.7227
-38.65345	447.96	16.7422
-38.6522	443.3356	16.7617
-38.651	447.934	16.78125
-38.6494	450.866	16.8008
-38.6479	440.925	16.8203
-38.6462	446.0614	16.8398
-38.6444	449.634	16.8594
-38.6444	444.424	16.8789
-38.6397	445.4588	16.8984
-38.6392	447.433	16.918
-38.6387	445.3757	16.9375
-38.6363	443.281	16.957
-38.63493	449.062	16.9766
-38.6332	445.934	16.9961
-38.6311	443.602	17.0156
-38.6294	444.754	17.0352
-38.6275	448.448	17.0547
-38.6258	439.687	17.0742
-38.6244	445.598	17.09375
-38.6224	448.2171	17.1133
-38.6211	444.303	17.1328
-38.6196	441.2128	17.1523
-38.6192	448.84	17.1719
-38.616	439.842	17.1914
-38.6145	443.817	17.2109
-38.6134	447.874	17.2305
-38.6114	443.588	17.25
-38.6101	437.965	17.2695
-38.6085	448.819	17.2891
-38.6073	444.4996	17.3086
-38.606	439.59	17.3281
-38.6031	445.891	17.3477
-38.60239	445.885	17.3672
-38.5994	438.632	17.3867
-38.5976	443.653	17.40625
-38.5975	445.295	17.4258
-38.5941	439.084	17.4453
-38.5934	444.5827	17.4648
-38.59169	445.533	17.4844
-38.5905	439.593	17.5039
-38.5891	441.002	17.5234
-38.5865	444.84	17.543
-38.5844	441.439	17.5625
-38.5846	438.96	17.582
-38.5819	441.799	17.6016
-38.58123	442.803	17.6211
-38.5788	438.418	17.6406
-38.5764	444.295	17.6602
-38.5748	444.724	17.6797
-38.5734	439.051	17.6992
-38.57185	440.379	17.71875
-38.5711	446.73	17.7383
-38.5687	435.503	17.7578
-38.5672	439.687	17.7773
-38.5658	446.041	17.7969
-38.5639	442.053	17.8164
-38.5625	435.198	17.8359
-38.5611	444.746	17.8555
-38.5591	438.776	17.875
-38.5575	437.692	17.8945
-38.5566	445.463	17.9141
-38.5542	441.696	17.9336
-38.5525	433.804	17.9531
-38.5515	442.933	17.9727
-38.5497	442.934	17.9922
-38.5484	435.8931	18.0117
-38.54668	440.909	18.03125
-38.5442	444.344	18.0508
-38.5431	435.966	18.0703
-38.5409	440.322	18.0898
-38.5393	442.332	18.1094
-38.5388	436.274	18.1289
-38.53706	438.539	18.1484
-38.5351	441.275	18.168
-38.5332	437.668	18.1875
-38.5318	434.4	18.207
-38.5294	441.488	18.2266
-38.5284	440.1004	18.2461
-38.5267	437.547	18.2656
-38.5247	438.214	18.2852
-38.5236	443.447	18.3047
-38.5222	434.885	18.3242
-38.5213	439.267	18.34375
-38.5181	441.704	18.3633
-38.5173	437.795	18.3828
-38.5162	436.946	18.4023
-38.5135	443.635	18.4219
-38.5129	435.569	18.4414
-38.5096	435.116	18.4609
-38.5083	441.313	18.4805
-38.5075	439.393	18.5
-38.50563	433.354	18.5195
-38.5039	441.783	18.5391
-38.50182	438.546	18.5586
-38.5005	434.265	18.5781
-38.4993	442.7106	18.5977
-38.4971	440.126	18.6172
-38.4956	432.282	18.6367
-38.4942	438.45	18.65625
-38.4927	439.924	18.6758
-38.4908	434.117	18.6953
-38.4895	437.656	18.7148
-38.4878	438.45	18.7344
-38.4859	435.391	18.7539
-38.48341	434.876	18.7734
-38.4829	439.496	18.793
-38.4812	434.858	18.8125
-38.4798	435.937	18.832
-38.4784	438.932	18.8516
-38.47588	437.763	18.8711
-38.4745	431.206	18.8906
-38.4733	438.506	18.9102
-38.471	440.517	18.9297
-38.46962	435.972	18.9492
-38.4694	435.017	18.96875
-38.467	441.329	18.9883
-38.4652	431.803	19.0078
-38.4623	436.614	19.0273
-38.4619	442.166	19.0469
-38.4599	435.136	19.0664
-38.4583	433.069	19.0859
-38.4569	440.869	19.1055
-38.4546	435.536	19.125
-38.4543	434.036	19.1445
-38.452	438.921	19.1641
-38.45	437.939	19.1836
-38.4488	430.424	19.2031
-38.4474	439.255	19.2227
-38.4449	438.436	19.2422
-38.4446	431.875	19.2617
-38.4426	440.244	19.28125
-38.44	437.978	19.3008
-38.43853	430.634	19.3203
-38.4372	433.432	19.3398
-38.4365	439.9104	19.3594
-38.4341	433.934	19.3789
-38.4325	434.209	19.3984
-38.4317	436.923	19.418
-38.429	435.151	19.4375
-38.4275	432.089	19.457
-38.42572	439.139	19.4766
-38.4244	433.967	19.4961
-38.4231	433.3743	19.5156
-38.4213	434.927	19.5352
-38.4199	438.901	19.5547
-38.4179	430.31	19.5742
-38.4168	434.669	19.59375
-38.4145	440.11	19.6133
-38.4136	434.962	19.6328
-38.4111	432.071	19.6523
-38.4092	439.498	19.6719
-38.4079	432.903	19.6914
-38.4066	433.497	19.7109
-38.4061	440.367	19.7305
-38.4026	434.407	19.75
-38.40086	429.112	19.7695
-38.3997	439.395	19.7891
-38.3972	436.285	19.8086
-38.3964	430.977	19.8281
-38.3952	437.496	19.8477
-38.3937	436.5025	19.8672
-38.3919	429.879	19.8867
-38.3901	436.156	19.90625
-38.389	435.7485	19.9258
-38.3872	429.898	19.9453
-38.3841	435.637	19.9648
-38.3835	439.1355	19.9844
-38.3817	432.041	20.0039
-38.3808	432.378	20.0137

Data Header:			0.254_hd_dimension_typeiv_090_r0			Time:	34.4053	s	4/14/2019 12:36:02 AM
Data Acquisition:	Timed
Station Name:	ft40.cfg
Test File Name:	monotonic_0.2540_typeiv_hd_090_dimension.tst
Displacement	Force	Running Time
mm	N	s
-38.3803	432.985	20.0234
-38.3784	437.4671	20.0332
-38.3793	437.974	20.043
-38.3784	434.139	20.0527
-38.3777	433.621	20.0625
-38.3752	431.824	20.0723
-38.376	432.6915	20.082
-38.3745	432.513	20.0918
-38.3739	434.515	20.1016
-38.3744	437.908	20.1113
-38.3723	435.379	20.1211
-38.3714	432.505	20.1309
-38.3706	429.872	20.1406
-38.3705	433.351	20.1504
-38.3704	437.785	20.1602
-38.3685	436.171	20.1699
-38.3674	435.98	20.1797
-38.3656	434.657	20.1895
-38.3654	431.778	20.1992
-38.364	429.484	20.209
-38.3638	430.986	20.21875
-38.3628	435.508	20.2285
-38.3635	440.178	20.2383
-38.3617	436.363	20.248
-38.3601	429.341	20.2578
-38.3603	430.89	20.2676
-38.3604	431.225	20.2773
-38.3582	436.416	20.2871
-38.358	439.976	20.2969
-38.3566	434.564	20.3066
-38.3563	434.772	20.3164
-38.3546	430.306	20.3262
-38.3537	430.131	20.3359
-38.3534	435.681	20.3457
-38.3524	438.995	20.3555
-38.3515	440.135	20.3652
-38.3502	430.599	20.375
-38.351	427.923	20.3848
-38.3485	430.5593	20.3945
-38.3483	434.456	20.4043
-38.3484	438.061	20.4141
-38.3472	436.787	20.4238
-38.3468	435.928	20.4336
-38.3465	432.219	20.4434
-38.3445	427.447	20.4531
-38.3439	432.835	20.4629
-38.3431	435.587	20.4727
-38.3422	439.633	20.4824
-38.3408	435.0657	20.4922
-38.3407	429.618	20.502
-38.3399	430.276	20.5117
-38.33831	432.896	20.5215
-38.3373	435.487	20.53125
-38.3382	435.652	20.541
-38.3374	436.339	20.5508
-38.3365	434.003	20.5605
-38.3358	430.819	20.5703
-38.3344	431.5484	20.5801
-38.3321	432.5567	20.5898
-38.3319	437.2099	20.5996
-38.332	436.19	20.6094
-38.3308	432.5275	20.6191
-38.3299	429.8569	20.6289
-38.3277	431.452	20.6387
-38.3287	433.745	20.6484
-38.3274	432.632	20.6582
-38.3271	436.552	20.668
-38.3251	435.4213	20.6777
-38.3236	431.862	20.6875
-38.3245	431.719	20.6973
-38.322	429.431	20.707
-38.3229	433.951	20.7168
-38.3209	436.425	20.7266
-38.321	434.566	20.7363
-38.3212	434.3403	20.7461
-38.3197	431.935	20.7559
-38.3178	431.379	20.7656
-38.3178	430.965	20.7754
-38.317	431.391	20.7852
-38.3154	437.354	20.7949
-38.3159	437.386	20.8047
-38.3152	433.071	20.8145
-38.3131	429.562	20.8242
-38.3126	431.152	20.834
-38.3119	434.039	20.84375
-38.3098	434.179	20.8535
-38.3103	435.525	20.8633
-38.3094	434.43	20.873
-38.3083	430.582	20.8828
-38.3074	431.107	20.8926
-38.3068	430.596	20.9023
-38.3075	433.967	20.9121
-38.3056	439.475	20.9219
-38.3051	434.601	20.9316
-38.3041	429.618	20.9414
-38.3032	428.1398	20.9512
-38.3027	430.5708	20.9609
-38.3031	434.41	20.9707
-38.3007	438.788	20.9805
-38.2996	435.624	20.9902
-38.2993	433.585	21
-38.2993	428.221	21.0098
-38.2976	428.2533	21.0195
-38.2962	431.2984	21.0293
-38.2951	436.673	21.0391
-38.2942	440.588	21.0488
-38.2931	431.833	21.0586
-38.2932	427.509	21.0684
-38.2933	428.344	21.0781
-38.2917	432.336	21.0879
-38.2906	436.272	21.0977
-38.2894	435.742	21.1074
-38.2894	434.459	21.1172
-38.2892	432.807	21.127
-38.288	426.614	21.1367
-38.2878	431.988	21.1465
-38.2852	433.94	21.15625
-38.2851	438.019	21.166
-38.2851	435.782	21.1758
-38.28392	430.718	21.1855
-38.2824	429.45	21.1953
-38.2821	430.77	21.2051
-38.2806	433.2019	21.2148
-38.2804	434.571	21.2246
-38.2787	435.784	21.2344
-38.2791	433.297	21.2441
-38.2788	431.183	21.2539
-38.27726	429.001	21.2637
-38.2767	430.8353	21.2734
-38.276	434.861	21.2832
-38.275	435.617	21.293
-38.2732	434.326	21.3027
-38.2734	432.6188	21.3125
-38.2722	432.586	21.3223
-38.2709	432.106	21.332
-38.2714	430.226	21.3418
-38.26907	435.029	21.3516
-38.27018	434.297	21.3613
-38.269	434.72	21.3711
-38.2681	431.029	21.3809
-38.2665	427.999	21.3906
-38.2659	431.532	21.4004
-38.2644	436.604	21.4102
-38.2637	433.075	21.4199
-38.2635	435.917	21.4297
-38.2624	431.693	21.4395
-38.262	430.01	21.4492
-38.2596	429.634	21.459
-38.2608	430.619	21.46875
-38.2591	436.609	21.4785
-38.2581	436.526	21.4883
-38.2577	435.2645	21.498
-38.2571	426.636	21.5078
-38.2564	428.962	21.5176
-38.2547	432.621	21.5273
-38.25462	433.579	21.5371
-38.2541	437.2	21.5469
-38.252	435.3	21.5566
-38.2522	432.457	21.5664
-38.2511	430.044	21.5762
-38.2504	427.199	21.5859
-38.2497	432.422	21.5957
-38.2477	438.826	21.6055
-38.2475	435.886	21.6152
-38.2476	430.816	21.625
-38.24501	428.819	21.6348
-38.2452	430.015	21.6445
-38.2442	433.5408	21.6543
-38.2443	436.236	21.6641
-38.2431	434.592	21.6738
-38.2429	433.704	21.6836
-38.2409	429.68	21.6934
-38.2404	426.843	21.7031
-38.2402	429.946	21.7129
-38.2381	434.796	21.7227
-38.23748	438.498	21.7324
-38.238	431.778	21.7422
-38.2357	429.758	21.752
-38.2353	427.676	21.7617
-38.2355	429.508	21.7715
-38.234	434.322	21.78125
-38.23296	433.45	21.791
-38.2323	435.724	21.8008
-38.2321	432.297	21.8105
-38.2311	427.404	21.8203
-38.2303	430.083	21.8301
-38.2291	430.776	21.8398
-38.2292	435.464	21.8496
-38.2273	437.3103	21.8594
-38.22686	430.892	21.8691
-38.2255	430.234	21.8789
-38.2259	430.503	21.8887
-38.2242	429.226	21.8984
-38.2243	432.133	21.9082
-38.2225	432.985	21.918
-38.2213	436.154	21.9277
-38.2206	431.324	21.9375
-38.2212	429.012	21.9473
-38.2187	430.412	21.957
-38.218	431.397	21.9668
-38.2178	434.745	21.9766
-38.2171	435.319	21.9863
-38.2163	432.987	21.9961
-38.2154	431.522	22.0059
-38.2147	429.82	22.0156
-38.2133	429.315	22.0254
-38.2127	431.953	22.0352
-38.2126	433.815	22.0449
-38.2117	436.827	22.0547
-38.2099	432.247	22.0645
-38.2101	426.8678	22.0742
-38.2086	429.219	22.084
-38.2078	431.0441	22.09375
-38.2061	434.333	22.1035
-38.2076	434.831	22.1133
-38.20549	432.432	22.123
-38.2042	430.885	22.1328
-38.2035	427.494	22.1426
-38.2026	429.104	22.1523
-38.2012	434.383	22.1621
-38.20179	436.223	22.1719
-38.2002	435.592	22.1816
-38.19944	429.227	22.1914
-38.1992	427.129	22.2012
-38.1978	429.7536	22.2109
-38.1976	432.355	22.2207
-38.1967	435.688	22.2305
-38.1955	433.869	22.2402
-38.19516	432.64	22.25
-38.1945	428.776	22.2598
-38.194	427.058	22.2695
-38.1919	430.372	22.2793
-38.1925	435.476	22.2891
-38.1901	437.106	22.2988
-38.18969	432.8049	22.3086
-38.1889	427.6864	22.3184
-38.1885	427.162	22.3281
-38.1871	431.04	22.3379
-38.1866	433.712	22.3477
-38.1855	434.778	22.3574
-38.1856	434.026	22.3672
-38.1841	431.275	22.377
-38.1841	427.141	22.3867
-38.1815	429.312	22.3965
-38.1814	433.2226	22.40625
-38.1811	437.094	22.416
-38.1812	434.536	22.4258
-38.1788	430.762	22.4355
-38.1778	427.727	22.4453
-38.1776	430.067	22.4551
-38.177	432.262	22.4648
-38.1762	431.6636	22.4746
-38.1751	434.661	22.4844
-38.1745	435.411	22.4941
-38.1728	428.176	22.5039
-38.1732	429.875	22.5137
-38.1727	427.9231	22.5234
-38.1717	434.428	22.5332
-38.1711	435.48	22.543
-38.1692	430.746	22.5527
-38.1683	431.083	22.5625
-38.1685	429.663	22.5723
-38.1665	430.149	22.582
-38.1664	429.704	22.5918
-38.166	430.848	22.6016
-38.1653	433.798	22.6113
-38.1641	433.497	22.6211
-38.1634	429.772	22.6309
-38.16193	426.41	22.6406
-38.16124	429.053	22.6504
-38.1605	434.123	22.6602
-38.1597	434.242	22.6699
-38.1576	433.418	22.6797
-38.1578	432.398	22.6895
-38.1559	428.511	22.6992
-38.1566	429.1748	22.709
-38.1574	430.216	22.71875
-38.1548	433.262	22.7285
-38.1548	436.01	22.7383
-38.1534	432.22	22.748
-38.1519	427.11	22.7578
-38.1524	428.389	22.7676
-38.1508	430.334	22.7773
-38.1499	432.993	22.7871
-38.14933	433.803	22.7969
-38.1476	432.027	22.8066
-38.1479	431.521	22.8164
-38.1462	429.153	22.8262
-38.1458	426.108	22.8359
-38.1458	431.373	22.8457
-38.1455	436.489	22.8555
-38.1434	435.24	22.8652
-38.1428	428.6821	22.875
-38.1417	426.306	22.8848
-38.141	427.683	22.8945
-38.1405	430.79	22.9043
-38.1399	434.962	22.9141
-38.1386	434.185	22.9238
-38.1385	432.39	22.9336
-38.1376	429.317	22.9434
-38.1357	425.196	22.9531
-38.1354	430.343	22.9629
-38.1341	432.7	22.9727
-38.1335	435.842	22.9824
-38.1338	432.9537	22.9922
-38.1327	426.692	23.002
-38.1318	425.838	23.0117
-38.1316	431.426	23.0215
-38.129	432.683	23.03125
-38.1293	435.225	23.041
-38.1287	434.62	23.0508
-38.1271	431.3439	23.0605
-38.1265	428.537	23.0703
-38.1262	427.891	23.0801
-38.12553	430.34	23.0898
-38.1238	435.32	23.0996
-38.1235	435.685	23.1094
-38.12178	432.08	23.1191
-38.1215	428.264	23.1289
-38.1217	429.586	23.1387
-38.1201	430.11	23.1484
-38.1189	431.889	23.1582
-38.1184	433.479	23.168
-38.1174	433.543	23.1777
-38.1163	431.592	23.1875
-38.115	431.375	23.1973
-38.115	426.116	23.207
-38.1148	432.223	23.2168
-38.1124	434.428	23.2266
-38.113	433.286	23.2363
-38.11137	432.832	23.2461
-38.1101	428.681	23.2559
-38.1106	430.649	23.2656
-38.1095	427.997	23.2754
-38.1089	429.542	23.2852
-38.1083	434.189	23.2949
-38.107	434.167	23.3047
-38.10603	430.251	23.3145
-38.1042	425.8595	23.3242
-38.1047	426.323	23.334
-38.1042	431.569	23.34375
-38.1031	433.617	23.3535
-38.1013	434.833	23.3633
-38.1019	431.389	23.373
-38.1001	429.7	23.3828
-38.0999	427.764	23.3926
-38.0988	427.962	23.4023
-38.09771	432.2	23.4121
-38.0973	437.067	23.4219
-38.096	433.691	23.4316
-38.0961	427.348	23.4414
-38.0943	426.149	23.4512
-38.0939	428.5271	23.4609
-38.0944	432.894	23.4707
-38.092	435.333	23.4805
-38.0911	433.745	23.4902
-38.0917	431.13	23.5
-38.0899	426.989	23.5098
-38.0892	426.351	23.5195
-38.0881	430.7	23.5293
-38.0862	434.476	23.5391
-38.08662	436.932	23.5488
-38.08564	430.086	23.5586
-38.0844	426.334	23.5684
-38.0834	427.327	23.5781
-38.0832	430.67	23.5879
-38.0821	433.781	23.5977
-38.0822	431.615	23.6074
-38.0798	432.377	23.6172
-38.0806	429.709	23.627
-38.0796	424.437	23.6367
-38.0785	429.034	23.6465
-38.0777	431.155	23.65625
-38.0773	435.83	23.666
-38.0763	435.175	23.6758
-38.0758	428.535	23.6855
-38.07452	425.341	23.6953
-38.0733	428.3717	23.7051
-38.0731	431.056	23.7148
-38.0718	432.762	23.7246
-38.0713	433.866	23.7344
-38.0691	432.227	23.7441
-38.0691	427.92	23.7539
-38.0674	426.042	23.7637
-38.0677	429.057	23.7734
-38.067	431.552	23.7832
-38.0665	433.257	23.793
-38.06485	431.849	23.8027
-38.0647	428.751	23.8125
-38.06414	428.299	23.8223
-38.0631	428.615	23.832
-38.0624	429.166	23.8418
-38.0609	431.425	23.8516
-38.0602	432.772	23.8613
-38.05949	433.083	23.8711
-38.0591	429.192	23.8809
-38.05846	424.363	23.8906
-38.058	428.466	23.9004
-38.0562	432.748	23.9102
-38.0559	434.307	23.9199
-38.0541	434.676	23.9297
-38.0541	428.135	23.9395
-38.0532	429.334	23.9492
-38.054	427.4386	23.959
-38.0508	428.144	23.96875
-38.0501	434.083	23.9785
-38.051	434.244	23.9883
-38.0496	432.026	23.998
-38.04818	426.853	24.0078
-38.047	424.902	24.0176
-38.0459	431.0997	24.0273
-38.04525	431.997	24.0371
-38.0456	433.935	24.0469
-38.0444	431.356	24.0566
-38.0452	430.218	24.0664
-38.0431	427.41	24.0762
-38.0422	425.213	24.0859
-38.0405	430.382	24.0957
-38.0391	435.212	24.1055
-38.039	434.703	24.1152
-38.0394	429.913	24.125
-38.0372	424.028	24.1348
-38.036	426.447	24.1445
-38.0364	431.08	24.1543
-38.0355	432.628	24.1641
-38.0349	432.39	24.1738
-38.0328	431.648	24.1836
-38.0323	426.511	24.1934
-38.0323	426.721	24.2031
-38.0317	429.228	24.2129
-38.0313	432.029	24.2227
-38.0297	436.532	24.2324
-38.0287	431.121	24.2422
-38.0289	427.179	24.252
-38.02705	425.751	24.2617
-38.0264	428.097	24.2715
-38.02552	432.067	24.28125
-38.0253	430.472	24.291
-38.0245	433.435	24.3008
-38.0246	430.614	24.3105
-38.02298	424.61	24.3203
-38.0215	427.742	24.3301
-38.0209	428.222	24.3398
-38.0201	433.641	24.3496
-38.0185	434.599	24.3594
-38.01791	428.978	24.3691
-38.0181	428.757	24.3789
-38.01791	428.894	24.3887
-38.0156	429.379	24.3984
-38.0156	429.96	24.4082
-38.0143	431.2124	24.418
-38.0135	433.685	24.4277
-38.01189	432.223	24.4375
-38.0118	426.504	24.4473
-38.0108	426.139	24.457
-38.0102	429.711	24.4668
-38.0094	432.505	24.4766
-38.0084	432.617	24.4863
-38.0072	430.168	24.4961
-38.007	428.955	24.5059
-38.0056	428.587	24.5156
-38.0055	428.432	24.5254
-38.0039	430.325	24.5352
-38.003	433.789	24.5449
-38.0029	434.182	24.5547
-38.0016	431.12	24.5645
-38.00108	425.07	24.5742
-38.0005	428.202	24.584
-37.9982	429.67	24.59375
-37.9982	432.0546	24.6035
-37.9976	433.579	24.6133
-37.99667	429.496	24.623
-37.9962	429.303	24.6328
-37.9959	425.423	24.6426
-37.9945	427.551	24.6523
-37.9932	432.076	24.6621
-37.9936	435.007	24.6719
-37.9919	432.77	24.6816
-37.9908	425.757	24.6914
-37.99025	423.926	24.7012
-37.9901	427.082	24.7109
-37.9888	431.6	24.7207
-37.9889	434.145	24.7305
-37.9869	432.251	24.7402
-37.98711	429.87	24.75
-37.9871	427.149	24.7598
-37.9852	423.032	24.7695
-37.9842	430.127	24.7793
-37.9823	434.656	24.7891
-37.9818	435.356	24.7988
-37.9813	429.889	24.8086
-37.9805	423.545	24.8184
-37.9808	424.12	24.8281
-37.9795	430.264	24.8379
-37.9772	432.07	24.8477
-37.9769	431.767	24.8574
-37.9756	431.139	24.8672
-37.9765	427.066	24.877
-37.9754	425.041	24.8867
-37.9745	426.36	24.8965
-37.9734	429.859	24.90625
-37.973	433.527	24.916
-37.9721	430.282	24.9258
-37.97142	428.841	24.9355
-37.9707	424.956	24.9453
-37.9691	427.305	24.9551
-37.9692	430.774	24.9648
-37.9676	429.301	24.9746
-37.9665	432.574	24.9844
-37.9659	431.084	24.9941
-37.9645	427.488	25.0039
-37.9645	427.1355	25.0137
-37.9648	426.221	25.0234
-37.9631	430.972	25.0332
-37.9622	433.605	25.043
-37.9606	430.691	25.0527
-37.9606	429.581	25.0625
-37.9586	429.2912	25.0723
-37.9582	429.095	25.082
-37.9576	428.565	25.0918
-37.9576	429.742	25.1016
-37.9564	432.575	25.1113
-37.9556	432.7	25.1211
-37.954	427.218	25.1309
-37.9541	426.135	25.1406
-37.9537	427.294	25.1504
-37.9516	433.544	25.1602
-37.9513	431.439	25.1699
-37.9503	431.439	25.1797
-37.9498	429.698	25.1895
-37.94886	428.354	25.1992
-37.9484	427.263	25.209
-37.9469	428.296	25.21875
-37.9458	428.959	25.2285
-37.9465	434.485	25.2383
-37.945	432.216	25.248
-37.9441	425.276	25.2578
-37.94281	425.629	25.2676
-37.9434	427.021	25.2773
-37.9418	431.236	25.2871
-37.9398	434.2507	25.2969
-37.9391	430.359	25.3066
-37.939	429.319	25.3164
-37.9378	424.27	25.3262
-37.9372	424.617	25.3359
-37.9361	429.42	25.3457
-37.9357	432.231	25.3555
-37.9361	434.513	25.3652
-37.935	427.451	25.375
-37.9342	423.554	25.3848
[...]
-37.8326	433.546	26.6055
-37.8309	433.78	26.6152
-37.8305	428.639	26.625
-37.8292	422.754	26.6348
-37.8274	424.064	26.6445
-37.8275	430.183	26.6543
-37.8266	431.871	26.6641
-37.826	429.6926	26.6738
-37.8259	429.8801	26.6836
-37.8244	425.105	26.6934
-37.824	423.3165	26.7031
-37.8231	426.8	26.7129
-37.8214	430.486	26.7227
-37.8221	433.768	26.7324
-37.8218	430.455	26.7422
-37.8202	425.649	26.752
-37.8192	423.859	26.7617
-37.8178	425.14	26.7715
-37.8168	430.816	26.78125
-37.8164	430.881	26.791
-37.8147	430.7709	26.8008
-37.8137	429.192	26.8105
-37.8137	423.463	26.8203
-37.8134	426.59	26.8301
-37.8124	426.263	26.8398
-37.8126	432.06	26.8496
-37.81015	432.042	26.8594
-37.8099	428.291	26.8691
-37.8086	425.793	26.8789
-37.8082	425.306	26.8887
-37.8067	426.855	26.8984
-37.8071	428.138	26.9082
-37.805	429.419	26.918
-37.8056	430.004	26.9277
-37.805	428.466	26.9375
-37.8037	424.615	26.9473
-37.8022	423.866	26.957
-37.80183	427.864	26.9668
-37.7994	430.664	26.9766
-37.7989	430.819	26.9863
-37.7989	429.085	26.9961
-37.7991	426.129	27.0059
-37.7976	425.748	27.0156
-37.7965	426.8815	27.0254
-37.79628	428.256	27.0352
-37.7948	429.123	27.0449
-37.794	432.222	27.0547
-37.7934	429.445	27.0645
-37.7929	423.6138	27.0742
-37.7922	425.739	27.084
-37.7912	427.981	27.09375
-37.7908	432.403	27.1035
-37.7899	431.885	27.1133
-37.7894	426.846	27.123
-37.7882	426.9079	27.1328
-37.7873	424.553	27.1426
-37.78577	424.519	27.1523
-37.7855	429.501	27.1621
-37.7839	431.7218	27.1719
-37.78326	431.781	27.1816
-37.7834	425.368	27.1914
-37.7816	421.405	27.2012
-37.7809	426.15	27.2109
-37.7804	428.403	27.2207
-37.78	432.863	27.2305
-37.7793	429.229	27.2402
-37.7778	427.148	27.25
-37.7771	425.066	27.2598
-37.7767	423.314	27.2695
-37.7759	427.533	27.2793
-37.7748	430.769	27.2891
-37.7735	432.873	27.2988
-37.7727	427.591	27.3086
-37.7726	422.553	27.3184
-37.7712	421.121	27.3281
-37.77013	428.369	27.3379
-37.76902	431.171	27.3477
-37.7694	429.0386	27.3574
-37.7684	429.355	27.3672
-37.7681	426.097	27.377
-37.7668	423.2876	27.3867
-37.7659	425.295	27.3965
-37.7647	425.985	27.40625
-37.7648	432.558	27.416
-37.7645	429.454	27.4258
-37.7626	426.505	27.4355
-37.7622	423.182	27.4453
-37.76	425.9921	27.4551
-37.7602	430.07	27.4648
-37.7593	427.515	27.4746
-37.7581	430.24	27.4844
-37.7587	429.591	27.4941
-37.7567	427.07	27.5039
-37.7556	426.075	27.5137
-37.7551	424.918	27.5234
-37.7543	429.24	27.5332
-37.7555	432.597	27.543
-37.7535	429.655	27.5527
-37.75164	427.143	27.5625
-37.7506	424.397	27.5723
-37.7495	424.983	27.582
-37.749	429.328	27.5918
-37.7499	426.529	27.6016
-37.74791	429.97	27.6113
-37.7478	430.695	27.6211
-37.7458	426.383	27.6309
-37.7454	423.22	27.6406
-37.7452	425.9035	27.6504
-37.7441	429.685	27.6602
-37.7438	430.106	27.6699
-37.7432	430.584	27.6797
-37.7412	427.653	27.6895
-37.7414	426.1528	27.6992
-37.73967	424.722	27.709
-37.7385	425.82	27.71875
-37.73864	428.939	27.7285
-37.73801	431.719	27.7383
-37.7363	429.482	27.748
-37.7362	423.568	27.7578
-37.7347	424.268	27.7676
-37.7338	426.213	27.7773
-37.7342	429.506	27.7871
-37.7333	430.9382	27.7969
-37.7311	428.434	27.8066
-37.7307	427.161	27.8164
-37.7316	424.215	27.8262
-37.7299	423.209	27.8359
-37.729	428.501	27.8457
-37.7279	431.431	27.8555
-37.7272	433.4332	27.8652
-37.7266	426.252	27.875
-37.7257	421.647	27.8848
-37.7237	424.747	27.8945
-37.7236	428.2767	27.9043
-37.722	432.893	27.9141
-37.7229	429.31	27.9238
-37.72007	427.211	27.9336
-37.7212	426.415	27.9434
-37.7198	422.035	27.9531
-37.7194	427.138	27.9629
-37.7174	430.897	27.9727
-37.7171	431.746	27.9824
-37.7155	429.885	27.9922
-37.7146	422.795	28.002
-37.7146	423.252	28.0117
-37.7132	426.581	28.0215
-37.7128	429.007	28.03125
-37.71233	429.6864	28.041
-37.7126	429.438	28.0508
-37.711	428.732	28.0605
-37.7099	426.542	28.0703
-37.7085	424.158	28.0801
-37.7079	425.592	28.0898
-37.7077	430.9	28.0996
-37.706	430.1716	28.1094
-37.7056	427.84	28.1191
-37.7054	425.828	28.1289
-37.7035	423.975	28.1387
-37.7036	427.045	28.1484
-37.7021	426.982	28.1582
-37.7019	429.624	28.168
-37.7009	428.22	28.1777
-37.7009	427.835	28.1875
-37.6991	425.234	28.1973
-37.6993	422.325	28.207
-37.6975	427.3262	28.2168
-37.6961	430.957	28.2266
-37.6965	428.049	28.2363
-37.6958	432.059	28.2461
-37.6957	424.156	28.2559
-37.6928	426.532	28.2656
-37.6924	427.578	28.2754
-37.6923	425.417	28.2852
-37.6905	430.651	28.2949
-37.6894	430.22	28.3047
-37.6898	426.795	28.3145
-37.6882	423.59	28.3242
-37.6876	422.517	28.334
-37.6861	428.713	28.34375
-37.6859	430.014	28.3535
-37.6863	429.805	28.3633
-37.6841	429.919	28.373
-37.68412	424.427	28.3828
-37.6825	423.843	28.3926
-37.6817	424.507	28.4023
-37.68214	428.182	28.4121
-37.6818	432.255	28.4219
-37.6796	429.5119	28.4316
-37.6787	424.7067	28.4414
-37.67791	422.066	28.4512
-37.6776	423.23	28.4609
-37.67606	430.805	28.4707
-37.677	431.6069	28.4805
-37.6748	428.39	28.4902
-37.6736	427.106	28.5
-37.6727	425.415	28.5098
-37.6728	423.304	28.5195
-37.672	427.828	28.5293
-37.67057	430.054	28.5391
-37.6706	433.368	28.5488
-37.66935	426.189	28.5586
-37.6684	421.597	28.5684
-37.6665	423.074	28.5781
-37.6669	425.067	28.5879
-37.6662	431.458	28.5977
-37.6647	430.683	28.6074
-37.6643	426.935	28.6172
-37.6635	426.015	28.627
-37.6624	423.295	28.6367
-37.66254	425.65	28.6465
-37.6609	427.061	28.65625
-37.6602	430.68	28.666
-37.6603	430.458	28.6758
-37.6584	425.177	28.6855
-37.6581	424.896	28.6953
-37.6574	425.072	28.7051
-37.6555	426.652	28.7148
-37.6556	429.365	28.7246
-37.6552	428.52	28.7344
-37.6535	428.422	28.7441
-37.6523	427.282	28.7539
-37.6519	424.259	28.7637
-37.6516	423.662	28.7734
-37.6502	430.293	28.7832
-37.6487	430.526	28.793
-37.6486	427.453	28.8027
-37.6485	426.074	28.8125
-37.6471	425.108	28.8223
-37.6468	425.209	28.832
-37.6444	426.347	28.8418
-37.6454	427.661	28.8516
-37.6445	428.368	28.8613
-37.6433	428.465	28.8711
-37.64259	426.617	28.8809
-37.6408	420.23	28.8906
-37.6408	423.387	28.9004
-37.6407	428.942	28.9102
-37.6392	428.8331	28.9199
-37.6373	431.501	28.9297
-37.6376	423.8	28.9395
-37.6365	424.254	28.9492
-37.6355	424.552	28.959
-37.6358	424.802	28.96875
-37.635	430.698	28.9785
-37.6335	432.264	28.9883
-37.6328	429.734	28.998
-37.6314	424.294	29.0078
-37.6316	420.824	29.0176
-37.6297	426.887	29.0273
-37.6285	430.683	29.0371
-37.6278	431.613	29.0469
-37.6274	427.865	29.0566
-37.6268	424.986	29.0664
-37.6262	420.794	29.0762
-37.6249	423.832	29.0859
-37.6248	427.4729	29.0957
-37.6234	431.24	29.1055
-37.6218	430.05	29.1152
-37.6228	426.432	29.125
-37.62	420.041	29.1348
-37.6211	422.404	29.1445
-37.6194	428.767	29.1543
-37.6178	430.375	29.1641
-37.617	429.471	29.1738
-37.6174	425.194	29.1836
-37.6159	423.237	29.1934
-37.6147	422.463	29.2031
-37.6139	425.66	29.2129
-37.6142	427.746	29.2227
-37.6134	432.758	29.2324
-37.612	428.364	29.2422
-37.61113	421.4527	29.252
-37.611	421.219	29.2617
-37.6095	423.714	29.2715
-37.6091	429.719	29.28125
-37.6069	427.155	29.291
-37.6072	427.095	29.3008
-37.6061	426.766	29.3105
-37.6063	424.204	29.3203
-37.6051	424.202	29.3301
-37.6028	424.108	29.3398
-37.6037	429.9473	29.3496
-37.6021	430.8624	29.3594
-37.6019	423.8161	29.3691
-37.601	423.084	29.3789
-37.6003	423.564	29.3887
-37.59848	424.6524	29.3984
-37.5989	427.005	29.4082
-37.5975	426.585	29.418
-37.5968	427.46	29.4277
-37.594	427.4071	29.4375
-37.5952	422.1738	29.4473
-37.5949	421.536	29.457
-37.5933	425.01	29.4668
-37.5923	427.934	29.4766
-37.5914	428.638	29.4863
-37.5914	426.2644	29.4961
-37.59	423.13	29.5059
-37.5897	423.411	29.5156
-37.5892	424.205	29.5254
-37.5877	426.0578	29.5352
-37.5871	427.671	29.5449
-37.5862	431.115	29.5547
-37.586	426.1532	29.5645
-37.5842	418.889	29.5742
-37.58416	422.8309	29.584
-37.582	424.2106	29.59375
-37.5817	429.231	29.6035
-37.5816	428.802	29.6133
-37.5802	424.963	29.623
-37.5793	423.611	29.6328
-37.5785	421.125	29.6426
-37.5786	422.142	29.6523
-37.5773	429.129	29.6621
-37.57687	429.721	29.6719
-37.5761	428.4	29.6816
-37.5741	423.742	29.6914
-37.5735	418.7674	29.7012
-37.5711	423.442	29.7109
-37.5732	428.031	29.7207
-37.5709	429.634	29.7305
-37.5703	426.27	29.7402
-37.5693	423.776	29.75
-37.5691	424.023	29.7598
-37.5676	421.217	29.7695
-37.5674	425.155	29.7793
-37.5675	428.623	29.7891
-37.56662	429.6265	29.7988
-37.5647	425.616	29.8086
-37.5636	420.495	29.8184
-37.5639	420.4664	29.8281
-37.5624	425.632	29.8379
-37.56208	428.2764	29.8477
-37.5614	428.379	29.8574
-37.5605	426.828	29.8672
-37.5599	425.339	29.877
-37.5575	421.528	29.8867
-37.5579	423.032	29.8965
-37.5572	424.818	29.90625
-37.5553	429.471	29.916
-37.555	427.158	29.9258
-37.5541	423.332	29.9355
-37.5535	422.331	29.9453
-37.5541	422.237	29.9551
-37.5527	426.233	29.9648
-37.5509	427.846	29.9746
-37.5505	426.916	29.9844
-37.5497	426.204	29.9941
-37.5481	423.77	30.0039
-37.54718	423.155	30.0137
-37.5471	421.061	30.0234
-37.5458	426.595	30.0332
-37.5466	429.318	30.043
-37.5445	427.284	30.0527
-37.5433	426.03	30.0625
-37.5422	420.738	30.0723
-37.5418	424.3	30.082
-37.542	424.16	30.0918
-37.5407	424.527	30.1016
-37.5402	428.028	30.1113
-37.53801	426.76	30.1211
-37.53738	424.089	30.1309
-37.5359	421.0513	30.1406
-37.5375	423.046	30.1504
-37.536	426.324	30.1602
-37.5347	429.226	30.1699
-37.5347	427.304	30.1797
-37.5336	424.306	30.1895
-37.5319	422.116	30.1992
-37.5315	421.371	30.209
-37.5296	423.846	30.21875
-37.5301	428.052	30.2285
-37.52953	430.681	30.2383
-37.5288	429.019	30.248
-37.52655	420.685	30.2578
-37.5269	420.124	30.2676
-37.526	422.4664	30.2773
-37.5247	428.673	30.2871
-37.5239	430.186	30.2969
-37.5227	426.028	30.3066
-37.5223	422.901	30.3164
-37.5216	423.202	30.3262
-37.52177	419.725	30.3359
-37.52	426.98	30.3457
-37.5182	427.49	30.3555
-37.5196	427.245	30.3652
-37.51812	423.586	30.375
-37.5167	418.889	30.3848
-37.515	422.066	30.3945
-37.5161	425.417	30.4043
-37.5142	431.135	30.4141
-37.5136	427.044	30.4238
-37.5135	426.387	30.4336
-37.512	423.688	30.4434
-37.5127	420.902	30.4531
-37.509	423.979	30.4629
-37.50988	428.715	30.4727
-37.50901	428.952	30.4824
-37.5079	428.364	30.4922
-37.50705	420.705	30.502
-37.5064	421.113	30.5117
-37.5054	424.4061	30.5215
-37.5049	425.999	30.53125
-37.5036	428.311	30.541
-37.5036	425.606	30.5508
-37.503	423.296	30.5605
-37.5016	424.061	30.5703
-37.5002	423.027	30.5801
-37.4994	422.899	30.5898
-37.4994	428.902	30.5996
-37.4988	427.547	30.6094
-37.497	424.997	30.6191
-37.4968	422.406	30.6289
-37.4962	420.935	30.6387
-37.4949	424.488	30.6484
-37.4939	423.9259	30.6582
-37.4928	428.216	30.668
-37.4922	425.187	30.6777
-37.4921	425.39	30.6875
-37.4907	422.4563	30.6973
-37.4906	420.2998	30.707
-37.4883	425.147	30.7168
-37.4887	427.175	30.7266
-37.48695	426.616	30.7363
-37.4867	427.412	30.7461
-37.4854	420.723	30.7559
-37.4855	421.995	30.7656
-37.4842	422.872	30.7754
-37.4831	423.295	30.7852
-37.4824	428.097	30.7949
-37.4828	427.75	30.8047
-37.4806	425.4	30.8145
-37.4804	420.4	30.8242
-37.479	419.695	30.834
-37.4792	424.16	30.84375
-37.4779	429.3298	30.8535
-37.4766	427.793	30.8633
-37.4754	423.457	30.873
-37.4746	421.9	30.8828
-37.4737	422.216	30.8926
-37.4739	421.508	30.9023
-37.4722	424.779	30.9121
-37.4724	428.707	30.9219
-37.4718	428.441	30.9316
-37.4699	422.321	30.9414
-37.4702	419.9751	30.9512
-37.4695	419.707	30.9609
-37.4679	427.021	30.9707
-37.4664	428.775	30.9805
-37.4663	424.984	30.9902
-37.4657	424.348	31
-37.4642	420.398	31.0098
-37.4643	419.569	31.0195
-37.464	426.701	31.0293
-37.4626	427.424	31.0391
-37.4609	429.7525	31.0488
-37.4606	423.361	31.0586
-37.4594	418.243	31.0684
-37.45916	418.953	31.0781
-37.4585	422.644	31.0879
-37.4572	426.957	31.0977
-37.4574	425.611	31.1074
-37.4572	424.042	31.1172
-37.4549	422.988	31.127
-37.454	419.717	31.1367
-37.4531	422.812	31.1465
-37.4528	423.638	31.15625
-37.4517	426.446	31.166
-37.4501	427.465	31.1758
-37.451	420.718	31.1855
-37.4491	420.049	31.1953
-37.4487	423.2236	31.2051
-37.4474	422.956	31.2148
-37.4467	426.167	31.2246
-37.4456	425.81	31.2344
-37.4455	425.669	31.2441
-37.44482	424.179	31.2539
-37.4445	419.513	31.2637
-37.44297	418.678	31.2734
-37.4425	424.643	31.2832
-37.4413	426.784	31.293
-37.441	426.12	31.3027
-37.4391	422.829	31.3125
-37.4397	420.5849	31.3223
-37.4377	422.503	31.332
-37.4364	421.467	31.3418
-37.4371	424.229	31.3516
-37.4356	425.433	31.3613
-37.4346	425.9866	31.3711
-37.4339	423.777	31.3809
-37.4341	417.69	31.3906
-37.4317	419.07	31.4004
-37.4311	425.943	31.4102
-37.4317	427.387	31.4199
-37.43018	428.209	31.4297
-37.4291	420.512	31.4395
-37.4286	420.435	31.4492
-37.4277	420.935	31.459
-37.4273	419.937	31.46875
-37.4271	426.94	31.4785
-37.4251	427.05	31.4883
-37.4239	424.427	31.498
-37.42366	419.3923	31.5078
-37.4224	415.6611	31.5176
-37.4221	422.71	31.5273
-37.4209	425.699	31.5371
-37.4207	426.551	31.5469
-37.4195	424.493	31.5566
-37.4192	419.242	31.5664
-37.4174	419.5105	31.5762
-37.4169	418.788	31.5859
-37.4165	423.766	31.5957
-37.4152	427.923	31.6055
-37.4138	426.762	31.6152
-37.41333	423.562	31.625
-37.4119	418.061	31.6348
-37.4123	420.062	31.6445
-37.411	425.011	31.6543
-37.41016	427.475	31.6641
-37.4084	424.996	31.6738
-37.4076	422.274	31.6836
-37.4083	420.622	31.6934
-37.4071	419.673	31.7031
-37.4066	422.063	31.7129
-37.4058	422.87	31.7227
-37.4047	426.26	31.7324
-37.4038	424.464	31.7422
-37.4035	419.437	31.752
-37.4016	419.424	31.7617
-37.4022	420.51	31.7715
-37.401	424.973	31.78125
-37.4	424.19	31.791
-37.3989	422.146	31.8008
-37.3978	424.299	31.8105
-37.3965	420.37	31.8203
-37.3964	419.019	31.8301
-37.3958	419.775	31.8398
-37.3942	423.653	31.8496
-37.3939	426.389	31.8594
-37.3935	421.709	31.8691
-37.3926	420.342	31.8789
-37.3926	419.4361	31.8887
-37.3914	420.901	31.8984
-37.3894	422.62	31.9082
-37.3897	422.1593	31.918
-37.388	423.9765	31.9277
-37.3884	421.884	31.9375
-37.3864	419.78	31.9473
-37.3863	417.866	31.957
-37.3851	419.786	31.9668
-37.3838	424.168	31.9766
-37.3832	425.527	31.9863
-37.3823	422.473	31.9961
-37.3813	418.504	32.0059
-37.3811	419.6283	32.0156
-37.3802	419.793	32.0254
-37.3791	422.587	32.0352
-37.3784	423.916	32.0449
-37.37714	423.621	32.0547
-37.3761	422.07	32.0645
-37.3769	416.885	32.0742
-37.3758	417.859	32.084
-37.3742	421.311	32.09375
-37.3749	424.865	32.1035
-37.3718	426.155	32.1133
-37.3726	417.35	32.123
-37.3707	419.515	32.1328
-37.3697	418.168	32.1426
-37.3705	417.497	32.1523
-37.3694	424.683	32.1621
-37.3683	424.779	32.1719
-37.36718	424.898	32.1816
-37.3662	419.978	32.1914
-37.366	413.348	32.2012
-37.3646	418.207	32.2109
-37.3648	423.942	32.2207
-37.3636	425.135	32.2305
-37.36195	421.905	32.2402
-37.361	418.675	32.25
-37.3601	419.8183	32.2598
-37.3597	416.522	32.2695
-37.3594	420.582	32.2793
-37.3581	424.856	32.2891
-37.3579	425.26	32.2988
-37.3555	421.521	32.3086
-37.3551	415.651	32.3184
-37.3539	416.521	32.3281
-37.3534	420.861	32.3379
-37.354	424.712	32.3477
-37.3521	423.624	32.3574
-37.3521	422.782	32.3672
-37.3499	417.749	32.377
-37.3502	418.051	32.3867
-37.3495	417.571	32.3965
-37.3491	420.28	32.40625
-37.3473	425.669	32.416
-37.3462	423.629	32.4258
-37.3466	418.773	32.4355
-37.3454	417.144	32.4453
-37.34486	416.942	32.4551
-37.3438	422.007	32.4648
-37.3424	422.542	32.4746
-37.341	421.176	32.4844
-37.3408	420.817	32.4941
-37.3412	419.981	32.5039
-37.3406	419.435	32.5137
-37.3389	415.539	32.5234
-37.33831	421.106	32.5332
-37.3367	424.74	32.543
-37.3358	419.2467	32.5527
-37.3359	421.094	32.5625
-37.3349	417.289	32.5723
-37.3348	417.845	32.582
-37.3332	420.394	32.5918
-37.3317	419.5614	32.6016
-37.3316	420.527	32.6113
-37.3302	421.88	32.6211
-37.3299	417.428	32.6309
-37.3281	413.377	32.6406
-37.3281	416.221	32.6504
-37.3273	421.34	32.6602
-37.3271	424.879	32.6699
-37.3266	421.427	32.6797
-37.3258	417.295	32.6895
-37.3243	415.396	32.6992
-37.3235	415.919	32.709
-37.3216	417.775	32.71875
-37.32201	419.934	32.7285
-37.3198	423.223	32.7383
-37.3205	420.166	32.748
-37.319	414.761	32.7578
-37.3185	414.744	32.7676
-37.3162	416.543	32.7773
-37.3166	421.451	32.7871
-37.3154	422.63	32.7969
-37.3161	417.192	32.8066
-37.3144	416.284	32.8164
-37.3135	412.55	32.8262
-37.3123	413.254	32.8359
-37.3117	419.5	32.8457
-37.3123	419.096	32.8555
-37.3104	421.501	32.8652
-37.3094	415.239	32.875
-37.3094	410.829	32.8848
-37.30769	413.623	32.8945
-37.3066	416.44	32.9043
-37.30566	420.724	32.9141
-37.3056	418.984	32.9238
-37.3046	414.074	32.9336
-37.3036	412.492	32.9434
-37.3026	411.569	32.9531
-37.30254	415.163	32.9629
-37.3015	415.405	32.9727
-37.3007	418.728	32.9824
-37.2994	417.1062	32.9922
-37.2993	410.038	33.002
-37.2982	410.416	33.0117
-37.2981	412.876	33.0215
-37.2962	415.402	33.03125
-37.2951	414.823	33.041
-37.294	413.245	33.0508
-37.2943	412.623	33.0605
-37.2924	412.465	33.0703
-37.2931	410.103	33.0801
-37.29121	409.399	33.0898
-37.291	414.814	33.0996
-37.2893	415.538	33.1094
-37.2886	412.904	33.1191
-37.2887	407.441	33.1289
-37.2883	405.633	33.1387
-37.2864	408.901	33.1484
-37.2846	410.857	33.1582
-37.2853	409.764	33.168
-37.2836	410.425	33.1777
-37.2833	406.14	33.1875
-37.2823	403.549	33.1973
-37.2817	386.694	33.207
-37.2767	-10.8093	33.2168
-37.2772	-22.686	33.2266
-37.2763	-40.9427	33.2363
-37.2771	-47.8515	33.2461
-37.2755	-47.361	33.2559
-37.2756	-38.9759	33.2656
-37.2749	-42.3409	33.2754
-37.2743	-41.1049	33.2852
-37.2726	-40.1626	33.2949
-37.2731	-37.9935	33.3047
-37.27243	-41.8229	33.3145
-37.2717	-45.5227	33.3242
-37.2707	-46.1817	33.334
-37.2705	-41.15377	33.34375
-37.2687	-36.6124	33.3535
-37.2681	-39.5269	33.3633
-37.2674	-42.6665	33.373
-37.267	-44.1	33.3828
-37.2654	-45.0982	33.3926
-37.2644	-43.5487	33.4023
-37.2635	-40.0162	33.4121
-37.2624	-36.7987	33.4219
-37.26165	-39.9594	33.4316
-37.2624	-43.4113	33.4414
-37.2619	-47.1184	33.4512
-37.2587	-47.1999	33.4609
-37.259	-39.2391	33.4707
-37.2582	-36.8524	33.4805
-37.2576	-42.338	33.4902
-37.2574	-43.1653	33.5
-37.2566	-45.3235	33.5098
-37.2556	-46.332	33.5195
-37.2547	-41.7221	33.5293
-37.2534	-40.7441	33.5391
-37.2529	-37.5332	33.5488
-37.2511	-41.4794	33.5586
-37.2523	-47.3009	33.5684
-37.2495	-45.9091	33.5781
-37.2496	-42.4838	33.5879
-37.2481	-37.5169	33.5977
-37.2483	-40.44939	33.6074
-37.24733	-42.4734	33.6172
-37.2464	-43.4754	33.627
-37.245	-45.7748	33.6367
-37.2453	-44.2971	33.6465
-37.2442	-43.002	33.65625
-37.2433	-39.9221	33.666
-37.2419	-38.0527	33.6758
-37.2425	-43.5317	33.6855
-37.2401	-44.5854	33.6953
-37.2399	-44.4196	33.7051
-37.2384	-41.9751	33.7148
-37.2379	-40.6539	33.7246
-37.237	-41.2087	33.7344
-37.2368	-41.2578	33.7441
-37.23563	-40.9713	33.7539
-37.2347	-44.4328	33.7637
-37.2346	-44.1117	33.7734
-37.2329	-41.8875	33.7832
-37.2335	-39.968	33.793
-37.2327	-38.6633	33.8027
-37.231	-42.3193	33.8125
-37.2302	-45.8962	33.8223
-37.2285	-44.3422	33.832
-37.2279	-43.5868	33.8418
-37.2278	-41.5639	33.8516
-37.227	-39.5024	33.8613
-37.2258	-41.3105	33.8711
-37.2254	-43.5024	33.8809
-37.224	-46.3533	33.8906
-37.2234	-44.4754	33.9004
-37.2226	-40.2294	33.9102
-37.222	-39.3008	33.9199
-37.2214	-38.47525	33.9297
-37.2209	-43.9117	33.9395
-37.2197	-44.0229	33.9492
-37.2179	-44.4147	33.959
-37.21759	-42.8677	33.96875
-37.2177	-37.8559	33.9785
-37.21656	-37.9153	33.9883
-37.2161	-40.0132	33.998
-37.2152	-45.1461	34.0078
-37.2144	-49.0972	34.0176
-37.2122	-42.7448	34.0273
-37.21244	-37.5064	34.0371
-37.2114	-37.8811	34.0469
-37.2106	-41.0354	34.0566
-37.2089	-45.8668	34.0664
-37.2087	-44.7533	34.0762
-37.208	-44.4956	34.0859
-37.2084	-41.3852	34.0957
-37.2078	-37.8153	34.1055
-37.2057	-37.2697	34.1152
-37.20586	-43.6858	34.125
-37.2039	-46.9244	34.1348
-37.2034	-46.92	34.1445
-37.2019	-40.4113	34.1543
-37.2014	-38.029	34.1641
-37.2021	-39.9185	34.1738
-37.1992	-42.3978	34.1836
-37.1988	-44.6678	34.1934
-37.1983	-43.9893	34.2031
-37.19738	-42.9535	34.2129
-37.196	-41.7968	34.2227
-37.1958	-35.8961	34.2324
-37.1952	-40.4727	34.2422
-37.19482	-45.2347	34.252
-37.1932	-45.5088	34.2617
-37.193	-44.9771	34.2715
-37.1912	-40.3054	34.28125
-37.1916	-39.4338	34.291
-37.1906	-40.6134	34.3008
-37.1902	-42.1331	34.3105
-37.18903	-44.3585	34.3203
-37.187	-44.7376	34.3301
-37.1869	-43.5023	34.3398
-37.1856	-40.4874	34.3496
-37.18507	-37.3131	34.3594
-37.1843	-42.055	34.3691
-37.1837	-43.1807	34.3789
-37.1834	-44.2724	34.3887
-37.1822	-42.5869	34.3984