File: data/processed_data_files/tensile/0.254_solid_dimension_typei_090_r(2).dat
MTS793|BTW|ENU|1|2|.|/|:|1|0|0|A

Data Header:			0.254_solid_dimension_typei_090_r0			Time:	20.0293	s	4/15/2019 2:14:56 PM
Data Acquisition:	Timed
Station Name:	ft40.cfg
Test File Name:	monotonic_0.2540_typei_solid_090_dimension.tst
Displacement	Force	Running Time
mm	N	s
9.97253	-102.908	0.0341797
9.972971	-97.2258	0.0537109
9.97284	-97.3807	0.0732422
9.97477	-96.7522	0.0927734
9.97545	-102.095	0.112305
9.97768	-93.3239	0.131836
9.97906	-91.6751	0.151367
9.98139	-97.7865	0.170898
9.98227	-92.4385	0.19043
9.984	-88.4828	0.209961
9.986763	-95.2421	0.229492
9.9882	-89.0147	0.249023
9.99021	-83.0001	0.268555
9.99043	-91.8843	0.288086
9.99259	-87.4	0.307617
9.9943	-79.3351	0.327148
9.994813	-84.8666	0.34668
9.99674	-87.5078	0.366211
9.99907	-75.3327	0.385742
10.0018	-80.6335	0.405273
10.0022	-82.1079	0.424805
10.0045	-76.0372	0.444336
10.00543	-75.8054	0.463867
10.0065	-81.336	0.483398
10.0094	-69.9449	0.50293
10.0095	-71.80172	0.522461
10.0126	-75.8113	0.541992
10.01292	-73.113	0.561523
10.015	-64.5338	0.581055
10.0163	-72.3616	0.600586
10.01784	-68.7286	0.620117
10.0205	-65.6891	0.639648
10.022	-66.5987	0.65918
10.0231	-70.2236	0.678711
10.0252	-58.9663	0.698242
10.0271	-63.1506	0.717773
10.0284	-65.0033	0.737305
10.0304	-59.1423	0.756836
10.03166	-54.47834	0.776367
10.0338	-63.0981	0.795898
10.0346	-56.94487	0.81543
10.03601	-51.3702	0.834961
10.0366	-58.853	0.854492
10.0397	-54.4421	0.874023
10.042	-48.881	0.893555
10.043	-55.1228	0.913086
10.0449	-51.5444	0.932617
10.0463	-42.09761	0.952148
10.0473	-50.2468	0.97168
10.0506	-51.7574	0.991211
10.0518	-40.5262	1.01074
10.0529	-44.0777	1.03027
10.0544	-49.3082	1.0498
10.0556	-37.8491	1.06934
10.0574	-40.2092	1.08887
10.0586	-42.2133	1.1084
10.061	-38.4209	1.12793
10.0627	-34.9176	1.14746
10.0644	-40.7241	1.16699
10.0651	-33.0994	1.18652
10.0676	-32.2742	1.20605
10.0682	-35.0041	1.22559
10.0698	-35.1697	1.24512
10.0725	-26.9291	1.26465
10.0736	-30.5752	1.28418
10.07618	-29.5864	1.30371
10.0769	-26.0218	1.32324
10.0788	-26.6949	1.34277
10.08055	-29.0604	1.3623
10.0815	-20.3732	1.38184
10.0838	-22.0125	1.40137
10.084	-26.9704	1.4209
10.0867	-21.249	1.44043
10.0887	-15.1796	1.45996
10.0904	-24.525	1.47949
10.0919	-18.3779	1.49902
10.0937	-11.5161	1.51855
10.0955	-20.3127	1.53809
10.0967	-16.7332	1.55762
10.0984	-10.0672	1.57715
10.1007	-15.3954	1.59668
10.1015	-15.4434	1.61621
10.1014	-3.55607	1.63574
10.1047	-10.2513	1.65527
10.1054	-12.6041	1.6748
10.1083	-4.1895	1.69434
10.1093	-2.47897	1.71387
10.1106	-7.21471	1.7334
10.1137	-0.00900219	1.75293
10.1147	-1.95009	1.77246
10.116	-2.39109	1.79199
10.1178	0.581865	1.81152
10.1191	8.33173	1.83105
10.1205	-0.823722	1.85059
10.1222	4.13913	1.87012
10.125	9.38957	1.88965
10.1261	6.7479	1.90918
10.1273	1.78317	1.92871
10.1291	13.1324	1.94824
10.1305	10.7959	1.96777
10.13318	10.1392	1.9873
10.1333	14.3246	2.00684
10.1358	14.8007	2.02637
10.137	9.38923	2.0459
10.1405	18.9307	2.06543
10.1398	22.3591	2.08496
10.14235	13.55	2.10449
10.1443	17.6412	2.12402
10.1456	25.9269	2.14355
10.1467	18.8336	2.16309
10.1487	20.6282	2.18262
10.15	29.3492	2.20215
10.152	23.522	2.22168
10.154	24.5621	2.24121
10.1549	31.7003	2.26074
10.1565	28.6235	2.28027
10.1571	25.6549	2.2998
10.1608	37.9646	2.31934
10.1614	34.0699	2.33887
10.1639	29.9021	2.3584
10.16414	36.1469	2.37793
10.1664	38.94445	2.39746
10.1681	33.8319	2.41699
10.1701	39.8835	2.43652
10.1715	41.1902	2.45605
10.1736	39.17392	2.47559
10.1748	40.5966	2.49512
10.175	49.6378	2.51465
10.17821	42.0169	2.53418
10.1798	43.2177	2.55371
10.1816	48.7477	2.57324
10.182	50.663	2.59277
10.1846	43.79567	2.6123
10.1862	53.562	2.63184
10.1874	55.0913	2.65137
10.189	50.474	2.6709
10.1917	55.706	2.69043
10.1925	58.5508	2.70996
10.1947	51.6828	2.72949
10.1954	57.4317	2.74902
10.1972	65.6283	2.76855
10.1988	56.4709	2.78809
10.2009	57.6641	2.80762
10.2021	67.08	2.82715
10.204	62.1719	2.84668
10.2051	60.835	2.86621
10.2068	71.0387	2.88574
10.2094	65.4458	2.90527
10.2104	66.3808	2.9248
10.2121	72.4026	2.94434
10.2142	72.5445	2.96387
10.2151	66.2395	2.9834
10.2165	77.5158	3.00293
10.2195	76.0921	3.02246
10.2206	73.0971	3.04199
10.2218	73.3103	3.06152
10.224	82.7814	3.08105
10.2246	76.3695	3.10059
10.2258	81.4849	3.12012
10.2283	82.6911	3.13965
10.23	81.9481	3.15918
10.2316	80.201	3.17871
10.2335	91.2929	3.19824
10.2341	86.7915	3.21777
10.2373	83.495	3.2373
10.2381	90.5137	3.25684
10.2393	94.3106	3.27637
10.2414	85.8886	3.2959
10.2437	92.1081	3.31543
10.2444	97.8566	3.33496
10.2462	91.6035	3.35449
10.2471	95.1945	3.37402
10.25	103.172	3.39355
10.2508	93.3379	3.41309
10.253	97.1377	3.43262
10.2546	106.597	3.45215
10.2559	99.2838	3.47168
10.2577	98.875	3.49121
10.2587	108.242	3.51074
10.2601	105.954	3.53027
10.2629	102.341	3.5498
10.2628	110.803	3.56934
10.2652	108.442	3.58887
10.2681	106.314	3.6084
10.2685	112.847	3.62793
10.2702	117.748	3.64746
10.2725	106.996	3.66699
10.2744	116.6856	3.68652
10.2755	117.396	3.70605
10.2765	115.986	3.72559
10.2776	114.888	3.74512
10.2796	123.635	3.76465
10.2819	119.1134	3.78418
10.283	120.495	3.80371
10.28618	125.828	3.82324
10.2874	125.321	3.84277
10.2881	120.521	3.8623
10.2898	130.156	3.88184
10.2919	130.891	3.90137
10.2933	124.647	3.9209
10.2959	131.319	3.94043
10.2959	136.2731	3.95996
10.298	129.027	3.97949
10.2998	134.4449	3.99902
10.3008	140.138	4.01855
10.3037	133.498	4.03809
10.3049	136.777	4.05762
10.3069	145.284	4.07715
10.3081	138.167	4.09668
10.3106	137.172	4.11621
10.3108	149.166	4.13574
10.3124	144.632	4.15527
10.315	142.3869	4.1748
10.3169	148.098	4.19434
10.31776	147.7661	4.21387
10.3191	145.267	4.2334
10.321	154.369	4.25293
10.3236	152.243	4.27246
10.3238	148.812	4.29199
10.3257	153.83	4.31152
10.3268	160.791	4.33105
10.3289	152.033	4.35059
10.3305	155.487	4.37012
10.3324	160.91	4.38965
10.3338	160.726	4.40918
10.3355	156.3161	4.42871
10.3374	165.895	4.44824
10.33914	162.966	4.46777
10.34137	161.636	4.4873
10.3434	167.089	4.50684
10.3449	169.7356	4.52637
10.3455	160.391	4.5459
10.3465	171.154	4.56543
10.349	174.675	4.58496
10.3509	166.711	4.60449
10.35161	169.662	4.62402
10.3537	177.213	4.64355
10.3562	170.773	4.66309
10.3568	172.138	4.68262
10.3588	182.196	4.70215
10.3602	175.8532	4.72168
10.3625	175.959	4.74121
10.36335	186.403	4.76074
10.3637	181.134	4.78027
10.3662	175.61	4.7998
10.3687	189.608	4.81934
10.37047	186.806	4.83887
10.3716	183.405	4.8584
10.3735	188.094	4.87793
10.3752	193.462	4.89746
10.3757	186.025	4.91699
10.3779	194.716	4.93652
10.3792	194.017	4.95605
10.3821	191.996	4.97559
10.3829	190.89	4.99512
10.3843	202.892	5.01465
10.3857	195.82	5.03418
10.3874	195.7285	5.05371
10.3904	201.395	5.07324
10.3909	203.94	5.09277
10.3927	197.071	5.1123
10.394	207.519	5.13184
10.395	206.559	5.15137
10.3975	201.886	5.1709
10.3988	206.888	5.19043
10.4004	212.677	5.20996
10.4034	202.311	5.22949
10.4042	208.587	5.24902
10.4061	217.7545	5.26855
10.407	210.3598	5.28809
10.4089	209.775	5.30762
10.4103	219.949	5.32715
10.4121	215.212	5.34668
10.4139	214.053	5.36621
10.4151	225.835	5.38574
10.417	218.141	5.40527
10.4187	216.321	5.4248
10.42	225.54	5.44434
10.4221	224.842	5.46387
10.4235	218.727	5.4834
10.4262	229.4174	5.50293
10.4268	229.269	5.52246
10.4282	225.2765	5.54199
10.4301	226.177	5.56152
10.432	235.426	5.58105
10.43336	227.672	5.60059
10.4348	233.467	5.62012
10.4369	237.568	5.63965
10.438	234.7276	5.65918
10.4395	231.052	5.67871
10.44079	243.38	5.69824
10.442	239.481	5.71777
10.4441	235.428	5.7373
10.4464	242.043	5.75684
10.4465	247.138	5.77637
10.4489	238.411	5.7959
10.4505	246.769	5.81543
10.4535	251.439	5.83496
10.4541	242.097	5.85449
10.4565	247.159	5.87402
10.4583	255.358	5.89355
10.459	246.849	5.91309
10.4611	248.306	5.93262
10.4626	260.407	5.95215
10.4644	251.56	5.97168
10.4648	250.377	5.99121
10.4681	260.17	6.01074
10.4697	257.72	6.03027
10.4707	254.1526	6.0498
10.4721	265.701	6.06934
10.4737	260.148	6.08887
10.4755	258.041	6.1084
10.4767	262.759	6.12793
10.4793	270.012	6.14746
10.48101	260.775	6.16699
10.4824	267.755	6.18652
10.4838	272.862	6.20605
10.48558	267.936	6.22559
10.4863	266.994	6.24512
10.4893	278.404	6.26465
10.4906	270.637	6.28418
10.4925	272.077	6.30371
10.4927	279.67	6.32324
10.4944	279.501	6.34277
10.4955	270.844	6.3623
10.4981	282.804	6.38184
10.5005	284.059	6.40137
10.501	276.392	6.4209
10.5032	281.37	6.44043
10.5039	288.505	6.45996
10.5069	279.1416	6.47949
10.5084	285.609	6.49902
10.5101	293.685	6.51855
10.5121	284.265	6.53809
10.5125	288.107	6.55762
10.5147	297.895	6.57715
10.5162	289.305	6.59668
10.5177	287.887	6.61621
10.519	301.276	6.63574
10.5221	294.514	6.65527
10.5222	294.11	6.6748
10.5243	300.994	6.69434
10.5262	299.342	6.71387
10.5284	295.165	6.7334
10.5302	304.446	6.75293
10.5307	305.5787	6.77246
10.5325	299.064	6.79199
10.5349	305.281	6.81152
10.5351	314.337	6.83105
10.537	304.68	6.85059
10.539	307.203	6.87012
10.541	313.21	6.88965
10.54222	312.349	6.90918
10.5441	307.351	6.92871
10.54597	317.438	6.94824
10.5474	314.015	6.96777
10.54873	310.757	6.9873
10.5506	319.128	7.00684
10.5526	321.602	7.02637
10.5532	312.634	7.0459
10.5549	322.352	7.06543
10.5568	327.747	7.08496
10.5586	317.937	7.10449
10.5602	321.48	7.12402
10.5619	330.8168	7.14355
10.563	320.759	7.16309
10.5648	322.613	7.18262
10.5667	336.5968	7.20215
10.5681	326.084	7.22168
10.5704	326.552	7.24121
10.5717	337.03	7.26074
10.5723	332.984	7.28027
10.5746	326.389	7.2998
10.5763	342.7482	7.31934
10.5775	337.181	7.33887
10.5794	335.2738	7.3584
10.5813	341.015	7.37793
10.5823	344.573	7.39746
10.5845	334.64	7.41699
10.586	344.415	7.43652
10.5879	346.816	7.45605
10.5895	342.889	7.47559
10.5916	340.698	7.49512
10.5926	352.315	7.51465
10.5948	346.482	7.53418
10.5955	345.621	7.55371
10.5974	350.805	7.57324
10.5987	354.647	7.59277
10.60116	347.148	7.6123
10.6019	358.396	7.63184
10.6037	357.886	7.65137
10.6055	349.906	7.6709
10.608	359.406	7.69043
10.6093	364.94	7.70996
10.6112	354.132	7.72949
10.6125	359.1568	7.74902
10.6135	369.353	7.76855
10.6155	359.052	7.78809
10.6173	361.393	7.80762
10.6188	369.728	7.82715
10.6201	364.03	7.84668
10.6218	363.22	7.86621
10.6233	375.085	7.88574
10.624	367.85	7.90527
10.627	365.71	7.9248
10.6287	376.222	7.94434
10.6296	378.845	7.96387
10.6314	369.231	7.9834
10.6332	379.4205	8.00293
10.6349	379.193	8.02246
10.6372	377.103	8.04199
10.6392	377.741	8.06152
10.6404	385.925	8.08105
10.64186	376.042	8.10059
10.6429	382.979	8.12012
10.6451	387.794	8.13965
10.6467	382.863	8.15918
10.6477	377.9165	8.17871
10.6504	392.1944	8.19824
10.6513	389.9	8.21777
10.6529	383.938	8.2373
10.6542	391.702	8.25684
10.6566	394.745	8.27637
10.6571	386.501	8.2959
10.6598	396.699	8.31543
10.661	402.027	8.33496
10.66348	390.478	8.35449
10.6648	396.341	8.37402
10.6663	404.925	8.39355
10.6672	396.272	8.41309
10.6685	397.702	8.43262
10.67052	409.443	8.45215
10.6725	400.802	8.47168
10.6737	401.073	8.49121
10.6759	409.759	8.51074
10.6777	406.5419	8.53027
10.67894	402.5556	8.5498
10.6805	415.129	8.56934
10.6811	409.484	8.58887
10.6836	405.415	8.6084
10.6861	414.02	8.62793
10.6875	420.131	8.64746
10.6892	409.588	8.66699
10.6898	415.892	8.68652
10.692	418.958	8.70605
10.6929	416.575	8.72559
10.6954	415.028	8.74512
10.6969	426.539	8.76465
10.6988	420.514	8.78418
10.70048	420.142	8.80371
10.7013	429.01	8.82324
10.703	427.535	8.84277
10.7058	418.053	8.8623
10.70659	430.645	8.88184
10.7086	431.669	8.90137
10.709	424.522	8.9209
10.7103	430.64	8.94043
10.7135	437.74	8.95996
10.7151	428.266	8.97949
10.716	434.257	8.99902
10.7181	441.732	9.01855
10.7202	431.177	9.03809
10.7209	434.253	9.05762
10.7232	443.989	9.07715
10.7244	438.219	9.09668
10.7259	436.16	9.11621
10.7279	449.15	9.13574
10.7291	440.932	9.15527
10.73099	441.577	9.1748
10.7322	449.03	9.19434
10.7351	449.655	9.21387
10.7356	442.013	9.2334
10.7372	455.562	9.25293
10.7388	452.229	9.27246
10.74096	447.078	9.29199
10.743	450.5141	9.31152
10.745	460.699	9.33105
10.745	450.793	9.35059
10.7475	453.43	9.37012
10.7489	459.616	9.38965
10.7512	459.028	9.40918
10.7522	454.08	9.42871
10.7541	466.012	9.44824
10.7559	461.933	9.46777
10.7575	456.484	9.4873
10.7588	465.778	9.50684
10.7602	468.803	9.52637
10.7618	458.985	9.5459
10.7642	467.6796	9.56543
10.7662	474.19	9.58496
10.7674	463.968	9.60449
10.7682	469.508	9.62402
10.7704	476.58	9.64355
10.7719	467.942	9.66309
10.7735	471.2287	9.68262
10.7747	482.4903	9.70215
10.7764	472.775	9.72168
10.7777	473.574	9.74121
10.7794	484.437	9.76074
10.7807	482.659	9.78027
10.7833	475.2305	9.7998
10.7847	488.2825	9.81934
10.7872	483.402	9.83887
10.7884	481.786	9.8584
10.7894	486.204	9.87793
10.7911	492.055	9.89746
10.7932	482.22	9.91699
10.7945	491.673	9.93652
10.7961	493.272	9.95605
10.7984	487.6626	9.97559
10.7997	489.203	9.99512
10.8013	500.333	10.0146
10.8031	493.766	10.03418
10.8033	494.786	10.0537
10.8056	499.591	10.0732
10.80809	498.962	10.0928
10.8096	492.325	10.1123
10.8107	503.2	10.1318
10.8125	504.703	10.1514
10.8137	495.186	10.1709
10.8159	503.9751	10.19043
10.8174	510.754	10.21
10.8192	500.001	10.2295
10.8206	505.047	10.249
10.8228	512.968	10.2686
10.8239	502.494	10.2881
10.8253	508.4473	10.3076
10.8267	516.082	10.3271
10.8295	509.549	10.34668
10.8307	509.441	10.3662
10.832	522.438	10.3857
10.8334	513.045	10.4053
10.83515	511.331	10.4248
10.8369	521	10.4443
10.8385	523.174	10.4639
10.8406	514.275	10.4834
10.8415	524.498	10.50293
10.84395	524.481	10.5225
10.84488	520.101	10.542
10.8457	525.401	10.5615
10.8479	531.481	10.5811
10.8492	523.859	10.6006
10.8518	527.243	10.6201
10.8532	533.356	10.6396
10.8552	531.856	10.65918
10.8558	525.645	10.6787
10.8578	538.511	10.6982
10.8598	536.237	10.7178
10.8613	531.37	10.7373
10.8628	537.534	10.7568
10.8638	540.777	10.7764
10.8657	531.497	10.7959
10.8679	541.996	10.81543
10.8701	546.3399	10.835
10.8711	535.925	10.8545
10.873	540.927	10.874
10.8749	550.471	10.8936
10.8761	540.719	10.9131
10.8773	542.704	10.9326
10.88	553.638	10.9521
10.8817	543.631	10.97168
10.8821	548.015	10.9912
10.8833	554.7713	11.0107
10.8846	551.056	11.0303
10.8875	546.091	11.0498
10.8889	560.113	11.0693
10.8911	555.914	11.0889
10.8926	550.087	11.1084
10.8943	557.576	11.12793
10.8958	564.091	11.1475
10.8968	554.609	11.167
10.8986	561.887	11.1865
10.901	562.568	11.2061
10.9019	560.32	11.2256
10.9019	560.445	11.2451
10.9055	570.798	11.2646
10.9058	563.614	11.28418
10.9084	562.898	11.3037
10.9106	571.378	11.3232
10.9111	569.417	11.3428
10.914	563.517	11.3623
10.9156	572.741	11.3818
10.9167	574.831	11.4014
10.9175	568.868	11.4209
10.9195	574.222	11.44043
10.9212	578.84	11.46
10.9231	570.321	11.4795
10.9248	576.957	11.499
10.9258	585.275	11.5186
10.9277	573.453	11.5381
10.9301	578.286	11.5576
10.9309	587.91	11.5771
10.9336	580.742	11.59668
10.9346	579.908	11.6162
10.9357	592.393	11.6357
10.93751	583.727	11.6553
10.93854	584.8421	11.6748
10.9405	591.645	11.6943
10.9433	591.612	11.7139
10.9445	585.1441	11.7334
10.9457	596.699	11.75293
10.9483	595.003	11.7725
10.9498	590.85	11.792
10.9512	592.23	11.8115
10.9523	601.308	11.8311
10.9541	592.7998	11.8506
10.9551	595.5954	11.8701
10.9576	601.518	11.8896
10.9583	599.768	11.90918
10.9619	596.456	11.9287
10.9628	608.935	11.9482
10.964	604.286	11.9678
10.9658	597.631	11.9873
10.9667	607.527	12.0068
10.9685	609.745	12.0264
10.9703	602.587	12.0459
10.9725	608.886	12.06543
10.974	614.4364	12.085
10.9751	603.285	12.1045
10.9757	611.2981	12.124
10.9777	618.598	12.1436
10.9808	608.788	12.1631
10.9801	611.325	12.1826
10.9831	624.982	12.2021
10.9849	613.331	12.22168
10.985	615.251	12.2412
10.9878	623.208	12.2607
10.9899	623.228	12.2803
10.99125	617.645	12.2998
10.9926	627.973	12.3193
10.9952	623.052	12.3389
10.9958	619.758	12.3584
10.9976	625.818	12.37793
10.9999	630.691	12.3975
11.0013	621.714	12.417
11.0033	630.031	12.4365
11.0055	634.171	12.4561
11.0057	629.707	12.4756
11.00741	627.756	12.4951
11.0098	639.385	12.5146
11.01096	633.4895	12.53418
11.0128	632.09	12.5537
11.0138	640.515	12.5732
11.0147	637.71	12.5928
11.0182	631.84	12.6123
11.01813	642.308	12.6318
11.0219	643.521	12.6514
11.0231	634.954	12.6709
11.02455	644.451	12.69043
11.0253	649.367	12.71
11.0271	640.091	12.7295
11.0288	644.618	12.749
11.0309	652.479	12.7686
11.0319	642.107	12.7881
11.0341	648.784	12.8076
11.0357	654.947	12.8271
11.03673	648.606	12.84668
11.0384	647.448	12.8662
11.0397	661.708	12.8857
11.0422	652.503	12.9053
11.0438	650.0993	12.9248
11.0456	658.393	12.9443
11.04652	661.089	12.9639
11.0492	654.601	12.9834
11.0497	663.019	13.00293
11.0509	662.677	13.0225
11.0535	658.519	13.042
11.0558	663.357	13.0615
11.0566	670.758	13.0811
11.0587	659.393	13.1006
11.0601	666.62	13.1201
11.0617	671.641	13.1396
11.062	668.311	13.15918
11.0642	663.518	13.1787
11.06525	674.362	13.1982
11.0677	670.835	13.2178
11.0693	667.463	13.2373
11.0713	675.625	13.2568
11.0725	676.449	13.2764
11.0748	669.585	13.2959
11.076	678.76	13.31543
11.07761	683.287	13.335
11.08042	671.754	13.3545
11.0802	678.823	13.374
11.0821	685.26	13.3936
11.0848	677.392	13.4131
11.0846	677.008	13.4326
11.0872	690.953	13.4521
11.08831	680.268	13.47168
11.0905	683.373	13.4912
11.0918	691.115	13.5107
11.0946	687.883	13.5303
11.0957	682.388	13.5498
11.0973	695.457	13.5693
11.0987	691.564	13.5889
11.1001	687.298	13.6084
11.1023	692.671	13.62793
11.1036	699.844	13.6475
11.10538	690.774	13.667
11.1064	697.206	13.6865
11.1072	699.321	13.7061
11.1102	694.8598	13.7256
11.1119	698.025	13.7451
11.1134	707.306	13.7646
11.1146	700.125	13.78418
11.1156	698.416	13.8037
11.1175	708.631	13.8232
11.1191	705.565	13.8428
11.1222	698.542	13.8623
11.1235	709.121	13.8818
11.1248	710.876	13.9014
11.1259	702.539	13.9209
11.12885	712.55	13.94043
11.1295	713.723	13.96
11.131	706.082	13.9795
11.1325	711.708	13.999
11.1343	721.67	14.0186
11.13662	709.229	14.0381
11.1383	712.991	14.0576
11.14018	722.341	14.0771
11.1419	717.461	14.09668
11.14292	714.9007	14.1162
11.1449	725.32	14.1357
11.1462	716.945	14.1553
11.1485	718.38	14.1748
11.1495	726.426	14.1943
11.1501	724.711	14.2139
11.1526	717.925	14.2334
11.1545	730.265	14.25293
11.1558	729.3819	14.2725
11.1572	723.229	14.292
11.1587	726.934	14.3115
11.1611	735.146	14.3311
11.1622	729.4101	14.3506
11.16377	730.973	14.3701
11.1658	736.496	14.3896
11.1666	732.277	14.40918
11.1684	732.015	14.4287
11.1699	741.193	14.4482
11.17207	738.446	14.4678
11.1736	731.618	14.4873
11.1749	742.447	14.5068
11.1767	742.752	14.5264
11.178	735.567	14.5459
11.1809	743.036	14.56543
11.18256	747.569	14.585
11.18344	737.146	14.6045
11.185	746.306	14.624
11.1863	749.436	14.6436
11.1884	741.7641	14.6631
11.1902	745.374	14.6826
11.192	757.239	14.7021
11.1918	745.168	14.72168
11.1946	748.19	14.7412
11.1963	755.874	14.7607
11.1988	754.427	14.7803
11.1988	748.832	14.7998
11.20056	760.766	14.8193
11.2027	753.589	14.8389
11.2036	753.268	14.8584
11.2058	759.201	14.87793
11.2073	762.771	14.8975
11.2095	755.129	14.917
11.2114	761.432	14.9365
11.213	765.913	14.9561
11.2136	761.3335	14.9756
11.2161	760.703	14.9951
11.2176	769.031	15.0146
11.2195	765.643	15.03418
11.2207	762.178	15.0537
11.2229	771.038	15.0732
11.2244	767.888	15.0928
11.2258	762.867	15.1123
11.2267	773.83	15.1318
11.2297	776.005	15.1514
11.2313	764.312	15.1709
11.2329	775.875	15.19043
11.2336	778.348	15.21
11.2353	770.649	15.2295
11.2368	775.165	15.249
11.2388	784.622	15.2686
11.2419	772.941	15.2881
11.2422	780.411	15.3076
11.2438	785.471	15.3271
11.2452	779.744	15.34668
11.24518	778.632	15.3662
11.24815	791.282	15.3857
11.2505	782.273	15.4053
11.2512	781.797	15.4248
11.2535	789.176	15.4443
11.2545	789.0647	15.4639
11.2563	781.203	15.4834
11.2579	792.674	15.50293
11.2597	790.763	15.5225
11.2626	787.451	15.542
11.264	791.574	15.5615
11.2658	798.788	15.5811
11.2666	790.604	15.6006
11.2679	792.806	15.6201
11.2695	800.351	15.6396
11.2722	795.868	15.65918
11.2731	791.997	15.6787
11.2735	800.808	15.6982
11.277	800.345	15.7178
11.2781	794.576	15.7373
11.27894	804.998	15.7568
11.2821	803.33	15.7764
11.2823	795.15	15.7959
11.2836	805.816	15.81543
11.2851	810.605	15.835
11.2875	797.9624	15.8545
11.2883	807.927	15.874
11.2911	811.943	15.8936
11.291	806.7	15.9131
11.2936	806.916	15.9326
11.296	817.588	15.9521
11.2981	808.243	15.97168
11.2991	811.7439	15.9912
11.2999	818.258	16.0107
11.3038	814.453	16.0303
11.3047	808.9986	16.0498
11.3054	821.989	16.0693
11.30588	817.741	16.0889
11.3087	815.186	16.1084
11.3107	819.812	16.12793
11.3128	825.315	16.1475
11.314	817.743	16.167
11.3152	822.966	16.1865
11.3173	827.083	16.2061
11.3186	821.546	16.2256
11.3208	823.201	16.2451
11.3217	831.059	16.2646
11.3237	826.277	16.28418
11.3246	821.355	16.3037
11.3276	833.224	16.3232
11.3283	830.732	16.3428
11.3297	826.255	16.3623
11.3307	832.882	16.3818
11.3332	836.0304	16.4014
11.3358	827.466	16.4209
11.3357	837.761	16.44043
11.3382	837.784	16.46
11.3396	830.129	16.4795
11.3409	838.063	16.499
11.3432	846.323	16.5186
11.3442	833.339	16.5381
11.3448	836.893	16.5576
11.34819	845.69	16.5771
11.3493	842.008	16.59668
11.3513	839.679	16.6162
11.3526	850.023	16.6357
11.3551	841.172	16.6553
11.3554	843.091	16.6748
11.3575	850.275	16.6943
11.3597	850.8927	16.7139
11.3618	841.9848	16.7334
11.3626	852.459	16.75293
11.3631	850.842	16.7725
11.3656	847.173	16.792
11.3669	850.248	16.8115
11.3686	859.245	16.8311
11.3707	849.972	16.8506
11.372	851.794	16.8701
11.374	860.613	16.8896
11.3746	852.541	16.90918
11.3773	852.477	16.9287
11.37901	863.237	16.9482
11.3803	862.851	16.9678
11.3821	852.896	16.9873
11.38342	864.622	17.0068
11.3854	863.794	17.0264
11.3869	857.182	17.0459
11.3889	864.644	17.06543
11.3902	869.377	17.085
11.3922	857.051	17.1045
11.3924	868.118	17.124
11.3941	871.712	17.1436
11.3965	862.742	17.1631
11.3989	865.279	17.1826
11.3993	878.285	17.2021
11.4018	865.568	17.22168
11.4033	868.987	17.2412
11.4056	875.699	17.2607
11.4063	873.542	17.2803
11.4082	871.155	17.2998
11.4107	879.64	17.3193
11.4116	874.837	17.3389
11.4133	872.808	17.3584
11.414	878.236	17.37793
11.4171	882.277	17.3975
11.4171	874.174	17.417
11.4197	879.06	17.4365
11.41994	883.677	17.4561
11.4222	878.974	17.4756
11.4236	879.183	17.4951
11.4261	886.4682	17.5146
11.4274	882.443	17.53418
11.4298	879.728	17.5537
11.43217	889.42	17.5732
11.4327	885.573	17.5928
11.4344	881.691	17.6123
11.4363	892.135	17.6318
11.4379	893.598	17.6514
11.438	882.828	17.6709
11.4401	892.184	17.69043
11.4429	895.255	17.71
11.4435	886.429	17.7295
11.4457	891.704	17.749
11.4472	900.685	17.7686
11.4482	887.912	17.7881
11.4499	895.462	17.8076
11.4522	902.056	17.8271
11.4548	895.935	17.84668
11.4555	894.061	17.8662
11.456	904.359	17.8857
11.4574	896.424	17.9053
11.4605	896.398	17.9248
11.4615	903.484	17.9443
11.4627	903.93	17.9639
11.4643	899.544	17.9834
11.4662	907.1922	18.00293
11.4681	903.995	18.0225
11.4703	900.401	18.042
11.4721	905.115	18.0615
11.4741	912.402	18.0811
11.4735	903.565	18.1006
11.4764	905.265	18.1201
11.47758	913.854	18.1396
11.4781	907.567	18.15918
11.4809	905.651	18.1787
11.48237	912.32	18.1982
11.4843	913.777	18.2178
11.4874	906.692	18.2373
11.48689	918.188	18.2568
11.4893	914.0451	18.2764
11.4911	908.05	18.2959
11.4921	917.217	18.31543
11.4938	923.009	18.335
11.4958	910.706	18.3545
11.4974	919.182	18.374
11.4993	920.5036	18.3936
11.5005	917.036	18.4131
11.5022	919.559	18.4326
11.5037	926.961	18.4521
11.5062	916.551	18.47168
11.5074	919.76	18.4912
11.5095	926.302	18.5107
11.5102	922.977	18.5303
11.5122	918.331	18.5498
11.5148	929.156	18.5693
11.5154	926.739	18.5889
11.5164	924.097	18.6084
11.5189	928.6	18.62793
11.5205	931.842	18.6475
11.5221	925.07	18.667
11.52328	931.186	18.6865
11.5253	932.114	18.7061
11.5273	926.729	18.7256
11.5286	928.7699	18.7451
11.5294	938.401	18.7646
11.53226	932.479	18.78418
11.5333	928.198	18.8037
11.5347	937.754	18.8232
11.53704	936.361	18.8428
11.5372	931.518	18.8623
11.5396	939.801	18.8818
11.5407	940.9342	18.9014
11.54283	931.0213	18.9209
11.5436	943.292	18.94043
11.5458	942.926	18.96
11.5483	933.2019	18.9795
11.5495	941.078	18.999
11.5505	949.573	19.0186
11.5531	936.275	19.0381
11.5545	942.52	19.0576
11.5561	946.6543	19.0771
11.5567	943.661	19.09668
11.55935	941.841	19.1162
11.56118	951.789	19.1357
11.5634	944.5567	19.1553
11.5631	945.21	19.1748
11.5668	951.541	19.1943
11.5678	950.656	19.2139
11.5695	943.897	19.2334
11.5703	952.637	19.25293
11.572	952.367	19.2725
11.5738	947.57	19.292
11.576	950.053	19.3115
11.5776	955.91	19.3311
11.5782	950.0022	19.3506
11.5804	952.281	19.3701
11.5824	958.943	19.3896
11.5836	953.715	19.40918
11.5847	950.904	19.4287
11.58694	960.753	19.4482
11.5889	958.581	19.4678
11.5891	950.27	19.4873
11.5921	961.091	19.5068
11.59311	960.003	19.5264
11.5944	955.207	19.5459
11.5967	960.737	19.56543
11.5992	963.845	19.585
11.5993	954.262	19.6045
11.6017	964.732	19.624
11.6024	965.3363	19.6436
11.6053	959.295	19.6631
11.60649	961.22	19.6826
11.60757	970.779	19.7021
11.6088	960.152	19.72168
11.6109	962.36	19.7412
11.6131	969.291	19.7607
11.61417	964.265	19.7803
11.616	960.876	19.7998
11.6172	971.86	19.8193
11.62	966.106	19.8389
11.622	964.446	19.8584
11.6219	970.017	19.87793
11.6245	973.585	19.8975
11.6259	966.96	19.917
11.6274	970.461	19.9365
11.6286	975.477	19.9561
11.63	969.6698	19.9756
11.6319	970.258	19.9951
11.6347	976.2276	20.0146
11.6339	979.279	20.0244

Data Header:			0.254_solid_dimension_typei_090_r0			Time:	40.0303	s	4/15/2019 2:15:16 PM
Data Acquisition:	Timed
Station Name:	ft40.cfg
Test File Name:	monotonic_0.2540_typei_solid_090_dimension.tst
Displacement	Force	Running Time
mm	N	s
11.6359	970.766	20.03418
11.6366	969.541	20.0537
11.638	978.043	20.0732
11.6409	973.791	20.0928
11.6409	969.625	20.1123
11.644	980.594	20.1318
11.6456	982.304	20.1514
11.6471	969.903	20.1709
11.649	979.598	20.19043
11.6508	980.219	20.21
11.6533	973.9397	20.2295
11.6546	980.505	20.249
11.6551	985.285	20.2686
11.6579	974.0401	20.2881
11.6576	979.7821	20.3076
11.6599	986.1991	20.3271
11.6623	979.677	20.34668
11.6647	978.086	20.3662
11.6654	989.1355	20.3857
11.6673	982.656	20.4053
11.6689	981.855	20.4248
11.6703	985.298	20.4443
11.6726	984.864	20.4639
11.6733	980.11	20.4834
11.67366	989.168	20.50293
11.6765	987.0799	20.5225
11.6786	982.44	20.542
11.6796	985.93	20.5615
11.6823	990.7829	20.5811
11.6833	985.115	20.6006
11.6841	984.086	20.6201
11.6862	992.479	20.6396
11.6874	987.579	20.65918
11.6885	987.035	20.6787
11.6905	993.624	20.6982
11.6925	990.7135	20.7178
11.6952	984.02	20.7373
11.6959	995.98	20.7568
11.6983	992.045	20.7764
11.6995	986.942	20.7959
11.6998	992.734	20.81543
11.7017	999.049	20.835
11.7049	985.626	20.8545
11.7056	993.193	20.874
11.7085	997.559	20.8936
11.71035	992.288	20.9131
11.7106	994.038	20.9326
11.7116	1001.71	20.9521
11.7148	988.15	20.97168
11.7154	993.961	20.9912
11.7166	1000.71	21.0107
11.7181	996.696	21.0303
11.7203	991.814	21.0498
11.7216	1000.29	21.0693
11.7252	998.039	21.0889
11.725	993.749	21.1084
11.72701	998.966	21.12793
11.7292	1000.99	21.1475
11.73085	994.988	21.167
11.731	998.867	21.1865
11.7338	1002.62	21.2061
11.7349	994.968	21.2256
11.7374	997.797	21.2451
11.7385	1005.17	21.2646
11.7391	1001.25	21.28418
11.7412	995.965	21.3037
11.7428	1006.21	21.3232
11.7452	1002.16	21.3428
11.7476	997.7016	21.3623
11.74814	1004.528	21.3818
11.7503	1005.49	21.4014
11.74999	994.032	21.4209
11.7537	1006.31	21.44043
11.7546	1007.63	21.46
11.7562	998.902	21.4795
11.7576	1002.23	21.499
11.7588	1010.33	21.5186
11.7619	996.834	21.5381
11.76183	1003.39	21.5576
11.765	1006.38	21.5771
11.76704	1002.79	21.59668
11.7663	1001.11	21.6162
11.7698	1012.03	21.6357
11.7711	1001.82	21.6553
11.7733	1000.28	21.6748
11.7733	1008.86	21.6943
11.7752	1006.81	21.7139
11.77828	1000.82	21.7334
11.7786	1007.84	21.75293
11.7811	1009.23	21.7725
11.7821	1002.05	21.792
11.7832	1005.74	21.8115
11.7855	1011.49	21.8311
11.7871	1004.38	21.8506
11.7883	1004.85	21.8701
11.7897	1014.29	21.8896
11.7919	1005.764	21.90918
11.7943	1002.82	21.9287
11.7949	1013.8	21.9482
11.7961	1012.32	21.9678
11.7991	1002.84	21.9873
11.7998	1013.45	22.0068
11.8016	1009.65	22.0264
11.8038	1005.24	22.0459
11.8045	1011.11	22.06543
11.80698	1015.9	22.085
11.8084	1000.71	22.1045
11.8105	1011.68	22.124
11.81181	1014.32	22.1436
11.8125	1007.61	22.1631
11.8154	1008.34	22.1826
11.8158	1017.18	22.2021
11.8178	1006.5	22.22168
11.8195	1009.86	22.2412
11.8215	1013.69	22.2607
11.82331	1011.053	22.2803
11.825	1006.91	22.2998
11.8256	1015.55	22.3193
11.8277	1013.08	22.3389
11.82941	1007.21	22.3584
11.8318	1013.9	22.37793
11.8317	1015.58	22.3975
11.8345	1009.06	22.417
11.8366	1012.74	22.4365
11.8369	1015.1	22.4561
11.8399	1009.17	22.4756
11.8409	1010.84	22.4951
11.8418	1016.95	22.5146
11.8436	1011.83	22.53418
11.845	1009.17	22.5537
11.847	1019.92	22.5732
11.8488	1013.59	22.5928
11.8498	1008.66	22.6123
11.8527	1016.527	22.6318
11.8534	1019.55	22.6514
11.8555	1006.39	22.6709
11.857	1017.53	22.69043
11.8586	1015.82	22.71
11.8604	1009.53	22.7295
11.86236	1014.65	22.749
11.8639	1020.46	22.7686
11.8653	1006.69	22.7881
11.8672	1014.69	22.8076
11.8684	1018.55	22.8271
11.8703	1013.236	22.84668
11.8717	1011.68	22.8662
11.8733	1019.76	22.8857
11.8741	1014.29	22.9053
11.878	1012.21	22.9248
11.8782	1017.22	22.9443
11.8808	1017.57	22.9639
11.8812	1011.48	22.9834
11.8828	1018.49	23.00293
11.8854	1017.32	23.0225
11.8865	1010.12	23.042
11.8882	1016.72	23.0615
11.88934	1019.842	23.0811
11.89082	1013.319	23.1006
11.8919	1011.799	23.1201
11.8933	1020.89	23.1396
11.8963	1014.33	23.15918
11.8975	1014.53	23.1787
11.8994	1020.14	23.1982
11.9006	1016.77	23.2178
11.9021	1008.78	23.2373
11.9041	1019.99	23.2568
11.9053	1017.35	23.2764
11.9081	1010.32	23.2959
11.9087	1017.98	23.31543
11.9115	1021.35	23.335
11.912	1008.92	23.3545
11.91429	1019.36	23.374
11.9151	1018.39	23.3936
11.9184	1012.73	23.4131
11.9191	1014.49	23.4326
11.9203	1020.95	23.4521
11.9219	1010.25	23.47168
11.9234	1013.7	23.4912
11.9255	1020.11	23.5107
11.9272	1016.513	23.5303
11.9295	1012.26	23.5498
11.9306	1018.023	23.5693
11.9316	1015.71	23.5889
11.933	1011.63	23.6084
11.9352	1018.54	23.62793
11.9363	1018.54	23.6475
11.939	1011.42	23.667
11.9406	1015.99	23.6865
11.9415	1020.47	23.7061
11.943	1011.35	23.7256
11.9452	1013.7	23.7451
11.9469	1020.01	23.7646
11.9488	1016.55	23.78418
11.9498	1010.13	23.8037
11.9511	1019.66	23.8232
11.9532	1013.299	23.8428
11.9556	1012.39	23.8623
11.957	1019.29	23.8818
11.9578	1019.6	23.9014
11.9597	1009.34	23.9209
11.9604	1019.69	23.94043
11.9634	1019.29	23.96
11.9644	1012.94	23.9795
11.9663	1017.09	23.999
11.9688	1022.88	24.0186
11.9688	1011.06	24.0381
11.97037	1018.39	24.0576
11.9723	1019.61	24.0771
11.9747	1014.65	24.09668
11.9755	1012.96	24.1162
11.9773	1020.34	24.1357
11.9787	1013.3	24.1553
11.9806	1011.07	24.1748
11.9823	1018.06	24.1943
11.98401	1017.97	24.2139
11.9848	1011.81	24.2334
11.9876	1015.824	24.25293
11.9885	1017.554	24.2725
11.9897	1012.114	24.292
11.9923	1015.34	24.3115
11.9942	1019.078	24.3311
11.9949	1011.4	24.3506
11.9978	1012.3	24.3701
11.9986	1020.15	24.3896
11.9998	1013.79	24.40918
12.0023	1009.291	24.4287
12.0034	1017.06	24.4482
12.0054	1016.57	24.4678
12.0075	1007.86	24.4873
12.0082	1017.92	24.5068
12.0101	1013.84	24.5264
12.0102	1010.15	24.5459
12.014	1017.34	24.56543
12.0153	1020.07	24.585
12.0167	1006.65	24.6045
12.0179	1015.28	24.624
12.0205	1018.337	24.6436
12.0228	1010.06	24.6631
12.0226	1009.702	24.6826
12.0246	1019.16	24.7021
12.0265	1009.8	24.72168
12.0277	1011.6	24.7412
12.0302	1015.96	24.7607
12.0307	1012.77	24.7803
12.03267	1009.55	24.7998
12.0344	1017.98	24.8193
12.0371	1013.75	24.8389
12.0378	1006.88	24.8584
12.0393	1012.24	24.87793
12.0418	1015.82	24.8975
12.0429	1009.83	24.917
12.0441	1012.47	24.9365
12.0471	1013.96	24.9561
12.0471	1009.39	24.9756
12.0481	1011.03	24.9951
12.05082	1015.69	25.0146
12.0523	1009.75	25.03418
12.054	1006.24	25.0537
12.0557	1018.53	25.0732
12.0573	1012.02	25.0928
12.0578	1007.05	25.1123
12.0598	1014.57	25.1318
12.0621	1014.52	25.1514
12.0633	1004.65	25.1709
12.0651	1015.84	25.19043
12.0659	1013	25.21
12.0683	1007.06	25.2295
12.0704	1012.71	25.249
12.0717	1017.03	25.2686
12.0741	1004.23	25.2881
12.0753	1010.59	25.3076
12.07581	1015.48	25.3271
12.0787	1008.34	25.34668
12.0795	1007.277	25.3662
12.0817	1016.35	25.3857
12.0824	1007.3	25.4053
12.0848	1007.81	25.4248
12.0865	1013.78	25.4443
12.0884	1012.73	25.4639
12.0899	1004.96	25.4834
12.0911	1012.45	25.50293
12.0933	1012.79	25.5225
12.0937	1003.48	25.542
12.0962	1008.51	25.5615
12.0982	1013	25.5811
12.0994	1008.78	25.6006
12.1018	1006.26	25.6201
12.1032	1013.91	25.6396
12.104	1007.58	25.65918
12.1062	1007.71	25.6787
12.1069	1014.44	25.6982
12.1091	1009.76	25.7178
12.1106	1001.613	25.7373
12.1122	1014.88	25.7568
12.1141	1010.26	25.7764
12.115	1004.06	25.7959
12.1168	1009.28	25.81543
12.11911	1012.07	25.835
12.1208	1001.075	25.8545
12.1223	1010.61	25.874
12.12398	1011.99	25.8936
12.1264	1003.2	25.9131
12.1281	1006.718	25.9326
12.1292	1014.76	25.9521
12.1294	1003.12	25.97168
12.132	1004.88	25.9912
12.1342	1011.17	26.0107
12.1361	1007.93	26.0303
12.1367	1002.7	26.0498
12.1379	1009.897	26.0693
12.1389	1005.39	26.0889
12.14252	1002.21	26.1084
12.1428	1009.22	26.12793
12.1458	1008.89	26.1475
12.1466	1001.97	26.167
12.14744	1006.08	26.1865
12.1505	1011.24	26.2061
12.1514	1003.13	26.2256
12.1531	1004.27	26.2451
12.1553	1008.41	26.2646
12.155	1006.97	26.28418
12.1567	1001.13	26.3037
12.161	1011.66	26.3232
12.162	1004.96	26.3428
12.1637	1001.97	26.3623
12.1642	1008.826	26.3818
12.1657	1009.66	26.4014
12.168	996.726	26.4209
12.1692	1007.947	26.44043
12.1716	1007.86	26.46
12.1733	999.455	26.4795
12.1742	1004.26	26.499
12.1763	1009.83	26.5186
12.1784	1000.05	26.5381
12.1794	1004.75	26.5576
12.1812	1008.788	26.5771
12.1825	1002.33	26.59668
12.1843	1001.05	26.6162
12.1855	1011.86	26.6357
12.1866	1002.131	26.6553
12.1889	999.7547	26.6748
12.1917	1006.95	26.6943
12.1918	1004.84	26.7139
12.1932	1001.18	26.7334
12.19513	1005.37	26.75293
12.19745	1005.08	26.7725
12.1987	999.503	26.792
12.2001	1004.14	26.8115
12.2022	1005.78	26.8311
12.2035	999.857	26.8506
12.20602	1000.2	26.8701
12.2066	1008.73	26.8896
12.2081	1001.4	26.90918
12.20969	997.7912	26.9287
12.2121	1004.48	26.9482
12.2133	1005.13	26.9678
12.2149	995.482	26.9873
12.2173	1007.13	27.0068
12.2183	1002.65	27.0264
12.2203	996.213	27.0459
12.2215	1004.21	27.06543
12.2227	1009.19	27.085
12.22368	994.984	27.1045
12.2271	1004.36	27.124
12.22815	1005.71	27.1436
12.2297	999.844	27.1631
12.2307	999.997	27.1826
12.2325	1007.5	27.2021
12.2355	996.552	27.22168
12.2362	999.841	27.2412
12.2373	1005.55	27.2607
12.2392	1001.19	27.2803
12.2415	996.439	27.2998
12.2425	1005.66	27.3193
12.2443	1002.3	27.3389
12.2457	998.5116	27.3584
12.2469	1001.35	27.37793
12.2488	1003.78	27.3975
12.2512	997.8703	27.417
12.25243	999.629	27.4365
12.2536	1005.24	27.4561
12.2559	996.1911	27.4756
12.2576	998.92	27.4951
12.2592	1006.14	27.5146
12.2605	1001.36	27.53418
12.2629	995.703	27.5537
12.2634	1005.73	27.5732
12.2654	999.927	27.5928
12.2653	995.997	27.6123
12.2692	1003.39	27.6318
12.27035	1002.01	27.6514
12.2714	993.274	27.6709
12.2731	1004.22	27.69043
12.2742	1003.19	27.71
12.2774	995.662	27.7295
12.279	1000.25	27.749
12.2799	1007.59	27.7686
12.2822	993.617	27.7881
12.2836	998.244	27.8076
12.2852	1003.87	27.8271
12.2861	998.619	27.84668
12.2885	997.559	27.8662
12.2894	1005.45	27.8857
12.2911	996.655	27.9053
12.2928	994.491	27.9248
12.2946	1002.64	27.9443
12.2957	1001.62	27.9639
12.2978	994.523	27.9834
12.2996	1000.01	28.00293
12.3022	1000.65	28.0225
12.3022	995.434	28.042
12.3042	997.461	28.0615
12.3069	1001.89	28.0811
12.308	996.62	28.1006
12.3094	996.937	28.1201
12.3103	1003.15	28.1396
12.3129	996.219	28.15918
12.3145	995.024	28.1787
12.3156	1002.79	28.1982
12.3175	1001.77	28.2178
12.3193	991.834	28.2373
12.3205	1002.3	28.2568
12.32223	1000	28.2764
12.3242	994.709	28.2959
12.32559	999.857	28.31543
12.3275	1003.08	28.335
12.3289	990.801	28.3545
12.3299	1000.202	28.374
12.333	1001.54	28.3936
12.333	994.45	28.4131
12.3364	995.578	28.4326
12.3367	1002.85	28.4521
12.33865	994.172	28.47168
12.3413	996.127	28.4912
12.34155	999.628	28.5107
12.3438	997.687	28.5303
12.3452	994.742	28.5498
12.3461	1002.61	28.5693
12.3486	994.696	28.5889
12.3499	993.661	28.6084
12.352	997.789	28.62793
12.3531	1000.43	28.6475
12.356	993.305	28.667
12.3569	995.846	28.6865
12.3581	1000.29	28.7061
12.3595	994.661	28.7256
12.3624	995.296	28.7451
12.3632	999.583	28.7646
12.3642	994.867	28.78418
12.3662	992.08	28.8037
12.3677	1001.6	28.8232
12.3707	996.095	28.8428
12.3714	992.289	28.8623
12.3729	999.045	28.8818
12.3748	1001.07	28.9014
12.3759	988.5	28.9209
12.3774	999.165	28.94043
12.3794	998.709	28.96
12.3804	993.412	28.9795
12.3818	995.3092	28.999
12.3845	1002.37	29.0186
12.3857	989.123	29.0381
12.3877	995.53	29.0576
12.389	999.612	29.0771
12.3896	995.082	29.09668
12.3931	993.251	29.1162
12.3936	1001.23	29.1357
12.3947	994.205	29.1553
12.3968	993.417	29.1748
12.3986	996.342	29.1943
12.4006	995.984	29.2139
12.4026	990.96	29.2334
12.4028	998.303	29.25293
12.4049	995.888	29.2725
12.4071	991.541	29.292
12.4088	993.714	29.3115
12.4111	999.478	29.3311
12.4111	993.537	29.3506
12.4126	992.915	29.3701
12.4145	998.672	29.3896
12.4166	994.038	29.40918
12.4182	992.251	29.4287
12.4195	998.147	29.4482
12.4223	995.5495	29.4678
12.4229	989.08	29.4873
12.4253	1000.22	29.5068
12.42686	996.6062	29.5264
12.4294	989.498	29.5459
12.4297	997.336	29.56543
12.4315	1000.81	29.585
12.4326	988.951	29.6045
12.435	995.428	29.624
12.43663	996.661	29.6436
12.4381	991.982	29.6631
12.4404	993.432	29.6826
12.4409	1001.436	29.7021
12.4425	988.872	29.72168
12.4449	993.318	29.7412
12.4461	998.088	29.7607
12.4473	995.424	29.7803
12.4503	990.768	29.7998
12.4505	997.207	29.8193
12.4525	994.155	29.8389
12.4544	991.955	29.8584
12.4559	994.819	29.87793
12.4573	996.3786	29.8975
12.4587	989.9361	29.917
12.4606	993.784	29.9365
12.4622	998.197	29.9561
12.4641	989.304	29.9756
12.4653	990.008	29.9951
12.4672	998.489	30.0146
12.4693	993.2406	30.03418
12.4702	990.695	30.0537
12.4724	999.255	30.0732
12.4737	994.316	30.0928
12.4753	991.099	30.1123
12.4778	997.25	30.1318
12.4778	996.837	30.1514
12.4805	987.081	30.1709
12.4817	997.291	30.19043
12.4844	998.1026	30.21
12.4863	990.288	30.2295
12.4874	992.303	30.249
12.48904	1000.97	30.2686
12.491	987.834	30.2881
12.4916	993.361	30.3076
12.4933	996.426	30.3271
12.4951	991.832	30.34668
12.4957	991.611	30.3662
12.4984	1001.02	30.3857
12.4987	990.056	30.4053
12.5012	990.76	30.4248
12.503	996.223	30.4443
12.50494	995.409	30.4639
12.5065	989.017	30.4834
12.5083	995.898	30.50293
12.5105	993.933	30.5225
12.5116	990.332	30.542
12.5125	993.089	30.5615
12.514	997.422	30.5811
12.51631	990.208	30.6006
12.5178	991.762	30.6201
12.5194	997.315	30.6396
12.5208	991.034	30.65918
12.52259	989.806	30.6787
12.5238	996.676	30.6982
12.5258	995.202	30.7178
12.5266	987.386	30.7373
12.5281	996.591	30.7568
12.5307	992.668	30.7764
12.5327	989.113	30.7959
12.5339	994.472	30.81543
12.53549	998.597	30.835
12.5361	984.122	30.8545
12.5384	993.526	30.874
12.5401	997.861	30.8936
12.5423	990.8631	30.9131
12.5439	990.03	30.9326
12.5461	998.271	30.9521
12.5456	987.715	30.97168
12.5486	992.097	30.9912
12.5506	996.794	31.0107
12.5524	992.808	31.0303
12.5541	990.074	31.0498
12.55583	997.353	31.0693
12.5559	992.947	31.0889
12.5582	990.657	31.1084
12.5593	994.263	31.12793
12.561	997.683	31.1475
12.56329	989.687	31.167
12.5646	993.375	31.1865
12.5665	994.11	31.2061
12.5686	989.7774	31.2256
12.5701	991.128	31.2451
12.5704	995.66	31.2646
12.5725	991.019	31.28418
12.5736	986.614	31.3037
12.577	996.978	31.3232
12.5774	993.141	31.3428
12.5794	987.425	31.3623
12.581	994.557	31.3818
12.5828	996.657	31.4014
12.58467	986.336	31.4209
12.5845	996.19	31.44043
12.5879	994.401	31.46
12.5887	987.876	31.4795
12.5912	991.967	31.499
12.59251	1000.23	31.5186
12.5942	986.214	31.5381
12.5965	990.173	31.5576
12.597	997.199	31.5771
12.5988	992.241	31.59668
12.5997	988.251	31.6162
12.6019	997.0304	31.6357
12.6042	988.216	31.6553
12.6051	988.839	31.6748
12.6065	995.197	31.6943
12.6088	994.159	31.7139
12.61	988.094	31.7334
12.6111	994.3761	31.75293
12.6139	994.275	31.7725
12.6153	989.463	31.792
12.6168	990.557	31.8115
12.6183	995.995	31.8311
12.61933	990.529	31.8506
12.6222	991.94	31.8701
12.6239	995.434	31.8896
12.6246	990.604	31.90918
12.626	989.041	31.9287
12.6273	996.094	31.9482
12.6295	992.667	31.9678
12.6318	985.773	31.9873
12.6338	993.272	32.0068
12.6348	994.315	32.0264
12.6365	987.3728	32.0459
12.6388	992.488	32.06543
[...]
13.027	982.253	36.7334
13.02871	992.15	36.75293
13.0301	991.019	36.7725
13.032	984.235	36.792
13.0335	987.558	36.8115
13.0343	993.874	36.8311
13.0374	984.731	36.8506
13.0388	986.8	36.8701
13.0402	990.342	36.8896
13.0414	988.9198	36.90918
13.04378	983.886	36.9287
13.04527	993.8042	36.9482
13.0469	987.157	36.9678
13.0486	987.1	36.9873
13.05	991.412	37.0068
13.0515	993.126	37.0264
13.0528	981.796	37.0459
13.0551	990.98	37.06543
13.0553	993.817	37.085
13.0583	984.579	37.1045
13.0592	986.464	37.124
13.0612	994.578	37.1436
13.0627	985.008	37.1631
13.0642	987.808	37.1826
13.0656	994.9765	37.2021
13.0676	986.723	37.22168
13.0685	981.861	37.2412
13.071	994.086	37.2607
13.0723	988.437	37.2803
13.0737	982.091	37.2998
13.0756	993.287	37.3193
13.0773	988.64	37.3389
13.0793	984.051	37.3584
13.0809	988.437	37.37793
13.0829	991.316	37.3975
13.085	983.061	37.417
13.0853	989.835	37.4365
13.08693	989.977	37.4561
13.0886	984.856	37.4756
13.0893	984.231	37.4951
13.0916	994.403	37.5146
13.0943	986.6391	37.53418
13.0954	986.234	37.5537
13.0972	989.116	37.5732
13.0985	990.273	37.5928
13.1001	981.657	37.6123
13.1013	992.482	37.6318
13.10348	990.891	37.6514
13.1057	985.321	37.6709
13.1061	987.904	37.69043
13.1074	992.679	37.71
13.11	982.457	37.7295
13.1113	988.91	37.749
13.1143	993.538	37.7686
13.1152	987.061	37.7881
13.117	984.192	37.8076
13.1186	992.278	37.8271
13.1195	985.119	37.84668
13.1214	985.34	37.8662
13.1232	994.11	37.8857
13.1243	987.306	37.9053
13.1264	981.583	37.9248
13.1282	991.108	37.9443
13.12949	989.359	37.9639
13.131	982.028	37.9834
13.1329	989.327	38.00293
13.1345	990.1665	38.0225
13.1361	984.101	38.042
13.1382	986.802	38.0615
13.14	990.713	38.0811
13.1413	983.191	38.1006
13.1429	987.524	38.1201
13.1439	991.969	38.1396
13.1457	987.487	38.15918
13.1479	982.926	38.1787
13.1493	992.499	38.1982
13.1506	988.209	38.2178
13.1523	984.762	38.2373
13.1535	988.771	38.2568
13.1555	990.24	38.2764
13.1572	981.389	38.2959
13.1583	991.319	38.31543
13.1611	990.397	38.335
13.1618	982.288	38.3545
13.164	984.478	38.374
13.1664	995.317	38.3936
13.1666	983.699	38.4131
13.1693	986.393	38.4326
13.1714	992.615	38.4521
13.1725	985.431	38.47168
13.1731	982.749	38.4912
13.1742	991.997	38.5107
13.1756	984.704	38.5303
13.1775	982.364	38.5498
13.17937	991.976	38.5693
13.1813	990.358	38.5889
13.1835	979.388	38.6084
13.1843	989.132	38.62793
13.1872	991.924	38.6475
13.188	983.082	38.667
13.1889	988.736	38.6865
13.1909	989.326	38.7061
13.1931	982.594	38.7256
13.19461	986.632	38.7451
13.1958	993.699	38.7646
13.1975	984.2196	38.78418
13.1984	985.636	38.8037
13.2017	989.737	38.8232
13.2023	988.9342	38.8428
13.2047	981.757	38.8623
13.20654	989.992	38.8818
13.20682	989.7052	38.9014
13.2092	984.682	38.9209
13.2099	986.985	38.94043
13.213	991.517	38.96
13.2142	980.946	38.9795
13.2151	989.616	38.999
13.217	993.99	39.0186
13.2181	984.654	39.0381
13.2204	981.669	39.0576
13.2226	994.138	39.0771
13.2239	985.503	39.09668
13.2248	984.426	39.1162
13.2269	991.791	39.1357
13.22882	987.029	39.1553
13.2303	980.8269	39.1748
13.2322	992.33	39.1943
13.2336	987.443	39.2139
13.2358	981.195	39.2334
13.2372	990.729	39.25293
13.2382	990.22	39.2725
13.2409	981.56	39.292
13.2427	985.726	39.3115
13.2441	991.615	39.3311
13.2457	983.073	39.3506
13.2468	986.586	39.3701
13.249	989.16	39.3896
13.25	985.603	39.40918
13.2515	983.315	39.4287
13.2532	992.363	39.4482
13.2547	987.991	39.4678
13.257	983.914	39.4873
13.2583	988.289	39.5068
13.2607	991.377	39.5264
13.2612	980.368	39.5459
13.2628	988.297	39.56543
13.2638	988.919	39.585
13.2671	984.16	39.6045
13.2672	984.352	39.624
13.2688	992.124	39.6436
13.2706	981.084	39.6631
13.273	983.497	39.6826
13.27397	993.798	39.7021
13.2758	985.537	39.72168
13.2776	980.553	39.7412
13.2797	991.7146	39.7607
13.2808	985.563	39.7803
13.2823	984.0882	39.7998
13.2839	989.693	39.8193
13.2853	986.884	39.8389
13.2875	978.843	39.8584
13.28817	990.088	39.87793
13.2915	988.389	39.8975
13.2923	979.794	39.917
13.2939	985.429	39.9365
13.29643	989.602	39.9561
13.2968	981.828	39.9756
13.2993	984.2038	39.9951
13.3	990.392	40.0146
13.3011	986.9	40.0244

Data Header:			0.254_solid_dimension_typei_090_r0			Time:	46.2981	s	4/15/2019 2:15:22 PM
Data Acquisition:	Timed
Station Name:	ft40.cfg
Test File Name:	monotonic_0.2540_typei_solid_090_dimension.tst
Displacement	Force	Running Time
mm	N	s
13.3017	983.55	40.03418
13.3027	983.056	40.0439
13.3035	985.075	40.0537
13.3043	984.936	40.0635
13.3053	989.782	40.0732
13.3068	990.427	40.083
13.307	986.176	40.0928
13.307	983.3183	40.1025
13.3093	979.49	40.1123
13.3098	987.733	40.12207
13.3103	990.9267	40.1318
13.3109	987.712	40.1416
13.3122	988.752	40.1514
13.3124	984.2796	40.1611
13.3133	982.786	40.1709
13.3148	983.741	40.1807
13.3153	984.697	40.19043
13.3169	991.417	40.2002
13.3169	991.385	40.21
13.3173	986.247	40.2197
13.3179	982.5694	40.2295
13.3191	980.366	40.2393
13.3199	988.76	40.249
13.3207	989.226	40.2588
13.3214	992.059	40.2686
13.3221	988.098	40.27832
13.3226	983.962	40.2881
13.3242	981.344	40.2979
13.3244	982.222	40.3076
13.325	987.218	40.3174
13.3277	993.655	40.3271
13.3273	991.565	40.3369
13.3288	982.2937	40.34668
13.3289	980.41	40.3564
13.32917	982.89	40.3662
13.3303	986.6	40.376
13.33046	991.776	40.3857
13.3322	988.809	40.3955
13.3328	987.395	40.4053
13.3353	982.388	40.415
13.3342	977.169	40.4248
13.3363	983.795	40.43457
13.3358	989.612	40.4443
13.3373	994.149	40.4541
13.3376	986.376	40.4639
13.3384	980.419	40.4736
13.3386	981.2171	40.4834
13.3406	983.8772	40.4932
13.3413	989.218	40.50293
13.3421	989.561	40.5127
13.3427	987.874	40.5225
13.3427	985.867	40.5322
13.3442	979.033	40.542
13.3459	981.918	40.5518
13.3461	987.228	40.5615
13.347	990.813	40.5713
13.3475	990.316	40.5811
13.34845	983.701	40.59082
13.3488	980.7016	40.6006
13.3491	982.129	40.6104
13.3516	983.705	40.6201
13.3508	988.11	40.6299
13.3529	990.495	40.6396
13.3532	988.099	40.6494
13.3544	983.536	40.65918
13.3549	979.949	40.6689
13.3552	981.916	40.6787
13.3562	988.348	40.6885
13.35733	989.907	40.6982
13.3585	988.896	40.708
13.3589	983.942	40.7178
13.3603	982.955	40.7275
13.36101	983.828	40.7373
13.3609	982.672	40.74707
13.3622	987.764	40.7568
13.36382	989.821	40.7666
13.3642	987.8042	40.7764
13.3637	985.125	40.7861
13.367	979.502	40.7959
13.3665	983.794	40.8057
13.3676	988.025	40.81543
13.3684	986.541	40.8252
13.3685	988.939	40.835
13.3691	984.924	40.8447
13.3698	982.8421	40.8545
13.372	981.138	40.8643
13.3714	980.914	40.874
13.3727	989.486	40.8838
13.3735	990.596	40.8936
13.3752	987.474	40.90332
13.3755	980.937	40.9131
13.3752	980.976	40.9229
13.3762	983.962	40.9326
13.3779	986.695	40.9424
13.3794	990.44	40.9521
13.3797	986.709	40.9619
13.3805	984.602	40.97168
13.3807	981.161	40.9814
13.382	978.135	40.9912
13.3828	984.681	41.001
13.384	991.271	41.0107
13.3837	988.137	41.0205
13.38458	984.782	41.0303
13.3848	978.859	41.04
13.3856	980.829	41.0498
13.3869	984.458	41.05957
13.3882	988.547	41.0693
13.3901	988.911	41.0791
13.3896	988.95	41.0889
13.3908	981.029	41.0986
13.3914	978.858	41.1084
13.39277	980.099	41.1182
13.3923	987.191	41.12793
13.39431	992.3797	41.1377
13.3947	986.264	41.1475
13.3952	981.4093	41.1572
13.3962	979.719	41.167
13.3965	981.982	41.1768
13.3982	986.052	41.1865
13.3981	986.993	41.1963
13.3999	988.7	41.2061
13.401	985.924	41.21582
13.4025	979.427	41.2256
13.4018	980.488	41.2354
13.4029	982.1485	41.2451
13.4043	988.546	41.2549
13.4041	989.468	41.2646
13.4053	984.762	41.2744
13.4065	982.434	41.28418
13.4063	981.305	41.2939
13.408	982.346	41.3037
13.4085	985.904	41.3135
13.4086	986.775	41.3232
13.41045	989.946	41.333
13.4113	984.779	41.3428
13.4123	980.663	41.3525
13.4125	981.882	41.3623
13.4135	984.785	41.37207
13.4149	988.49	41.3818
13.4159	986.378	41.3916
13.41619	983.997	41.4014
13.41644	982.6319	41.4111
13.4175	978.7887	41.4209
13.4193	982.257	41.4307
13.4194	983.565	41.44043
13.4192	987.049	41.4502
13.4211	991.139	41.46
13.4211	982.2818	41.4697
13.4221	978.27	41.4795
13.42392	980.726	41.4893
13.4236	983.967	41.499
13.4247	985.693	41.5088
13.4262	988.8728	41.5186
13.4261	984.2345	41.52832
13.42693	983.029	41.5381
13.42799	977.932	41.5479
13.429	979.141	41.5576
13.4303	985.6604	41.5674
13.4301	990.4823	41.5771
13.4317	988.368	41.5869
13.4322	980.565	41.59668
13.4331	977.871	41.6064
13.4336	980.511	41.6162
13.4346	982.6	41.626
13.4362	988.888	41.6357
13.4358	988.106	41.6455
13.4376	984.714	41.6553
13.4386	979.277	41.665
13.438	976.069	41.6748
13.4394	980.258	41.68457
13.4407	988.717	41.6943
13.4418	989.089	41.7041
13.4426	985.276	41.7139
13.4419	978.454	41.7236
13.4444	978.462	41.7334
13.44388	981.207	41.7432
13.445	984.949	41.75293
13.4462	987.677	41.7627
13.4471	987.257	41.7725
13.44803	981.495	41.7822
13.4484	978.298	41.792
13.4482	977.2146	41.8018
13.4496	985.381	41.8115
13.4503	988.359	41.8213
13.452	987.828	41.8311
13.4531	982.366	41.84082
13.4521	978.534	41.8506
13.4543	980.244	41.8604
13.4563	983.644	41.8701
13.4552	983.966	41.8799
13.4568	988.6153	41.8896
13.4568	985.1203	41.8994
13.4593	979.964	41.90918
13.459	978.822	41.9189
13.4591	978.5567	41.9287
13.4601	987.818	41.9385
13.4614	987.86	41.9482
13.4631	983.25	41.958
13.4627	981.504	41.9678
13.4639	979.893	41.9775
13.4641	981.576	41.9873
13.4662	980.57	41.99707
13.4656	983.42	42.0068
13.4667	989.529	42.0166
13.4685	984.374	42.0264
13.4687	981.546	42.0361
13.4693	979.3399	42.0459
13.4708	980.578	42.0557
13.4717	985.175	42.06543
13.4726	984.29	42.0752
13.4721	984.436	42.085
13.4741	984.036	42.0947
13.4746	979.69	42.1045
13.4755	979.186	42.1143
13.4767	979.779	42.124
13.4768	985.411	42.1338
13.47865	989.761	42.1436
13.4791	983.229	42.15332
13.4799	978.6969	42.1631
13.4803	979.942	42.1729
13.4811	980.641	42.1826
13.4813	983.735	42.1924
13.4822	986.371	42.2021
13.48314	985.622	42.2119
13.484	981.724	42.22168
13.4857	977.821	42.2314
13.4853	976.0224	42.2412
13.487	981.083	42.251
13.4872	988.5946	42.2607
13.4886	987.519	42.2705
13.4901	980.264	42.2803
13.4899	978.486	42.29
13.491	979.599	42.2998
13.492	979.166	42.30957
13.4928	986.907	42.3193
13.49343	985.791	42.3291
13.4943	987.147	42.3389
13.4953	979	42.3486
13.4948	974.349	42.3584
13.4974	978.352	42.3682
13.4965	984.25	42.37793
13.4968	989.342	42.3877
13.4986	985.197	42.3975
13.4997	977.525	42.4072
13.49937	979.319	42.417
13.5015	976.777	42.4268
13.5023	982.078	42.4365
13.5026	984.679	42.4463
13.5038	987.872	42.4561
13.5043	982.774	42.46582
13.5049	976.273	42.4756
13.5061	975.563	42.4854
13.507	982.011	42.4951
13.507	984.965	42.5049
13.5084	986.14	42.5146
13.5088	983.434	42.5244
13.5101	978.761	42.53418
13.5124	977.846	42.5439
13.5122	978.558	42.5537
13.5141	979.567	42.5635
13.5133	985.348	42.5732
13.5148	986.237	42.583
13.5158	979.882	42.5928
13.51607	978.199	42.6025
13.5157	976.254	42.6123
13.51765	982.622	42.62207
13.51885	983.6665	42.6318
13.5187	982.167	42.6416
13.52	982.375	42.6514
13.5199	979.214	42.6611
13.5222	978.037	42.6709
13.5227	976.563	42.6807
13.5224	981.891	42.69043
13.5252	986.3974	42.7002
13.5247	983.065	42.71
13.5262	981.214	42.7197
13.5264	973.826	42.7295
13.5274	976.2998	42.7393
13.5289	980.717	42.749
13.5279	981.331	42.7588
13.5293	984.337	42.7686
13.53	981.547	42.77832
13.5314	978.409	42.7881
13.5319	973.688	42.7979
13.534	975.067	42.8076
13.5339	983.2879	42.8174
13.5355	986.215	42.8271
13.536	982.156	42.8369
13.5358	976.769	42.84668
13.5369	976.047	42.8564
13.537	977.809	42.8662
13.5385	979.74	42.876
13.5403	982.853	42.8857
13.5412	984.216	42.8955
13.5409	981.228	42.9053
13.5418	975.051	42.915
13.5428	971.253	42.9248
13.5434	977.297	42.93457
13.5443	985.009	42.9443
13.5455	985.025	42.9541
13.547	979.991	42.9639
13.5465	975.951	42.9736
13.548	973.271	42.9834
13.5487	975.963	42.9932
13.5492	980.688	43.00293
13.55	983.071	43.0127
13.5508	985.313	43.0225
13.5519	977.6145	43.0322
13.553	970.7135	43.042
13.5528	974.524	43.0518
13.5554	979.997	43.0615
13.5544	983.671	43.0713
13.55677	982.245	43.0811
13.557	976.48	43.09082
13.5568	976.03	43.1006
13.5577	972.947	43.1104
13.5583	976.583	43.1201
13.56	980.261	43.1299
13.5614	983.471	43.1396
13.5616	980.895	43.1494
13.5622	971.408	43.15918
13.5631	972.734	43.1689
13.5643	974.007	43.1787
13.5645	978.335	43.1885
13.5659	981.097	43.1982
13.5662	977.543	43.208
13.5675	974.794	43.2178
13.5682	973.245	43.2275
13.569	972.307	43.2373
13.5687	973.821	43.24707
13.5714	977.711	43.2568
13.5723	981.157	43.2666
13.5727	975.9812	43.2764
13.57337	971.273	43.2861
13.57465	970.938	43.2959
13.5744	972.791	43.3057
13.5759	975.535	43.31543
13.576	974.626	43.3252
13.5772	975.428	43.335
13.5781	972.858	43.3447
13.5786	969.71	43.3545
13.579	965.139	43.3643
13.5806	971.702	43.374
13.5815	975.181	43.3838
13.58069	975.102	43.3936
13.58294	974.222	43.40332
13.5841	964.449	43.4131
13.5837	966.877	43.4229
13.5853	969.974	43.4326
13.5852	968.463	43.4424
13.5869	973.498	43.4521
13.5868	971.6839	43.4619
13.5889	968.759	43.47168
13.5896	961.804	43.4814
13.5894	960.847	43.4912
13.5908	965.7699	43.501
13.5916	969.591	43.5107
13.592	967.718	43.5205
13.5927	961.165	43.5303
13.5942	952.128	43.54
13.6032	-45.9072	43.5498
13.6014	-86.37252	43.55957
13.601	-21.393	43.5693
13.6012	-40.8291	43.5791
13.601	-32.2057	43.5889
13.6003	-49.3439	43.5986
13.6011	-51.8664	43.6084
13.60149	-43.4064	43.6182
13.6026	-37.5446	43.62793
13.603	-35.2943	43.6377
13.6035	-39.7297	43.6475
13.6058	-43.1511	43.6572
13.6047	-44.9584	43.667
13.6069	-44.4623	43.6768
13.6076	-39.735	43.6865
13.6082	-37.3283	43.6963
13.6094	-36.5931	43.7061
13.61	-42.2955	43.71582
13.6102	-46.32579	43.7256
13.6116	-46.2688	43.7354
13.6116	-40.8326	43.7451
13.6129	-37.0921	43.7549
13.6138	-37.9267	43.7646
13.6154	-39.4819	43.7744
13.6159	-43.6371	43.78418
13.6154	-44.3266	43.7939
13.6181	-42.5578	43.8037
13.6177	-41.1816	43.8135
13.6193	-36.0889	43.8232
13.6193	-37.4051	43.833
13.6205	-43.6054	43.8428
13.6202	-46.8182	43.8525
13.6213	-46.584	43.8623
13.6219	-42.2627	43.87207
13.62423	-37.90847	43.8818
13.6245	-40.9704	43.8916
13.6249	-39.2216	43.9014
13.6266	-42.9021	43.9111
13.6268	-45.0317	43.9209
13.6273	-46.2806	43.9307
13.6284	-40.334	43.94043
13.6287	-34.6268	43.9502
13.6303	-39.5147	43.96
13.6306	-42.7794	43.9697
13.6312	-43.9934	43.9795
13.6325	-44.2013	43.9893
13.6333	-41.6918	43.999
13.6352	-38.6034	44.0088
13.63521	-39.1899	44.0186
13.6348	-37.57935	44.02832
13.6359	-44.1384	44.0381
13.6372	-47.8469	44.0479
13.6381	-43.6064	44.0576
13.6387	-39.1838	44.0674
13.6397	-34.452	44.0771
13.6407	-38.681	44.0869
13.6412	-43.5806	44.09668
13.6413	-43.5287	44.1064
13.6435	-45.5207	44.1162
13.6439	-41.7291	44.126
13.6447	-36.8459	44.1357
13.6454	-37.6426	44.1455
13.6458	-37.5767	44.1553
13.6468	-46.31443	44.165
13.6469	-48.195	44.1748
13.6486	-40.577	44.18457
13.6493	-37.1615	44.1943
13.6503	-34.3593	44.2041
13.6508	-40.3718	44.2139
13.6516	-44.4802	44.2236
13.6515	-46.3128	44.2334
13.6528	-47.2088	44.2432
13.6529	-37.2767	44.25293
13.65513	-35.4801	44.2627
13.6544	-35.8925	44.2725
13.6557	-41.212	44.2822
13.6567	-49.5428	44.292
13.6576	-45.5741	44.3018
13.6587	-39.6159	44.3115
13.6598	-36.5957	44.3213
13.6609	-35.8832	44.3311
13.6613	-42.7385	44.34082
13.6608	-44.0479	44.3506
13.6632	-45.7772	44.3604
13.6642	-43.4366	44.3701
13.6647	-38.3262	44.3799
13.6656	-35.0417	44.3896
13.66668	-37.5388	44.3994
13.667	-45.0812	44.40918
13.6671	-47.98912	44.4189
13.6678	-43.1198	44.4287
13.6689	-38.2322	44.4385
13.6703	-37.8662	44.4482
13.6704	-37.6372	44.458
13.67215	-40.8293	44.4678
13.672	-44.2054	44.4775
13.67293	-45.5856	44.4873
13.6747	-44.276	44.49707
13.6751	-37.3517	44.5068
13.67627	-35.3564	44.5166
13.67579	-41.3153	44.5264
13.6765	-43.7215	44.5361
13.6783	-47.0441	44.5459
13.6792	-43.57	44.5557
13.6798	-40.5517	44.56543
13.6799	-40.3077	44.5752
13.6811	-36.4217	44.585
13.6823	-40.9257	44.5947
13.6832	-43.902	44.6045
13.6837	-46.821	44.6143
13.6846	-42.6696	44.624
13.6856	-34.6053	44.6338
13.6863	-37.1977	44.6436
13.68714	-41.7551	44.65332
13.6885	-45.4742	44.6631
13.6891	-45.863	44.6729
13.6892	-41.5457	44.6826
13.6904	-42.3338	44.6924
13.6908	-37.0666	44.7021
13.6922	-36.9641	44.7119
13.6931	-44.77322	44.72168
13.69378	-46.8141	44.7314
13.69478	-47.4686	44.7412
13.6959	-41.0021	44.751
13.696	-34.9886	44.7607
13.6972	-36.7937	44.7705
13.6974	-40.3341	44.7803
13.6984	-45.3096	44.79
13.6991	-47.8924	44.7998
13.7001	-42.7245	44.80957
13.7019	-38.8519	44.8193
13.7032	-35.0769	44.8291
13.703	-38.3098	44.8389
13.7039	-45.1752	44.8486
13.7039	-48.5208	44.8584
13.70493	-44.247	44.8682
13.7058	-37.3754	44.87793
13.7076	-35.7709	44.8877
13.7072	-40.608	44.8975
13.708	-42.7471	44.9072
13.7088	-45.6069	44.917
13.7092	-47.5847	44.9268
13.711	-39.6468	44.9365
13.71144	-37.4333	44.9463
13.7117	-34.931	44.9561
13.71361	-38.6308	44.96582
13.7143	-48.3288	44.9756
13.7146	-46.73497	44.9854
13.7166	-41.7608	44.9951
13.7167	-36.1165	45.0049
13.71763	-37.43824	45.0146
13.718	-40.51347	45.0244
13.719	-41.7486	45.03418
13.7194	-45.39576	45.0439
13.7204	-45.9769	45.0537
13.7211	-39.7502	45.0635
13.7219	-37.8898	45.0732
13.7237	-34.8213	45.083
13.724	-43.6114	45.0928
13.7248	-46.67355	45.1025
13.726	-43.789	45.1123
13.7258	-40.7082	45.12207
13.727	-39.92868	45.1318
13.7267	-38.6309	45.1416
13.7282	-40.4146	45.1514
13.72866	-43.6053	45.1611
13.7309	-48.0025	45.1709
13.7307	-45.4486	45.1807
13.732	-39.0603	45.19043
13.73295	-37.251	45.2002
13.73339	-38.6995	45.21
13.7341	-42.2384	45.2197
13.7352	-46.9271	45.2295
13.7368	-42.839	45.2393
13.7367	-42.96373	45.249
13.7377	-40.359	45.2588
13.7378	-36.4466	45.2686
13.7399	-39.1761	45.27832
13.74	-42.92691	45.2881
13.7419	-47.3801	45.2979
13.7415	-45.3999	45.3076
13.742	-38.48056	45.3174
13.7432	-38.2187	45.3271
13.7446	-36.7664	45.3369
13.7453	-44.1533	45.34668
13.7457	-45.6531	45.3564
13.7483	-44.4539	45.3662
13.74707	-43.4672	45.376
13.7484	-36.1501	45.3857
13.7498	-36.0955	45.3955
13.7498	-40.0274	45.4053
13.7493	-45.8983	45.415
13.7512	-49.584	45.4248
13.7536	-42.4343	45.43457
13.7532	-37.3395	45.4443
13.7539	-35.951	45.4541
13.7541	-40.4246	45.4639
13.7557	-44.71101	45.4736
13.757	-47.9225	45.4834
13.7576	-46.68483	45.4932
13.7578	-39.7788	45.50293
13.7592	-35.3963	45.5127
13.759	-37.3209	45.5225
13.7602	-43.1144	45.5322
13.7616	-47.8981	45.542
13.763	-47.2138	45.5518
13.7629	-38.5286	45.5615
13.7644	-35.8946	45.5713
13.7646	-39.6821	45.5811
13.7647	-39.9477	45.59082
13.7657	-44.6227	45.6006
13.7661	-47.4386	45.6104
13.76832	-43.8394	45.6201
13.769	-40.02565	45.6299
13.7699	-34.6741	45.6396
13.7692	-39.2561	45.6494
13.7713	-45.9317	45.65918
13.7708	-45.7985	45.6689
13.7726	-45.3426	45.6787
13.7732	-36.9764	45.6885
13.77447	-38.0245	45.6982
13.7753	-38.249	45.708
13.7756	-41.4859	45.7178
13.7771	-45.3793	45.7275
13.7774	-45.829	45.7373
13.7785	-43.2304	45.74707
13.7795	-38.44157	45.7568
13.7807	-35.21254	45.7666
13.7811	-42.0214	45.7764
13.7817	-44.4395	45.7861
13.783	-45.7587	45.7959
13.7831	-43.5905	45.8057
13.7838	-39.6712	45.81543
13.785	-39.0087	45.8252
13.7862	-40.3101	45.835
13.7863	-39.2707	45.8447
13.7872	-46.8227	45.8545
13.78738	-46.3525	45.8643
13.7894	-41.56879	45.874
13.7888	-37.343	45.8838
13.7906	-36.8602	45.8936
13.7901	-41.3461	45.90332
13.7928	-45.5164	45.9131
13.7924	-44.5919	45.9229
13.7939	-45.9209	45.9326
13.7945	-39.6478	45.9424
13.7949	-37.7287	45.9521
13.7959	-36.2991	45.9619
13.7969	-42.5115	45.97168
13.7971	-48.97979	45.9814
13.7988	-46.74955	45.9912
13.7996	-40.4852	46.001
13.7995	-37.518	46.0107
13.8011	-34.9794	46.0205
13.8019	-43.3264	46.0303
13.8019	-44.266	46.04
13.8023	-46.565	46.0498
13.8041	-45.513	46.05957
13.8048	-38.1978	46.0693
13.8057	-36.0403	46.0791
13.8063	-36.4988	46.0889
13.8069	-46.02911	46.0986
13.8089	-49.3559	46.1084
13.8092	-43.7529	46.1182
13.8092	-38.6959	46.12793
13.8103	-35.4894	46.1377
13.8121	-38.8011	46.1475
13.8126	-43.6607	46.1572
13.8135	-45.5601	46.167
13.8142	-46.3861	46.1768
13.8151	-42.1947	46.1865
13.8165	-36.9949	46.1963
13.8163	-35.6244	46.2061
13.8191	-40.5533	46.21582
13.8192	-47.8871	46.2256
13.8188	-48.5832	46.2354
13.8201	-41.277	46.2451
13.8207	-38.6348	46.2549
13.8222	-38.5393	46.2646
13.8214	-39.0945	46.2744
13.8222	-42.9382	46.28418
13.8239	-47.4729	46.2939