File: data/processed_data_files/tensile/0.254_hd_dimension_typei_090_r(3).dat
MTS793|BTW|ENU|1|2|.|/|:|1|0|0|A

Data Header:			0.254_hd_dimension_typei_090_r0			Time:	20.01709	s	4/15/2019 3:36:12 PM
Data Acquisition:	Timed
Station Name:	ft40.cfg
Test File Name:	monotonic_0.2540_typei_hd_090_dimension.tst
Displacement	Force	Running Time
mm	N	s
9.98067	-227.72	0.0217285
9.980855	-225.322	0.0412598
9.98018	-224.491	0.060791
9.98199	-225.23	0.0803223
9.98307	-229.958	0.0998535
9.98423	-219.91	0.119385
9.98607	-221.533	0.138916
9.98786	-226.38	0.158447
9.98988	-222.938	0.177979
9.99049	-215.089	0.19751
9.99218	-227.666	0.217041
9.99538	-221.543	0.236572
9.9955	-215.676	0.256104
9.99808	-221.339	0.275635
9.99929	-225.3011	0.295166
10.0005	-215.18	0.314697
10.0021	-220.615	0.334229
10.0041	-221.249	0.35376
10.0064	-214.344	0.373291
10.0069	-217.482	0.392822
10.0085	-226.255	0.412354
10.0106	-213.671	0.431885
10.0128	-215.4384	0.451416
10.0136	-221.659	0.470947
10.0154	-214.163	0.490479
10.0167	-212.3967	0.51001
10.0176	-220.729	0.529541
10.0209	-214.009	0.549072
10.0217	-211.1416	0.568604
10.024	-217.951	0.588135
10.0249	-214.749	0.607666
10.0269	-209.927	0.627197
10.0287	-216.295	0.646729
10.0296	-215.676	0.66626
10.0313	-206.218	0.685791
10.0336	-210.063	0.705322
10.0343	-215.385	0.724854
10.0365	-210.685	0.744385
10.0378	-205.887	0.763916
10.0386	-213.445	0.783447
10.0418	-205.529	0.802979
10.0425	-204.969	0.82251
10.0442	-211.364	0.842041
10.0458	-210.556	0.861572
10.0491	-200.637	0.881104
10.0489	-210.571	0.900635
10.0501	-209.054	0.920166
10.0533	-199.144	0.939697
10.054	-204.609	0.959229
10.0558	-208.811	0.97876
10.0583	-199.888	0.998291
10.0589	-202.612	1.01782
10.0612	-205.34	1.03735
10.0625	-198.501	1.05688
10.06414	-199.845	1.076416
10.0657	-208.601	1.09595
10.0669	-197.481	1.11548
10.0681	-193.435	1.13501
10.0712	-203.518	1.154541
10.0715	-199.705	1.17407
10.07387	-194.872	1.1936
10.0753	-201.2939	1.21313
10.076	-197.376	1.232666
10.0791	-190.6897	1.2522
10.0811	-197.148	1.27173
10.0812	-196.734	1.29126
10.0838	-190.041	1.310791
10.0852	-191.233	1.33032
10.08731	-198.205	1.34985
10.0889	-187.489	1.36938
10.0899	-188.212	1.388916
10.092	-193.021	1.40845
10.0942	-192.204	1.42798
10.0953	-183.6335	1.44751
10.0961	-192.7708	1.467041
10.098	-186.507	1.48657
10.1007	-182.406	1.5061
10.1012	-188.374	1.52563
10.1027	-191.931	1.545166
10.1052	-177.049	1.5647
10.10584	-185.317	1.58423
10.1084	-188.307	1.60376
10.1101	-179.371	1.623291
10.1112	-181.8978	1.64282
10.1122	-189.135	1.66235
10.114	-177.559	1.68188
10.116	-178.557	1.701416
10.11897	-184.539	1.72095
10.1194	-175.612	1.74048
10.1206	-176.64	1.76001
10.1224	-184.256	1.779541
10.1239	-177.903	1.79907
10.1266	-170.902	1.8186
10.1273	-178.535	1.83813
10.1292	-176.996	1.857666
10.1321	-173.381	1.8772
10.1319	-174.175	1.89673
10.1334	-177.578	1.91626
10.1367	-167.592	1.935791
10.1373	-171.988	1.95532
10.1396	-175.39	1.97485
10.1409	-170.114	1.99438
10.1417	-166.0809	2.013916
10.1438	-174.549	2.03345
10.1447	-166.984	2.05298
10.1468	-162.954	2.07251
10.149	-169	2.092041
10.1488	-168.398	2.11157
10.1523	-160.675	2.1311
10.1541	-167.822	2.15063
10.1555	-164.577	2.170166
10.157	-157.304	2.1897
10.1582	-164.126	2.20923
10.1598	-166.791	2.22876
10.1623	-154.5666	2.248291
10.1637	-158.495	2.26782
10.165	-164.842	2.28735
10.1674	-154.532	2.30688
10.1684	-155.981	2.326416
10.16926	-161.408	2.34595
10.1713	-155.0658	2.36548
10.1735	-152.161	2.38501
10.1742	-158.828	2.404541
10.1767	-151.969	2.42407
10.1778	-150.905	2.4436
10.18012	-155.7094	2.46313
10.1812	-153.638	2.482666
10.1821	-144.017	2.5022
10.184	-150.6255	2.52173
10.1864	-150.594	2.54126
10.1881	-148.56	2.560791
10.1896	-145.178	2.58032
10.19049	-150.693	2.59985
10.193	-140.35	2.61938
10.1932	-142.975	2.638916
10.197	-148.142	2.65845
10.1974	-143.496	2.67798
10.1993	-135.18	2.69751
10.2009	-147.531	2.717041
10.2029	-141.409	2.73657
10.2043	-134.71	2.7561
10.206	-140.456	2.77563
10.2064	-143.815	2.795166
10.20881	-133.055	2.8147
10.2108	-139.575	2.83423
10.2118	-138.977	2.85376
10.2139	-129.129	2.873291
10.2156	-134.146	2.89282
10.216	-139.646	2.91235
10.2189	-126.809	2.93188
10.2198	-127.12	2.951416
10.2221	-136.043	2.97095
10.2234	-127.291	2.99048
10.2251	-125.726	3.01001
10.2275	-131.546	3.029541
10.22812	-125.985	3.04907
10.2308	-121.7077	3.0686
10.2312	-127.893	3.08813
10.2335	-124.853	3.107666
10.2353	-120.67	3.1272
10.2372	-121.809	3.14673
10.2386	-124.643	3.16626
10.2397	-115.743	3.185791
10.2416	-117.657	3.20532
10.2431	-122.822	3.22485
10.2451	-118.816	3.24438
10.2461	-112.43	3.263916
10.2474	-122.372	3.28345
10.2497	-112.896	3.30298
10.2518	-110.815	3.32251
10.2525	-117.823	3.342041
10.2552	-116.204	3.36157
10.2561	-106.027	3.3811
10.2575	-114.719	3.40063
10.2598	-113.876	3.420166
10.2604	-103.693	3.4397
10.2624	-110.35	3.45923
10.26366	-113.916	3.47876
10.2658	-103.03	3.498291
10.2679	-104.973	3.51782
10.2686	-109.248	3.53735
10.2711	-98.4627	3.55688
10.2714	-102.409	3.576416
10.2746	-110.112	3.59595
10.2754	-100.101	3.61548
10.2773	-96.0088	3.63501
10.2792	-104.502	3.654541
10.2799	-99.77916	3.67407
10.2822	-95.0038	3.6936
10.284	-99.1858	3.71313
10.2855	-98.2373	3.732666
10.2874	-89.7274	3.7522
10.2888	-97.4805	3.77173
10.291	-94.8819	3.79126
10.2914	-89.6717	3.810791
10.2936	-90.3004	3.83032
10.2955	-96.6011	3.84985
10.2962	-86.3098	3.86938
10.2992	-85.9223	3.888916
10.2996	-92.054	3.90845
10.3022	-89.0103	3.92798
10.3034	-81.3756	3.94751
10.30532	-90.5241	3.967041
10.3059	-83.8823	3.98657
10.30913	-78.9102	4.0061
10.31	-83.9807	4.02563
10.31237	-86.7362	4.045166
10.313	-73.9574	4.0647
10.3149	-80.3148	4.08423
10.31591	-82.6493	4.10376
10.3183	-73.8753	4.123291
10.3194	-77.9304	4.14282
10.3213	-82.2252	4.16235
10.323	-72.6855	4.18188
10.32451	-71.6803	4.201416
10.3258	-78.6714	4.22095
10.3279	-67.1953	4.24048
10.329	-68.9669	4.26001
10.3309	-75.7611	4.279541
10.3325	-71.9518	4.29907
10.3351	-61.9761	4.3186
10.336	-70.8432	4.33813
10.3375	-67.9966	4.357666
10.3388	-63.2621	4.3772
10.3408	-65.2132	4.39673
10.3436	-66.5858	4.41626
10.3433	-59.8144	4.435791
10.3456	-63.5826	4.45532
10.3473	-64.6268	4.47485
10.3489	-59.4734	4.49438
10.35	-56.05759	4.513916
10.3525	-63.4397	4.53345
10.3549	-56.1562	4.55298
10.3557	-52.0712	4.57251
10.3564	-59.31937	4.592041
10.3595	-59.078	4.61157
10.3607	-47.6744	4.6311
10.36247	-56.5745	4.65063
10.3643	-54.4611	4.670166
10.3645	-44.2954	4.6897
10.3667	-51.6815	4.70923
10.3695	-54.8825	4.72876
10.3701	-42.7239	4.748291
10.3726	-45.4404	4.76782
10.37394	-50.52401	4.78735
10.3749	-41.393	4.80688
10.37733	-42.6627	4.826416
10.3783	-48.46175	4.84595
10.3799	-41.9152	4.86548
10.3816	-37.9147	4.88501
10.3829	-44.8142	4.904541
10.3847	-36.937	4.92407
10.387	-36.63047	4.9436
10.387	-39.19548	4.96313
10.3895	-39.1748	4.982666
10.3909	-28.77137	5.0022
10.3926	-34.6709	5.02173
10.3947	-36.1608	5.04126
10.3959	-34.11713	5.060791
10.3973	-28.8087	5.08032
10.3998	-36.0842	5.09985
10.4017	-26.0876	5.11938
10.4026	-26.8225	5.138916
10.4047	-32.0115	5.15845
10.407	-26.3697	5.17798
10.408	-21.107	5.19751
10.4091	-29.5609	5.217041
10.4095	-25.2339	5.23657
10.4124	-17.1951	5.2561
10.4133	-24.48436	5.27563
10.41575	-24.7058	5.295166
10.4172	-15.8609	5.3147
10.4183	-20.92823	5.33423
10.4212	-22.0423	5.35376
10.4228	-10.6341	5.373291
10.4235	-17.1831	5.39282
10.4254	-22.2718	5.41235
10.427	-10.4029	5.43188
10.4289	-10.9003	5.451416
10.431	-18.0369	5.47095
10.4324	-10.9866	5.49048
10.4333	-8.69641	5.51001
10.4364	-12.6288	5.529541
10.4374	-11.8239	5.54907
10.438	-3.29062	5.5686
10.4402	-9.61562	5.58813
10.4423	-7.37901	5.607666
10.4443	-1.81862	5.6272
10.4456	-5.12645	5.64673
10.4465	-8.04351	5.66626
10.449	5.24616	5.685791
10.451	0.948465	5.70532
10.4513	-3.81538	5.72485
10.4525	-1.25936	5.74438
10.4553	5.94723	5.763916
10.4563	-1.79375	5.78345
10.4577	7.36496	5.80298
10.4602	8.4281	5.82251
10.462	2.27996	5.842041
10.463	4.94604	5.86157
10.4637	13.9096	5.8811
10.4665	5.66408	5.90063
10.4682	6.07407	5.920166
10.4689	16.924	5.9397
10.4713	10.8409	5.95923
10.4732	6.58054	5.97876
10.4738	17.4578	5.998291
10.4755	15.9118	6.01782
10.4774	10.563	6.03735
10.4787	22.923	6.05688
10.48008	17.37347	6.076416
10.4825	13.8711	6.09595
10.4843	21.676	6.11548
10.4851	28.0404	6.13501
10.4872	18.12569	6.154541
10.4875	22.5768	6.17407
10.49	25.6177	6.1936
10.4924	24.6436	6.21313
10.4942	22.8691	6.232666
10.49579	32.6563	6.2522
10.4965	26.4265	6.27173
10.4987	26.3079	6.29126
10.5004	31.9214	6.310791
10.5027	33.5901	6.33032
10.5032	25.9111	6.34985
10.5054	36.915	6.36938
10.5069	37.6946	6.388916
10.5085	30.5354	6.40845
10.5103	33.02948	6.42798
10.5122	40.88747	6.44751
10.5144	33.9867	6.467041
10.5157	38.7389	6.48657
10.516	46.1051	6.5061
10.5174	36.6851	6.52563
10.5209	37.5084	6.545166
10.521	49.2773	6.5647
10.5222	43.8568	6.58423
10.5245	39.3876	6.60376
10.5265	50.8896	6.623291
10.5279	47.32457	6.64282
10.5308	44.7907	6.66235
10.531	50.4662	6.68188
10.5324	51.8175	6.701416
10.5354	44.4303	6.72095
10.5356	55.0037	6.74048
10.5383	54.94318	6.76001
10.53875	49.0365	6.779541
10.5413	53.9021	6.79907
10.5427	62.5826	6.8186
10.54426	54.1416	6.83813
10.5464	55.4511	6.857666
10.5472	57.67	6.8772
10.5487	60.4975	6.89673
10.5508	56.4302	6.91626
10.5532	66.49337	6.935791
10.554	62.6232	6.95532
10.5548	60.6652	6.97485
10.5571	65.9374	6.99438
10.5594	69.8221	7.013916
10.5597	59.5649	7.03345
10.561	67.8857	7.05298
10.5642	72.9018	7.07251
10.5653	64.2422	7.092041
10.56668	66.0792	7.11157
10.5682	75.3963	7.1311
10.5708	67.7652	7.15063
10.5714	71.31073	7.170166
10.574	80.7371	7.1897
10.5757	71.6055	7.20923
10.5772	71.5949	7.22876
10.579	80.3904	7.248291
10.5785	79.736	7.26782
10.582	73.8949	7.28735
10.583	83.1165	7.30688
10.5848	81.4464	7.326416
10.58629	77.7461	7.34595
10.5881	84.019	7.36548
10.59059	89.0158	7.38501
10.592	82.0842	7.404541
10.5931	88.4147	7.42407
10.5941	88.7351	7.4436
10.5959	86.1539	7.46313
10.5971	85.6823	7.482666
10.5985	96.7986	7.5022
10.6011	91.6923	7.52173
10.603	89.76062	7.54126
10.60565	92.1101	7.560791
10.6069	96.1698	7.58032
10.6083	89.9819	7.59985
10.6093	100.4411	7.61938
10.6115	101.488	7.638916
10.6127	92.15155	7.65845
10.6139	97.5702	7.67798
10.6159	105.512	7.69751
10.6178	96.0287	7.717041
10.6192	100.638	7.73657
10.6215	107.777	7.7561
10.62155	100.813	7.77563
10.6235	99.69091	7.795166
10.6256	109.898	7.8147
10.6278	104.955	7.83423
10.6291	104.031	7.85376
10.6302	116	7.873291
10.6318	108.642	7.89282
10.6335	104.918	7.91235
10.6351	114.453	7.93188
10.6375	117.845	7.951416
10.6381	109.585	7.97095
10.6403	117.379	7.99048
10.6429	117.477	8.01001
10.6428	113.783	8.029541
10.6452	117.505	8.04907
10.6471	123.305	8.0686
10.64784	116.548	8.08813
10.6495	119.799	8.107666
10.6527	125.596	8.1272
10.6529	123.588	8.14673
10.6553	118.202	8.16626
10.6571	130.282	8.185791
10.6582	128.43	8.20532
10.6591	123.209	8.22485
10.6614	127.067	8.24438
10.663	132.657	8.263916
10.6647	124.708	8.28345
10.6664	133.005	8.30298
10.6679	135.779	8.32251
10.6691	127.673	8.342041
10.6705	130.375	8.36157
10.6725	141.332	8.3811
10.6746	132.815	8.40063
10.6757	133.156	8.420166
10.67662	143.94	8.4397
10.67961	135.458	8.45923
10.6812	135.105	8.47876
10.6824	143.9528	8.498291
10.6843	143.617	8.51782
10.6861	138.348	8.53735
10.6879	149.187	8.55688
10.6889	144.866	8.576416
10.6906	140.201	8.59595
10.6924	148.091	8.61548
10.6945	152.626	8.63501
10.69559	145.221	8.654541
10.6971	149.559	8.67407
10.6981	150.669	8.6936
10.7014	149.824	8.71313
10.7021	151.415	8.732666
10.7029	158.531	8.7522
10.7055	151.359	8.77173
10.7069	151.547	8.79126
10.7084	158.659	8.810791
10.7111	158.911	8.83032
10.7108	150.998	8.84985
10.7121	162.315	8.86938
10.7157	163.575	8.888916
10.7167	157.237	8.90845
10.7185	162.11	8.92798
10.7198	167.4724	8.94751
10.72154	159.571	8.967041
10.72218	165.265	8.98657
10.72476	171.673	9.0061
10.7264	162.904	9.02563
10.7283	164.631	9.045166
10.7294	173.612	9.0647
10.73144	169.88	9.08423
10.733	165.683	9.10376
10.7354	177.407	9.123291
10.7363	170.506	9.14282
10.7383	171.154	9.16235
10.7394	177.67	9.18188
10.7408	178.975	9.201416
10.74304	171.912	9.22095
10.7434	181.3	9.24048
10.7465	181.792	9.26001
10.7471	175.263	9.279541
10.7489	179.061	9.29907
10.7515	187.081	9.3186
10.7522	181.7504	9.33813
10.7539	180.977	9.357666
10.7552	184.912	9.3772
10.7582	185.785	9.39673
10.759	182.179	9.41626
10.7615	193.193	9.435791
10.7623	189.402	9.45532
10.7633	185.749	9.47485
10.76561	191.556	9.49438
10.7675	195.396	9.513916
10.7686	187.291	9.53345
10.7702	194.4	9.55298
10.7712	201.156	9.57251
10.7747	192.906	9.592041
10.7749	194.311	9.61157
10.7772	200.012	9.6311
10.7785	195.121	9.65063
10.7798	196.91	9.670166
10.7821	208.965	9.6897
10.7834	198.202	9.70923
10.7853	195.512	9.72876
10.7867	207.097	9.748291
10.7889	206.526	9.76782
10.7899	200.078	9.78735
10.7908	210.501	9.80688
10.7939	208.211	9.826416
10.7947	205.657	9.84595
10.7968	210.061	9.86548
10.797	212.972	9.88501
10.7992	206.35	9.904541
10.8004	212.14	9.92407
10.802	215.667	9.9436
10.8029	212.177	9.96313
10.8055	210.5677	9.982666
10.8072	221.366	10.0022
10.8091	216.72	10.0217
10.8109	214.708	10.04126
10.8123	218.497	10.0608
10.8139	222.346	10.0803
10.816	217.481	10.0999
10.818	226.683	10.1194
10.8195	226.92	10.1389
10.8216	218.772	10.1584
10.8223	224.036	10.178
10.8238	232.0697	10.19751
10.8255	222.4668	10.217
10.8264	227.377	10.2366
10.8291	234.129	10.2561
10.83074	225.187	10.2756
10.8319	227.264	10.2952
10.8335	236.646	10.3147
10.8354	230.087	10.3342
10.8366	230.455	10.35376
10.8384	242.175	10.3733
10.8409	235.192	10.3928
10.84323	231.925	10.4124
10.8435	240.594	10.4319
10.845	243.941	10.4514
10.8481	234.864	10.4709
10.8484	243.724	10.4905
10.8499	241.2469	10.51001
10.8517	240.246	10.5295
10.85345	242.176	10.5491
10.8556	250.252	10.5686
10.8563	242.992	10.5881
10.8579	245.647	10.6077
10.8606	250.847	10.6272
10.8617	251.137	10.6467
10.8632	242.701	10.66626
10.8648	255.2287	10.6858
10.8674	252.317	10.7053
10.8681	248.672	10.7249
10.8699	252.672	10.7444
10.8712	258.048	10.7639
10.8727	249.802	10.7834
10.8751	258.889	10.803
10.8762	263.979	10.82251
10.8783	253.486	10.842
10.87918	255.678	10.8616
10.88104	266.446	10.8811
10.8832	258.406	10.9006
10.88385	259.986	10.9202
10.8858	269.25	10.9397
10.8875	259.93	10.9592
10.8888	261.232	10.97876
10.8913	269.795	10.9983
10.8925	266.18	11.0178
10.894	263.6297	11.0374
10.8973	275.3429	11.0569
10.89637	269.24	11.0764
10.8987	266.3298	11.0959
10.9006	271.703	11.1155
10.9027	278.03	11.13501
10.9041	270.095	11.1545
10.906	277.39	11.1741
10.9074	276.726	11.1936
10.908	275.798	11.2131
10.9094	274.803	11.2327
10.912	285.671	11.2522
10.9137	279.592	11.2717
10.915	277.671	11.29126
10.9173	282.173	11.3108
10.91874	285.691	11.3303
10.9202	277.689	11.3499
10.9221	286.867	11.3694
10.9236	288.402	11.3889
10.925	282.639	11.4084
10.92761	287.69	11.428
10.92781	292.279	11.44751
10.9293	285.92	11.467
10.9312	290.168	11.4866
10.9322	297.981	11.5061
10.9353	287.063	11.5256
10.9355	287.672	11.5452
10.938	300.1535	11.5647
10.9395	295.054	11.5842
10.9412	292.1868	11.60376
10.9433	303.192	11.6233
10.9435	296.919	11.6428
10.946	293.184	11.6624
10.9474	302.338	11.6819
10.9487	304.145	11.7014
10.9504	297.242	11.7209
10.9526	307.554	11.7405
10.9545	306.258	11.76001
10.9561	302.194	11.7795
10.9581	304.256	11.7991
10.9593	312.635	11.8186
10.9609	306.366	11.8381
10.9617	310.299	11.8577
10.9641	310.867	11.8772
10.9657	310.413	11.8967
10.9672	308.472	11.91626
10.969	318.725	11.9358
10.9707	315.527	11.9553
10.9717	308.467	11.9749
10.97274	315.8515	11.9944
10.976	322.271	12.0139
10.9766	312.324	12.0334
10.9779	319.109	12.053
10.9804	325.321	12.07251
10.9827	315.719	12.092
10.9832	318.518	12.1116
10.9847	328.963	12.1311
10.9874	319.261	12.1506
10.98869	321.674	12.1702
10.9897	333.108	12.1897
10.9915	323.93	12.2092
10.9929	322.113	12.22876
10.995	331.845	12.2483
10.9969	330.043	12.2678
10.99816	324.404	12.2874
10.9996	335.575	12.3069
11.0022	332.344	12.3264
11.0031	327.404	12.3459
11.0057	335.725	12.3655
11.0058	340.405	12.38501
11.0092	329.931	12.4045
11.0094	339.273	12.4241
11.011	339.75	12.4436
11.01322	337.739	12.4631
11.0134	335.122	12.4827
11.0167	347.5614	12.5022
11.018	340.993	12.5217
11.0191	340.27	12.54126
11.02	346.315	12.5608
11.0224	346.228	12.5803
11.0251	337.2851	12.5999
11.026	349.474	12.6194
11.0272	351.313	12.6389
11.0289	341.973	12.6584
11.0307	347.076	12.678
11.0329	357.133	12.69751
11.0344	346.976	12.717
11.0356	351.573	12.7366
11.0365	359.616	12.7561
11.0399	348.782	12.7756
11.0402	350.902	12.7952
11.042	360.719	12.8147
11.0438	357.392	12.8342
11.04528	352.033	12.85376
11.0479	366.719	12.8733
11.0479	358.214	12.8928
11.0506	353.295	12.9124
11.0518	363.407	12.9319
11.0542	365.643	12.9514
11.0552	358.007	12.9709
11.05721	368.102	12.9905
11.0591	366.616	13.01001
11.0597	363.462	13.0295
11.0608	364.509	13.0491
11.0628	375.573	13.0686
11.06553	364.499	13.0881
11.0664	366.921	13.1077
11.0682	373.401	13.1272
11.0707	371.191	13.1467
11.0721	366.749	13.16626
11.0745	380.1615	13.1858
11.075	375.506	13.2053
11.0765	371.26	13.2249
11.078	378.1889	13.2444
11.0787	381.264	13.2639
11.081	371.505	13.2834
11.0827	380.623	13.303
11.0843	385.543	13.32251
11.08607	375.261	13.342
11.0887	379.174	13.3616
11.0901	387.895	13.3811
11.0911	381.381	13.4006
11.0926	382.879	13.4202
11.09487	391.357	13.4397
11.0958	382.013	13.4592
11.0983	380.733	13.47876
11.0989	392.796	13.4983
11.10032	390.163	13.5178
11.1018	383.507	13.5374
11.1042	396.633	13.5569
11.10564	393.125	13.5764
11.1078	388.987	13.5959
11.10807	394.498	13.6155
11.1104	399.315	13.63501
11.11221	391.416	13.6545
11.1141	397.839	13.6741
11.1162	399.818	13.6936
11.1167	396.274	13.7131
11.1183	395.428	13.7327
11.1206	408.675	13.7522
11.1209	401.209	13.7717
11.1249	397.657	13.79126
11.1256	404.513	13.8108
11.1277	406.99	13.8303
11.12809	399.911	13.8499
11.1288	409.854	13.8694
11.1314	410.43	13.8889
11.1332	403.25	13.9084
11.1348	408	13.928
11.1361	416.053	13.94751
11.1383	405.407	13.967
11.1396	410.578	13.9866
11.1421	419.663	14.0061
11.143	410.144	14.0256
11.1453	409.262	14.0452
11.14554	421.186	14.0647
11.148	416.792	14.0842
11.1497	415.046	14.10376
11.1512	423.714	14.1233
11.1528	417.697	14.1428
11.1548	414.161	14.1624
11.1562	425.196	14.1819
11.1567	427.327	14.2014
11.1586	416.0419	14.2209
11.1607	425.656	14.2405
11.1629	426.083	14.26001
11.1642	422.721	14.2795
11.1655	424.689	14.2991
11.1665	433.7991	14.3186
11.1694	425.735	14.3381
11.17077	430.849	14.3577
11.1728	433.035	14.3772
11.173	431.371	14.3967
11.17483	426.156	14.41626
11.1776	438.396	14.4358
11.1791	436.583	14.4553
11.17985	428.554	14.4749
11.1816	435.945	14.4944
11.1833	442.85	14.5139
11.1849	433.318	14.5334
11.1869	441.025	14.553
11.1885	444.85	14.57251
11.19118	433.943	14.592
11.19104	438.704	14.6116
11.1929	449.701	14.6311
11.1954	439.258	14.6506
11.1972	440.127	14.6702
11.1983	452.105	14.6897
11.2	443.55	14.7092
11.2006	440.757	14.72876
11.2035	452.293	14.7483
11.20487	450.446	14.7678
11.2061	442.706	14.7874
11.2093	456.3714	14.8069
11.20986	450.718	14.8264
11.2107	446.494	14.8459
11.2124	454.311	14.8655
11.214	460.875	14.88501
11.2163	451.8327	14.9045
11.218	457.383	14.9241
11.2192	459.745	14.9436
11.2216	457.17	14.9631
11.2227	456.179	14.9827
11.2237	466.067	15.0022
11.2257	457.683	15.0217
11.2282	460.855	15.04126
11.2292	465.48	15.0608
11.2317	466.555	15.0803
11.2321	457.983	15.0999
11.2343	470.35	15.1194
11.2353	471.126	15.1389
11.2372	462.046	15.1584
11.2394	467.548	15.178
11.23981	475.385	15.19751
11.2423	465.841	15.217
11.2432	471.705	15.2366
11.2456	477.535	15.2561
11.2471	466.277	15.2756
11.2495	468.854	15.2952
11.25	481.073	15.3147
11.2521	475.258	15.3342
11.2537	470.723	15.35376
11.2552	484.935	15.3733
11.2568	479.1	15.3928
11.2579	475.7948	15.4124
11.2595	481.531	15.4319
11.2618	484.657	15.4514
11.2638	477.509	15.4709
11.2643	487.086	15.4905
11.26735	486.357	15.51001
11.2692	480.624	15.5295
11.2692	483.2	15.5491
11.2715	494.526	15.5686
11.273	485.093	15.5881
11.275	486.4259	15.6077
11.2772	491.141	15.6272
11.277	490.704	15.6467
11.2794	487.169	15.66626
11.2815	499.6012	15.6858
11.2838	493.727	15.7053
11.2838	489.166	15.7249
11.2869	497.246	15.7444
11.2883	501.171	15.7639
11.2891	490.2243	15.7834
11.2917	499.699	15.803
11.2933	503.254	15.82251
11.293	495.12	15.842
11.2959	498.0816	15.8616
11.2973	506.4718	15.8811
11.2997	499.547	15.9006
11.3018	500.104	15.9202
11.303	511.125	15.9397
11.3036	500.164	15.9592
11.3059	500.211	15.97876
11.3064	512.152	15.9983
11.3078	509.034	16.0178
11.31057	500.597	16.0374
11.3124	513.181	16.0569
11.3138	510.881	16.0764
11.3158	507.324	16.0959
11.31704	512.773	16.1155
11.3182	517.702	16.13501
11.3202	508.571	16.1545
11.3219	515.7738	16.1741
11.32365	517.353	16.1936
11.3249	514.235	16.2131
11.3261	512.936	16.2327
11.3293	525.366	16.2522
11.33027	518.756	16.2717
11.3316	517.056	16.29126
11.3322	522.939	16.3108
11.3348	523.643	16.3303
11.3368	517.166	16.3499
11.33679	528.458	16.3694
11.3404	528.576	16.3889
11.3418	518.447	16.4084
11.3424	525.752	16.428
11.3457	532.568	16.44751
11.3465	521.735	16.467
11.3484	528.719	16.4866
11.3495	536.601	16.5061
11.3515	527.902	16.5256
11.3536	527.3927	16.5452
11.3534	537.695	16.5647
11.35628	530.832	16.5842
11.3579	529.865	16.60376
11.3594	541.405	16.6233
11.3613	534.648	16.6428
11.3624	529.623	16.6624
11.3645	541.056	16.6819
11.3665	542.704	16.7014
11.3677	534.446	16.7209
11.3688	543.938	16.7405
11.3707	541.281	16.76001
11.3725	538.05	16.7795
11.3746	541.666	16.7991
11.3766	549.534	16.8186
11.3769	541.3103	16.8381
11.3783	545.115	16.8577
11.3806	549.838	16.8772
11.3819	546.56	16.8967
11.3836	542.145	16.91626
11.386	554.182	16.9358
11.3869	551.793	16.9553
11.3885	546.21	16.9749
11.39	552.232	16.9944
11.3937	557.347	17.0139
11.3938	548.379	17.0334
11.396	556.906	17.053
11.3962	560.823	17.07251
11.3985	548.593	17.092
11.4001	554.463	17.1116
11.4013	563.894	17.1311
11.4034	555.393	17.1506
11.4044	556.602	17.1702
11.4069	566.8017	17.1897
11.4076	559.5611	17.2092
11.4099	554.762	17.22876
11.4115	567.469	17.2483
11.41336	563.933	17.2678
11.4149	557.631	17.2874
11.4174	569.7204	17.3069
11.4177	566.583	17.3264
11.4188	560.848	17.3459
11.4211	568.248	17.3655
11.4236	575.848	17.38501
11.4244	565.774	17.4045
11.4255	571.8844	17.4241
11.42839	573.028	17.4436
11.429	570.5177	17.4631
11.4304	570.718	17.4827
11.4319	578.084	17.5022
11.4358	573.07	17.5217
11.4352	570.722	17.54126
11.438	577.996	17.5608
11.4399	580.7077	17.5803
11.4406	570.697	17.5999
11.4416	582.601	17.6194
11.4445	581.736	17.6389
11.4454	574.924	17.6584
11.44798	579.927	17.678
11.448	586.855	17.69751
11.4518	575.906	17.717
11.4531	583.659	17.7366
11.454	591.761	17.7561
11.4562	579.701	17.7756
11.4574	580.572	17.7952
11.459	593.525	17.8147
11.4595	588.2	17.8342
11.4626	583.1059	17.85376
11.4644	595.616	17.8733
11.4661	587.659	17.8928
11.467	585.333	17.9124
11.4677	594.954	17.9319
11.47	594.9447	17.9514
11.4717	587.208	17.9709
11.47363	599.843	17.9905
11.4748	597.736	18.01001
11.4756	590.909	18.0295
11.47806	595.369	18.0491
11.4801	604.6413	18.0686
11.4818	597.3468	18.0881
11.4821	597.733	18.1077
11.48495	602.895	18.1272
11.4863	600.74	18.1467
11.4886	595.4729	18.16626
11.4891	608.664	18.1858
11.4913	605.101	18.2053
11.4936	599.846	18.2249
11.4948	607.242	18.2444
11.4963	610.4632	18.2639
11.498	602.064	18.2834
11.4993	607.6778	18.303
11.5003	614.1214	18.32251
11.5021	603.404	18.342
11.505	608.271	18.3616
11.5051	618.962	18.3811
11.5073	608.475	18.4006
11.5094	611.254	18.4202
11.5114	620.17	18.4397
11.5118	611.698	18.4592
11.5144	609.254	18.47876
11.5149	621.751	18.4983
11.5182	619.646	18.5178
11.51885	610.583	18.5374
11.5211	624.127	18.5569
11.5226	620.741	18.5764
11.5242	616.661	18.5959
11.5259	623.372	18.6155
11.52653	626.755	18.63501
11.5285	617.531	18.6545
11.5305	625.996	18.6741
11.532	628.4743	18.6936
11.5328	623.174	18.7131
11.5342	623.563	18.7327
11.5362	632.8717	18.7522
11.5386	628.408	18.7717
11.5393	627.343	18.79126
11.5422	632.641	18.8108
11.5432	632.14	18.8303
11.54497	625.536	18.8499
11.5469	638.055	18.8694
11.5473	638.314	18.8889
11.5501	627.757	18.9084
11.5513	634.83	18.928
11.553	641.115	18.94751
11.5533	631.011	18.967
11.55553	635.823	18.9866
11.5577	643.718	19.0061
11.5591	634.875	19.0256
11.5614	636.325	19.0452
11.56264	646.557	19.0647
11.5646	639.097	19.0842
11.5658	637.155	19.10376
11.5678	650.884	19.1233
11.5712	643.674	19.1428
11.5714	638.168	19.1624
11.5727	648.238	19.1819
11.5753	649.578	19.2014
11.5768	641.776	19.2209
11.5777	650.732	19.2405
11.5785	648.6712	19.26001
11.5804	645.11	19.2795
11.5826	649.225	19.2991
11.5835	657.27	19.3186
11.5861	647.6344	19.3381
11.5871	650.916	19.3577
11.5888	657.239	19.3772
11.5903	653.916	19.3967
11.5917	649.549	19.41626
11.5939	660.48	19.4358
11.5955	658.363	19.4553
11.5966	653.168	19.4749
11.59999	657.355	19.4944
11.60091	661.546	19.5139
11.60163	651.014	19.5334
11.60284	662.796	19.553
11.6058	666.9	19.57251
11.608	656.287	19.592
11.60807	658.899	19.6116
11.6107	670.39	19.6311
11.6121	660.288	19.6506
11.6139	662.158	19.6702
11.6151	672.772	19.6897
11.616	663.71	19.7092
11.6172	662.723	19.72876
11.6198	673.919	19.7483
11.622	670.604	19.7678
11.6224	663.195	19.7874
11.62471	676.831	19.8069
11.6268	671.573	19.8264
11.6272	667.851	19.8459
11.6297	673.685	19.8655
11.6317	679.963	19.88501
11.6333	670.813	19.9045
11.6344	677.4325	19.9241
11.6358	677.675	19.9436
11.6377	675.41	19.9631
11.6397	674.174	19.9827
11.6402	684.207	20.0022
11.6423	681.192	20.012

Data Header:			0.254_hd_dimension_typei_090_r0			Time:	40.0168	s	4/15/2019 3:36:32 PM
Data Acquisition:	Timed
Station Name:	ft40.cfg
Test File Name:	monotonic_0.2540_typei_hd_090_dimension.tst
Displacement	Force	Running Time
mm	N	s
11.6422	676.34	20.0217
11.645	677.192	20.04126
11.6455	681.478	20.0608
11.6471	683.101	20.0803
11.6477	675.823	20.0999
11.6514	685.93	20.1194
11.653	686.662	20.1389
11.6554	680.755	20.1584
11.6547	683.993	20.178
11.6565	690.98	20.19751
11.6588	680.805	20.217
11.6608	686.644	20.2366
11.6619	693.725	20.2561
11.6633	683.975	20.2756
11.6652	684.536	20.2952
11.667	696.281	20.3147
11.6691	690.293	20.3342
11.6692	686.22	20.35376
11.6721	698.65	20.3733
11.67371	693.979	20.3928
11.6744	689.744	20.4124
11.6777	699.104	20.4319
11.6783	699.318	20.4514
11.6812	690.571	20.4709
11.6819	701.81	20.4905
11.6826	701.399	20.51001
11.6847	695.522	20.5295
11.6859	698.114	20.5491
11.6884	706.598	20.5686
11.6893	698.855	20.5881
11.6913	701.605	20.6077
11.693	705.248	20.6272
11.6946	703.832	20.6467
11.69612	700.265	20.66626
11.6976	714.057	20.6858
11.6998	707.955	20.7053
11.701	701.01	20.7249
11.7032	708.281	20.7444
11.7045	713.217	20.7639
11.7059	703.072	20.7834
11.70717	712.778	20.803
11.709	715.355	20.82251
11.7107	705.38	20.842
11.7128	710.493	20.8616
11.714	718.262	20.8811
11.7156	709.69	20.9006
11.7182	712.471	20.9202
11.7186	724.52	20.9397
11.72057	712.8642	20.9592
11.723	712.067	20.97876
11.724	722.217	20.9983
11.72704	718.318	21.0178
11.727	712.6842	21.0374
11.729	724.536	21.0569
11.7307	719.421	21.0764
11.73152	714.7749	21.0959
11.7337	723.489	21.1155
11.7346	729.284	21.13501
11.7372	718.982	21.1545
11.7387	725.044	21.1741
11.74	726.59	21.1936
11.7428	723.414	21.2131
11.7441	722.357	21.2327
11.7453	732.812	21.2522
11.7465	727.752	21.2717
11.7481	726.6	21.29126
11.74965	731.414	21.3108
11.7511	730.843	21.3303
11.75312	724.191	21.3499
11.7551	735.481	21.3694
11.7563	736.2359	21.3889
11.7583	724.716	21.4084
11.7597	730.949	21.428
11.7614	738.062	21.44751
11.7623	729.865	21.467
11.7647	734.576	21.4866
11.7665	742.108	21.5061
11.7669	731.67	21.5256
11.7691	732.032	21.5452
11.7711	743.229	21.5647
11.7726	736.966	21.5842
11.7743	732.4353	21.60376
11.7763	747.261	21.6233
11.7769	741.486	21.6428
11.779	735.706	21.6624
11.78175	743.1875	21.6819
11.7818	745.133	21.7014
11.7845	739.036	21.7209
11.786	748.5835	21.7405
11.7878	744.9408	21.76001
11.7888	742.054	21.7795
11.7906	745.51	21.7991
11.79128	753.403	21.8186
11.7945	744.528	21.8381
11.7958	745.701	21.8577
11.7967	751.592	21.8772
11.7981	751.642	21.8967
11.7999	744.7691	21.91626
11.8016	755.108	21.9358
11.8035	753.007	21.9553
11.8054	746.937	21.9749
11.8083	754.305	21.9944
11.8093	757.561	22.0139
11.81059	746.983	22.0334
11.8118	757.137	22.053
11.81335	761.285	22.07251
11.8154	749.868	22.092
11.8167	753.513	22.1116
11.8188	762.342	22.1311
11.8198	754.909	22.1506
11.82037	755.5	22.1702
11.8232	765.716	22.1897
11.82515	756.497	22.2092
11.8264	755.802	22.22876
11.8283	767.665	22.2483
11.8301	762.107	22.2678
11.8308	757.498	22.2874
11.8336	769.862	22.3069
11.83393	766.568	22.3264
11.8354	760.131	22.3459
11.8377	766.282	22.3655
11.83925	770.1712	22.38501
11.8416	762.207	22.4045
11.842	768.49	22.4241
11.8436	769.433	22.4436
11.8458	765.378	22.4631
11.8474	766.589	22.4827
11.8493	775.904	22.5022
11.851	769.312	22.5217
11.8521	764.766	22.54126
11.854	772.723	22.5608
11.8559	774.833	22.5803
11.8573	766.275	22.5999
11.8589	777.1767	22.6194
11.8611	776.865	22.6389
11.8619	768.945	22.6584
11.8647	774.644	22.678
11.8653	780.694	22.69751
11.8669	769.945	22.717
11.8687	775.599	22.7366
11.8713	786.034	22.7561
11.8721	772.965	22.7756
11.874	774.078	22.7952
11.8753	783.9317	22.8147
11.8767	779.403	22.8342
11.8785	776.188	22.85376
11.8807	788.643	22.8733
11.88198	779.286	22.8928
11.8846	776.999	22.9124
11.8848	785.207	22.9319
11.8875	787.1673	22.9514
11.8883	777.28	22.9709
11.8904	786.799	22.9905
11.892	786.195	23.01001
11.8932	782.545	23.0295
11.8946	784.8714	23.0491
11.8976	793.514	23.0686
11.898	782.757	23.0881
11.8999	789.022	23.1077
11.9016	790.892	23.1272
11.9028	786.3598	23.1467
11.9045	784.826	23.16626
11.907	796.352	23.1858
11.9078	793.659	23.2053
11.9092	785.559	23.2249
11.9115	792.261	23.2444
11.9126	796.6604	23.2639
11.91446	786.49	23.2834
11.9156	795.656	23.303
11.9181	798.097	23.32251
11.9192	788.51	23.342
11.9217	792.617	23.3616
11.9226	801.282	23.3811
11.9241	792.133	23.4006
11.9256	791.391	23.4202
11.9278	804.469	23.4397
11.92877	794.935	23.4592
11.9303	792.133	23.47876
11.9323	801.844	23.4983
11.9333	800.468	23.5178
11.9353	793.617	23.5374
11.93673	805.077	23.5569
11.9393	800.563	23.5764
11.9406	794.9649	23.5959
11.9414	803.339	23.6155
11.9435	807.982	23.63501
11.9457	797.854	23.6545
11.94711	802.069	23.6741
11.9473	805.546	23.6936
11.9501	800.704	23.7131
11.9514	801.269	23.7327
11.9529	810.23	23.7522
11.9551	803.005	23.7717
11.957	802.593	23.79126
11.9591	809.123	23.8108
11.96	806.502	23.8303
11.9613	800.959	23.8499
11.9633	810.493	23.8694
11.9636	811.768	23.8889
11.9653	803.828	23.9084
11.9686	807.9873	23.928
11.9701	815.492	23.94751
11.9705	805.678	23.967
11.97209	810.16	23.9866
11.9743	816.147	24.0061
11.9758	805.669	24.0256
11.9778	807.6	24.0452
11.9797	818.11	24.0647
11.98112	811.102	24.0842
11.9825	808.4104	24.10376
11.9846	819.703	24.1233
11.9863	812.666	24.1428
11.9872	808.235	24.1624
11.9892	816.643	24.1819
11.9909	817.827	24.2014
11.9915	809.986	24.2209
11.9942	820.757	24.2405
11.9971	817.233	24.26001
11.9968	811.5907	24.2795
11.9994	816.077	24.2991
12.0006	825.008	24.3186
12.002	815.592	24.3381
12.0042	815.577	24.3577
12.0058	820.996	24.3772
12.0064	819.639	24.3967
12.0088	814.764	24.41626
12.0098	826.2774	24.4358
12.0125	821.346	24.4553
12.0141	817.366	24.4749
12.016	822.045	24.4944
12.017	827.239	24.5139
12.0187	815.524	24.5334
12.0208	825.391	24.553
12.0223	827.695	24.57251
12.024	817.753	24.592
12.0233	819.109	24.6116
12.0264	827.496	24.6311
12.0286	819.539	24.6506
12.0305	820.659	24.6702
12.03195	832.17	24.6897
12.03325	821.909	24.7092
12.0355	820.1203	24.72876
12.0363	830.186	24.7483
12.0382	828.952	24.7678
12.0391	819.366	24.7874
12.041	831.136	24.8069
12.0423	827.593	24.8264
12.044	821.832	24.8459
12.0462	828.901	24.8655
12.0479	832.255	24.88501
12.0491	822.762	24.9045
12.0517	830.411	24.9241
12.0521	832.19	24.9436
12.0546	826.247	24.9631
12.0562	824.857	24.9827
12.0572	836.031	25.0022
12.05996	829.103	25.0217
12.0613	826.92	25.04126
12.0616	830.225	25.0608
12.0646	831.638	25.0803
12.0645	825.731	25.0999
12.0667	835.252	25.1194
12.0689	834.407	25.1389
12.0706	826.864	25.1584
12.0722	832.498	25.178
12.0746	838.052	25.19751
12.0758	827.877	25.217
12.0774	830.532	25.2366
12.0787	839.48	25.2561
12.0804	829.327	25.2756
12.0822	830.129	25.2952
12.0838	839.1781	25.3147
12.0851	834.312	25.3342
12.0867	830.358	25.35376
12.0882	842.52	25.3733
12.0896	832.707	25.3928
12.0912	830.871	25.4124
12.0937	839.293	25.4319
12.0955	839.6886	25.4514
12.0966	831.605	25.4709
12.0983	839.584	25.4905
12.0996	837.293	25.51001
12.1017	833.647	25.5295
12.1022	834.001	25.5491
12.1044	842.338	25.5686
12.1062	833.169	25.5881
12.1082	837.621	25.6077
12.1105	841.518	25.6272
12.1107	836.713	25.6467
12.1135	831.243	25.66626
12.1145	843.015	25.6858
12.1166	840.423	25.7053
12.1178	832.9494	25.7249
12.1193	839.892	25.7444
12.1208	842.554	25.7639
12.1228	833.408	25.7834
12.1251	842.036	25.803
12.1259	846.365	25.82251
12.1275	833.178	25.842
12.1289	837.305	25.8616
12.1308	845.605	25.8811
12.1323	837.872	25.9006
12.1336	836.702	25.9202
12.1359	846.7428	25.9397
12.13765	838.312	25.9592
12.1387	836.123	25.97876
12.1413	845.172	25.9983
12.1429	843.022	26.0178
12.14334	836.943	26.0374
12.1452	848.154	26.0569
12.1469	840.89	26.0764
12.1486	836.653	26.0959
12.1507	843.063	26.1155
12.1509	848.315	26.13501
12.154	837.709	26.1545
12.1552	844.624	26.1741
12.158	843.417	26.1936
12.15834	841.441	26.2131
12.16	840.906	26.2327
12.162	849.575	26.2522
12.1633	841.732	26.2717
12.1645	839.326	26.29126
12.1676	846.934	26.3108
12.16876	846.5036	26.3303
12.1699	836.422	26.3499
12.1723	847.875	26.3694
12.1718	847.965	26.3889
12.1751	838.061	26.4084
12.1761	843.352	26.428
12.1785	849.088	26.44751
12.1807	839.234	26.467
12.1816	843.968	26.4866
12.183	851.311	26.5061
12.185	840.308	26.5256
12.1865	839.141	26.5452
12.1872	850.253	26.5647
12.1908	843.753	26.5842
12.1909	838.925	26.60376
12.1932	851.417	26.6233
12.1951	843.563	26.6428
12.1949	839.8382	26.6624
12.19732	848.143	26.6819
12.19683	847.5188	26.7014
12.20054	838.148	26.7209
12.202	849.777	26.7405
12.2038	848.566	26.76001
12.2063	841.557	26.7795
12.20688	844.913	26.7991
12.21003	852.681	26.8186
12.2122	844.448	26.8381
12.2117	844.867	26.8577
12.2142	847.772	26.8772
12.2165	846.576	26.8967
12.2167	841.6	26.91626
12.2188	852.545	26.9358
12.22	847.354	26.9553
12.2219	840.098	26.9749
12.223	848.532	26.9944
12.2249	850.722	27.0139
12.2271	839.183	27.0334
12.2283	846.769	27.053
12.229	852.44	27.07251
12.2313	840.626	27.092
12.2334	843.988	27.1116
12.2346	850.589	27.1311
12.236	842.746	27.1506
12.238	844.048	27.1702
12.2404	852.849	27.1897
12.2407	842.7746	27.2092
12.2426	840.216	27.22876
12.24448	849.893	27.2483
12.2472	848.621	27.2678
12.2476	841.473	27.2874
12.2487	852.3175	27.3069
12.2508	846.192	27.3264
12.2529	842.037	27.3459
12.2544	848.435	27.3655
12.2558	851.351	27.38501
12.2578	840.576	27.4045
12.2588	847.86	27.4241
12.26101	849.782	27.4436
12.2613	845.239	27.4631
12.2639	842.971	27.4827
12.2667	852.457	27.5022
12.2672	845.6637	27.5217
12.2683	845.284	27.54126
12.2706	849.051	27.5608
12.27214	847.4931	27.5803
12.2739	840.788	27.5999
12.275	850.382	27.6194
12.2772	848.782	27.6389
12.2789	840.708	27.6584
12.2805	846.544	27.678
12.2819	853.131	27.69751
12.2846	842.41	27.717
12.2843	843.903	27.7366
12.28739	852.388	27.7561
12.2893	840.889	27.7756
12.2896	843.27	27.7952
12.2921	852.242	27.8147
12.2935	843.01	27.8342
12.2955	839.242	27.85376
12.2965	852.9635	27.8733
12.29768	843.424	27.8928
12.2999	839.628	27.9124
12.3014	846.709	27.9319
12.3038	850.683	27.9514
12.3052	840.099	27.9709
12.3063	847.869	27.9905
12.3077	846.286	28.01001
12.3099	841.028	28.0295
12.3116	843.026	28.0491
12.3128	850.857	28.0686
12.3145	842.071	28.0881
12.3164	842.314	28.1077
12.3172	847.455	28.1272
12.3191	845.712	28.1467
12.3216	837.99	28.16626
12.3233	848.061	28.1858
12.3254	845.794	28.2053
12.3259	840.0871	28.2249
12.32801	846.583	28.2444
12.32907	845.988	28.2639
12.3314	837.953	28.2834
12.33263	846.386	28.303
12.3337	850.366	28.32251
12.3363	836.821	28.342
12.3369	842.95	28.3616
12.3395	851.234	28.3811
12.3424	841.737	28.4006
12.3426	838.859	28.4202
12.3443	849.711	28.4397
12.3458	841.599	28.4592
12.3478	838.4657	28.47876
12.3491	847.881	28.4983
12.3503	842.8924	28.5178
12.3524	838.1673	28.5374
12.3532	850.645	28.5569
12.35639	843.3056	28.5764
12.3567	838.199	28.5959
12.3591	841.913	28.6155
12.3603	848.308	28.63501
12.3622	839.517	28.6545
12.3635	843.706	28.6741
12.3663	843.535	28.6936
12.3666	838.94	28.7131
12.3686	838.615	28.7327
12.3695	848.688	28.7522
12.3724	840.831	28.7717
12.3727	838.151	28.79126
12.3743	843.643	28.8108
12.37612	844.167	28.8303
12.3778	834.643	28.8499
12.3786	844.742	28.8694
12.3819	845.075	28.8889
12.3824	836.355	28.9084
12.3848	841.949	28.928
12.3863	845.152	28.94751
12.3884	834.694	28.967
12.3889	840.82	28.9866
12.3915	848.072	29.0061
12.3938	835.055	29.0256
12.3953	835.404	29.0452
12.3965	847.908	29.0647
12.3979	840.24	29.0842
12.3986	836.487	29.10376
12.401	845.703	29.1233
12.4021	837.823	29.1428
12.40365	836.362	29.1624
12.4058	844.272	29.1819
12.4069	842.678	29.2014
12.4095	833.543	29.2209
12.411	843.045	29.2405
12.4123	842.506	29.26001
12.4135	835.938	29.2795
12.4152	838.987	29.2991
12.4179	845.822	29.3186
12.4181	837.896	29.3381
12.42094	838.853	29.3577
12.4217	841.193	29.3772
12.4236	837.882	29.3967
12.4255	833.874	29.41626
12.4258	845.488	29.4358
12.4281	839.659	29.4553
12.4302	832.294	29.4749
12.4324	838.4751	29.4944
12.4329	843.909	29.5139
12.4357	831.996	29.5334
12.4356	838.137	29.553
12.4381	842.524	29.57251
12.4398	831.576	29.592
12.4413	835.726	29.6116
12.443	842.7	29.6311
12.4447	834.167	29.6506
12.4461	833.527	29.6702
12.4484	846.401	29.6897
12.4498	833.58	29.7092
12.4511	830.597	29.72876
12.453	841.488	29.7483
12.4544	839.748	29.7678
12.4557	831.303	29.7874
12.4577	841.823	29.8069
12.4589	836.142	29.8264
12.4601	832.369	29.8459
12.4628	837.424	29.8655
12.4651	841.897	29.88501
12.4667	832.104	29.9045
12.4673	836.3291	29.9241
12.4684	838.678	29.9436
12.47103	835.06	29.9631
12.47259	831.3205	29.9827
12.4739	841.518	30.0022
12.4762	834.678	30.0217
12.4784	833.7533	30.04126
12.47896	836.725	30.0608
12.4812	837.4646	30.0803
12.48249	828.99	30.0999
12.4826	838.67	30.1194
12.4851	838.591	30.1389
12.48659	827.048	30.1584
12.48969	833.723	30.178
12.4897	839.285	30.19751
12.4921	830.256	30.217
12.4946	830.946	30.2366
12.4952	840.603	30.2561
12.4968	829.357	30.2756
12.4986	830.943	30.2952
12.4996	837.911	30.3147
12.5017	832.989	30.3342
12.50372	830.477	30.35376
12.5051	840.881	30.3733
12.50787	832.515	30.3928
12.5089	828.121	30.4124
12.5096	835.981	30.4319
12.5109	836.031	30.4514
12.5132	828.797	30.4709
12.5154	836.451	30.4905
12.5169	833.457	30.51001
12.5184	829.519	30.5295
12.5191	830.55	30.5491
12.5221	838.846	30.5686
12.5231	828.207	30.5881
12.5252	829.144	30.6077
12.5256	837.286	30.6272
12.5272	832.452	30.6467
12.5295	827.796	30.66626
12.5324	836	30.6858
12.5328	832.921	30.7053
12.5349	826.774	30.7249
12.5352	832.928	30.7444
12.5374	833.71	30.7639
12.5396	824.443	30.7834
12.5412	833.28	30.803
12.5423	836.363	30.82251
12.5439	824.69	30.842
12.5461	829.248	30.8616
12.5469	837.177	30.8811
12.5488	828.214	30.9006
12.5508	827.555	30.9202
12.5526	837.611	30.9397
12.5533	826.963	30.9592
12.5555	828.044	30.97876
12.5579	833.923	30.9983
12.5585	830.584	31.0178
12.5606	823.128	31.0374
12.5616	835.847	31.0569
12.5632	830.399	31.0764
12.5651	824.425	31.0959
12.5669	828.627	31.1155
12.569	833.5694	31.13501
12.57023	826.341	31.1545
12.572	831.014	31.1741
12.5745	832.222	31.1936
12.5743	826.435	31.2131
12.5759	825.441	31.2327
12.5769	835.349	31.2522
12.5798	829.259	31.2717
12.5812	824.957	31.29126
12.5835	832.355	31.3108
12.5857	831.685	31.3303
12.5867	823.203	31.3499
12.5885	831.837	31.3694
12.5895	832.604	31.3889
12.5914	823.911	31.4084
12.5932	829.401	31.428
12.5943	834.246	31.44751
12.5965	824.797	31.467
12.5978	828.2348	31.4866
12.5999	835.049	31.5061
12.6005	823.313	31.5256
12.602	824.948	31.5452
12.6044	834.628	31.5647
12.6065	827.266	31.5842
12.607	824.182	31.60376
12.609	833.97	31.6233
12.61146	826.011	31.6428
12.61293	822.166	31.6624
12.6142	830.776	31.6819
12.6168	831.581	31.7014
12.6168	821.757	31.7209
12.6193	830.999	31.7405
12.6206	828.854	31.76001
[...]
13.2208	814.011	38.967
13.2229	820.488	38.9866
13.2251	827.817	39.0061
13.2266	815.444	39.0256
13.2274	819.29	39.0452
13.2299	823.611	39.0647
13.232	818.4588	39.0842
13.233	816.4809	39.10376
13.2341	826.305	39.1233
13.2347	818.319	39.1428
13.2373	816.0567	39.1624
13.239	821.693	39.1819
13.2412	823.4455	39.2014
13.2422	815.19	39.2209
13.2436	821.987	39.2405
13.2451	821.916	39.26001
13.246	817.619	39.2795
13.249	818.517	39.2991
13.2504	824.957	39.3186
13.2524	816.33	39.3381
13.2544	816.66	39.3577
13.256	824.865	39.3772
13.2568	818.872	39.3967
13.2598	813.4	39.41626
13.2603	823.558	39.4358
13.262	822.649	39.4553
13.2645	814.209	39.4749
13.2654	822.311	39.4944
13.2666	823.41	39.5139
13.2684	816.481	39.5334
13.2703	821.645	39.553
13.2716	824.694	39.57251
13.2733	811.676	39.592
13.27389	819.841	39.6116
13.2766	824.589	39.6311
13.2781	816.879	39.6506
13.2808	816.654	39.6702
13.2805	826.564	39.6897
13.2825	815.241	39.7092
13.28427	817.493	39.72876
13.2862	823.4455	39.7483
13.2886	822.083	39.7678
13.2891	814.818	39.7874
13.2915	824.489	39.8069
13.2927	819.749	39.8264
13.295	813.585	39.8459
13.2958	820.227	39.8655
13.2979	824.92	39.88501
13.2988	815.479	39.9045
13.3013	819.748	39.9241
13.3028	819.732	39.9436
13.3044	816.661	39.9631
13.3063	815.744	39.9827
13.307	824.384	40.0022
13.3088	825.909	40.012

Data Header:			0.254_hd_dimension_typei_090_r0			Time:	54.8762	s	4/15/2019 3:36:47 PM
Data Acquisition:	Timed
Station Name:	ft40.cfg
Test File Name:	monotonic_0.2540_typei_hd_090_dimension.tst
Displacement	Force	Running Time
mm	N	s
13.3098	817.823	40.0217
13.3107	812.121	40.04126
13.3128	824.546	40.0608
13.3138	820.497	40.0803
13.3147	812.599	40.0999
13.3177	821.879	40.1194
13.31848	824.276	40.1389
13.3201	812.16	40.1584
13.3228	818.5708	40.178
13.3241	821.629	40.19751
13.3245	814.0719	40.217
13.3272	818.092	40.2366
13.3285	826.342	40.2561
13.3298	812.515	40.2756
13.3334	818.064	40.2952
13.3332	823.571	40.3147
13.3363	818.7085	40.3342
13.3363	814.713	40.35376
13.3387	824.41	40.3733
13.3408	816.188	40.3928
13.342	816.196	40.4124
13.3438	820.929	40.4319
13.3466	821.308	40.4514
13.34769	813.876	40.4709
13.3491	822.57	40.4905
13.3494	821.176	40.51001
13.3507	814.31	40.5295
13.3532	817.345	40.5491
13.35533	824.047	40.5686
13.3564	817.3526	40.5881
13.358	815.039	40.6077
13.3597	820.747	40.6272
13.3618	815.407	40.6467
13.3631	815.251	40.66626
13.3637	822.4715	40.6858
13.3658	821.753	40.7053
13.368	810.346	40.7249
13.3693	823.242	40.7444
13.3711	823.135	40.7639
13.37284	812.712	40.7834
13.3743	819.894	40.803
13.3759	823.669	40.82251
13.3771	812.7124	40.842
13.38059	818.557	40.8616
13.3809	822.4577	40.8811
13.3822	814.574	40.9006
13.3834	816.61	40.9202
13.3856	826.831	40.9397
13.3883	813.513	40.9592
13.3884	815.1828	40.97876
13.3902	822.193	40.9983
13.3919	820.36	41.0178
13.3932	813.101	41.0374
13.3954	821.013	41.0569
13.3957	818.764	41.0764
13.3991	814.183	41.0959
13.4002	818.946	41.1155
13.4021	823.49	41.13501
13.4042	814.001	41.1545
13.4054	818.972	41.1741
13.4063	822.473	41.1936
13.4074	815.256	41.2131
13.411	815.31	41.2327
13.41248	824.543	41.2522
13.4121	818.226	41.2717
13.4152	813.748	41.29126
13.41712	821.314	41.3108
13.4181	819.782	41.3303
13.41906	813.099	41.3499
13.4212	820.918	41.3694
13.42312	822.766	41.3889
13.4247	809.3269	41.4084
13.4262	820.888	41.428
13.4279	823.63	41.44751
13.4303	813.908	41.467
13.4312	818.097	41.4866
13.4326	826.75	41.5061
13.434	812.261	41.5256
13.4362	815.891	41.5452
13.4376	820.681	41.5647
13.4403	817.477	41.5842
13.441	815.271	41.60376
13.4428	825.435	41.6233
13.4446	816.087	41.6428
13.4456	812.977	41.6624
13.4474	820.14	41.6819
13.4488	822.328	41.7014
13.4507	814.428	41.7209
13.4524	821.976	41.7405
13.4538	819.791	41.76001
13.4542	814.612	41.7795
13.45718	817.872	41.7991
13.4589	824.079	41.8186
13.4601	814.567	41.8381
13.4622	816.903	41.8577
13.463	823.375	41.8772
13.4652	816.547	41.8967
13.4655	812.171	41.91626
13.4683	822.146	41.9358
13.47106	820.192	41.9553
13.4726	811.764	41.9749
13.4731	821.119	41.9944
13.4754	820.209	42.0139
13.4773	813.737	42.0334
13.4775	820.156	42.053
13.48023	826.697	42.07251
13.4822	811.419	42.092
13.4823	819.112	42.1116
13.48493	824.116	42.1311
13.4868	816.269	42.1506
13.48773	815.434	42.1702
13.4904	826.145	42.1897
13.4908	812.787	42.2092
13.4934	817.39	42.22876
13.4947	823.873	42.2483
13.4971	818.722	42.2678
13.4969	812.663	42.2874
13.4988	822.886	42.3069
13.5004	817.5069	42.3264
13.5021	814.992	42.3459
13.504	818.85	42.3655
13.505	823.192	42.38501
13.5069	815.135	42.4045
13.51017	817.466	42.4241
13.5107	820.648	42.4436
13.5123	815.222	42.4631
13.5141	815.296	42.4827
13.5157	825.358	42.5022
13.5172	816.641	42.5217
13.5185	812.219	42.54126
13.5206	821.352	42.5608
13.5238	819.02	42.5803
13.5231	813.089	42.5999
13.5253	820.195	42.6194
13.5275	822.647	42.6389
13.5283	811.517	42.6584
13.52986	821.5	42.678
13.5318	822.345	42.69751
13.53509	811.941	42.717
13.5363	818.094	42.7366
13.5372	825.531	42.7561
13.5383	809.663	42.7756
13.5396	815.362	42.7952
13.5418	823.132	42.8147
13.5431	817.642	42.8342
13.545	814.9361	42.85376
13.5463	823.787	42.8733
13.5495	813.212	42.8928
13.5503	815.095	42.9124
13.5519	820.8465	42.9319
13.5536	820.816	42.9514
13.55511	812.364	42.9709
13.5563	819.448	42.9905
13.5575	819.938	43.01001
13.55899	812.601	43.0295
13.561	814.5788	43.0491
13.5614	824.3598	43.0686
13.5652	815.667	43.0881
13.5666	815.046	43.1077
13.5675	821.113	43.1272
13.5699	817.023	43.1467
13.5708	813.36	43.16626
13.5724	822.57	43.1858
13.5744	821.246	43.2053
13.5756	810.3725	43.2249
13.5775	820.494	43.2444
13.5789	820.089	43.2639
13.5808	813.152	43.2834
13.5816	818.211	43.303
13.5847	823.8819	43.32251
13.5858	810.806	43.342
13.587	818.106	43.3616
13.5894	822.224	43.3811
13.5904	814.973	43.4006
13.5931	814.88	43.4202
13.5942	826.003	43.4397
13.5956	813.127	43.4592
13.5968	816.504	43.47876
13.59873	821.59	43.4983
13.601	819.296	43.5178
13.6017	813.945	43.5374
13.6037	822.034	43.5569
13.6055	817.554	43.5764
13.6078	814.449	43.5959
13.6093	818.864	43.6155
13.6095	822.664	43.63501
13.6118	812.551	43.6545
13.6131	815.638	43.6741
13.6155	821.776	43.6936
13.6174	816.513	43.7131
13.6179	814.841	43.7327
13.6184	822.427	43.7522
13.62156	816.723	43.7717
13.6225	811.991	43.79126
13.6253	821.579	43.8108
13.6263	817.517	43.8303
13.6277	811.6507	43.8499
13.6296	821.811	43.8694
13.6315	822.808	43.8889
13.6328	809.751	43.9084
13.6335	819.757	43.928
13.6363	821.061	43.94751
13.6389	814.305	43.967
13.6392	817.588	43.9866
13.6411	824.32	44.0061
13.6424	810.3858	44.0256
13.6445	816.127	44.0452
13.6467	821.461	44.0647
13.6483	816.712	44.0842
13.6494	813.054	44.10376
13.65135	824.274	44.1233
13.6525	817.327	44.1428
13.65417	813.258	44.1624
13.6558	817.908	44.1819
13.6576	819.29	44.2014
13.6593	812.201	44.2209
13.6615	819.22	44.2405
13.6617	820.181	44.26001
13.6644	812.039	44.2795
13.6651	815.6662	44.2991
13.6678	823.665	44.3186
13.6683	813.827	44.3381
13.6702	814.04	44.3577
13.67277	822.041	44.3772
13.6741	816.828	44.3967
13.6745	813.333	44.41626
13.6765	822.824	44.4358
13.679	820.513	44.4553
13.6806	809.727	44.4749
13.682	821.154	44.4944
13.6843	817.387	44.5139
13.6848	810.711	44.5334
13.6857	818.5957	44.553
13.6883	823.844	44.57251
13.6898	809.723	44.592
13.6921	817.182	44.6116
13.6925	821.911	44.6311
13.6947	815.26	44.6506
13.6962	816.867	44.6702
13.6976	823.047	44.6897
13.6995	811.041	44.7092
13.7013	816.228	44.72876
13.7029	821.293	44.7483
13.7047	819.936	44.7678
13.7072	811.0686	44.7874
13.7078	822.4035	44.8069
13.71	818.765	44.8264
13.71115	813.318	44.8459
13.7126	817.741	44.8655
13.7133	820.833	44.88501
13.7159	814.036	44.9045
13.7182	817.637	44.9241
13.7192	819.393	44.9436
13.7204	812.422	44.9631
13.72135	815.229	44.9827
13.7236	823.579	45.0022
13.7255	817.269	45.0217
13.7273	810.746	45.04126
13.7285	820.624	45.0608
13.7308	819.504	45.0803
13.73132	813.137	45.0999
13.7338	818.806	45.1194
13.73524	821.716	45.1389
13.73625	809.1095	45.1584
13.7394	818.907	45.178
13.7404	821.477	45.19751
13.74147	812.535	45.217
13.7442	816.853	45.2366
13.7452	825.613	45.2561
13.7458	811.113	45.2756
13.7478	817.041	45.2952
13.75	821.943	45.3147
13.7512	816.648	45.3342
13.7526	813.3446	45.35376
13.7556	823.591	45.3733
13.7566	813.948	45.3928
13.7577	812.906	45.4124
13.7612	820.39	45.4319
13.7629	819.437	45.4514
13.7635	811.842	45.4709
13.765	818.783	45.4905
13.7662	819.792	45.51001
13.768	812.899	45.5295
13.7693	813.949	45.5491
13.7717	821.058	45.5686
13.773	813.294	45.5881
13.7754	816.142	45.6077
13.7756	820.785	45.6272
13.7786	815.627	45.6467
13.7794	813.006	45.66626
13.7812	821.029	45.6858
13.7825	816.546	45.7053
13.7834	808.573	45.7249
13.7851	818.6676	45.7444
13.7875	819.156	45.7639
13.7893	812.343	45.7834
13.7905	819.9754	45.803
13.7916	823.542	45.82251
13.7939	809.259	45.842
13.7957	818.989	45.8616
13.7973	822.068	45.8811
13.7985	813.542	45.9006
13.7999	814.425	45.9202
13.8023	825.4906	45.9397
13.8048	813.627	45.9592
13.8056	813.663	45.97876
13.8072	821.0354	45.9983
13.8096	820.384	46.0178
13.8099	812.6449	46.0374
13.8125	822.5061	46.0569
13.81284	817.775	46.0764
13.815	812.436	46.0959
13.8175	819.093	46.1155
13.8179	821.589	46.13501
13.8199	811.102	46.1545
13.8218	815.466	46.1741
13.8229	819.411	46.1936
13.8247	815.027	46.2131
13.8272	815.749	46.2327
13.82799	821.655	46.2522
13.8299	815.318	46.2717
13.8313	812.073	46.29126
13.8321	822.281	46.3108
13.83453	816.735	46.3303
13.8369	809.789	46.3499
13.8375	821.77	46.3694
13.84	823.192	46.3889
13.8416	810.028	46.4084
13.8436	818.7746	46.428
13.8449	818.22	46.44751
13.8464	813.684	46.467
13.8475	817.853	46.4866
13.8496	823.112	46.5061
13.8515	811.778	46.5256
13.8523	816.308	46.5452
13.8536	823.557	46.5647
13.8551	816.999	46.5842
13.8575	812.726	46.60376
13.8596	823.228	46.6233
13.8603	815.133	46.6428
13.863	812.393	46.6624
13.8644	820.204	46.6819
13.8649	819.214	46.7014
13.8678	810.834	46.7209
13.8689	820.2052	46.7405
13.8715	818.463	46.76001
13.8728	812.387	46.7795
13.8747	817.006	46.7991
13.876	824.179	46.8186
13.87647	814.919	46.8381
13.8789	813.533	46.8577
13.8806	820.363	46.8772
13.8821	816.564	46.8967
13.883	812.7547	46.91626
13.8852	820.432	46.9358
13.8876	817.899	46.9553
13.8894	810.992	46.9749
13.8897	820.235	46.9944
13.8915	819.969	47.0139
13.8933	812.172	47.0334
13.8944	819.267	47.053
13.8967	823.639	47.07251
13.8977	810.17	47.092
13.8999	816.086	47.1116
13.9019	820.655	47.1311
13.9028	814.591	47.1506
13.904	815.239	47.1702
13.90636	824.9892	47.1897
13.9094	811.119	47.2092
13.9095	814.193	47.22876
13.91185	821.758	47.2483
13.9132	819.222	47.2678
13.915	810.662	47.2874
13.9163	819.388	47.3069
13.9182	817.109	47.3264
13.9188	812.378	47.3459
13.9212	817.7912	47.3655
13.9226	820.085	47.38501
13.9241	812.102	47.4045
13.9255	815.993	47.4241
13.9275	818.775	47.4436
13.9285	813.489	47.4631
13.9303	812.138	47.4827
13.9321	821.612	47.5022
13.9339	816.314	47.5217
13.9352	811.203	47.54126
13.9373	818.527	47.5608
13.9393	817.271	47.5803
13.9417	810.264	47.5999
13.9429	820.148	47.6194
13.9437	819.884	47.6389
13.9454	807.132	47.6584
13.9476	819.009	47.678
13.9472	820.878	47.69751
13.9501	811.972	47.717
13.952	815.531	47.7366
13.95343	823.59	47.7561
13.9558	811.399	47.7756
13.9571	814.962	47.7952
13.9584	821.044	47.8147
13.9602	814.6424	47.8342
13.9615	813.182	47.85376
13.9634	825.121	47.8733
13.9655	814.58	47.8928
13.96629	811.78	47.9124
13.9674	819.774	47.9319
13.9693	820.83	47.9514
13.9712	812.38	47.9709
13.9735	818.513	47.9905
13.9737	819.05	48.01001
13.9775	812.375	48.0295
13.97796	815.459	48.0491
13.98	821.831	48.0686
13.9813	812.296	48.0881
13.9838	812.719	48.1077
13.9845	821.518	48.1272
13.9864	814.412	48.1467
13.988	811.999	48.16626
13.9911	822.155	48.1858
13.9912	818.706	48.2053
13.9929	809.645	48.2249
13.995	819.867	48.2444
13.9962	817.831	48.2639
13.9979	811.125	48.2834
13.9991	817.395	48.303
14.0014	823.049	48.32251
14.0029	807.658	48.342
14.0055	816.454	48.3616
14.006	821.719	48.3811
14.00683	813.537	48.4006
14.0093	816.816	48.4202
14.0106	823.936	48.4397
14.0125	813.259	48.4592
14.0142	814.355	48.47876
14.0146	820.792	48.4983
14.0173	818.653	48.5178
14.0199	812.712	48.5374
14.0205	821.21	48.5569
14.0212	817.359	48.5764
14.0239	811.447	48.5959
14.0251	818.578	48.6155
14.0264	821.807	48.63501
14.02839	813.971	48.6545
14.0293	815.595	48.6741
14.0315	819.303	48.6936
14.0336	814.217	48.7131
14.0354	815.3999	48.7327
14.0363	820.852	48.7522
14.0388	815.089	48.7717
14.0391	811.492	48.79126
14.0413	821.472	48.8108
14.0429	816.5426	48.8303
14.0443	811.31	48.8499
14.04617	818.4364	48.8694
14.04775	821.749	48.8889
14.0506	810.408	48.9084
14.051	819.236	48.928
14.0532	818.277	48.94751
14.0534	811.498	48.967
14.057	816.449	48.9866
14.0569	824.412	49.0061
14.05854	811.065	49.0256
14.0607	813.571	49.0452
14.0631	820.412	49.0647
14.06347	816.44	49.0842
14.0658	813.603	49.10376
14.0678	822.947	49.1233
14.0687	814.958	49.1428
14.071	813.453	49.1624
14.0714	818.813	49.1819
14.0746	818.64	49.2014
14.0768	809.141	49.2209
14.0767	818.896	49.2405
14.0791	818.349	49.26001
14.0801	811.487	49.2795
14.0814	814.851	49.2991
14.0834	821.952	49.3186
14.0845	813.4541	49.3381
14.0875	813.392	49.3577
14.0893	818.627	49.3772
14.0908	815.164	49.3967
14.09114	811.356	49.41626
14.0942	819.528	49.4358
14.0946	816.971	49.4553
14.0961	807.909	49.4749
14.0992	819.665	49.4944
14.1005	818.416	49.5139
14.1016	811.255	49.5334
14.1034	816.996	49.553
14.1055	822.113	49.57251
14.1064	808.174	49.592
14.1081	816.252	49.6116
14.11	818.992	49.6311
14.1118	811.522	49.6506
14.1132	812.639	49.6702
14.1151	824.814	49.6897
14.1168	811.502	49.7092
14.1176	811.925	49.72876
14.11936	821.174	49.7483
14.1213	818.3559	49.7678
14.1226	812.074	49.7874
14.1246	821.207	49.8069
14.1266	814.305	49.8264
14.12816	811.203	49.8459
14.1294	815.904	49.8655
14.1312	819.036	49.88501
14.1328	809.676	49.9045
14.1339	814.3064	49.9241
14.1362	819.945	49.9436
14.1371	812.436	49.9631
14.13812	809.953	49.9827
14.1405	821.097	50.0022
14.1428	815.95	50.0217
14.144	810.032	50.04126
14.146	818.55	50.0608
14.1467	813.973	50.0803
14.1489	807.796	50.0999
14.1506	820.003	50.1194
14.1527	819.808	50.1389
14.1532	806.807	50.1584
14.155	816.596	50.178
14.1568	819.518	50.19751
14.1587	810.97	50.217
14.1605	814.2757	50.2366
14.163	822.471	50.2561
14.1637	807.1908	50.2756
14.1652	813.106	50.2952
14.1675	819.211	50.3147
14.1682	813.922	50.3342
14.1707	811.433	50.35376
14.1721	821.39	50.3733
14.1729	812.615	50.3928
14.1742	810.857	50.4124
14.177	816.358	50.4319
14.178	817.942	50.4514
14.1799	811.322	50.4709
14.181	816.306	50.4905
14.1834	816.116	50.51001
14.1859	810.927	50.5295
14.1853	814.765	50.5491
14.1879	819.891	50.5686
14.1892	811.498	50.5881
14.1913	811.844	50.6077
14.1924	819.242	50.6272
14.195	812.473	50.6467
14.1969	810.097	50.66626
14.1978	817.265	50.6858
14.1998	816.17	50.7053
14.201	808.778	50.7249
14.202	817.934	50.7444
14.2032	816.415	50.7639
14.2059	809.001	50.7834
14.2081	815.414	50.803
14.209	820.453	50.82251
14.2116	805.95	50.842
14.213	815.549	50.8616
14.2137	819.648	50.8811
14.21563	810.57	50.9006
14.2166	812.099	50.9202
14.2185	820.326	50.9397
14.22	808.921	50.9592
14.2214	811.378	50.97876
14.223	817.745	50.9983
14.2251	816.915	51.0178
14.2265	809.482	51.0374
14.2289	819.348	51.0569
14.23017	813.854	51.0764
14.2324	809.2337	51.0959
14.2347	813.56	51.1155
14.2344	817.87	51.13501
14.2362	809.552	51.1545
14.2381	813.898	51.1741
14.2394	816.848	51.1936
14.2424	810.274	51.2131
14.2429	811.2439	51.2327
14.245	819.0368	51.2522
14.2468	811.054	51.2717
14.2484	806.885	51.29126
14.24988	817.192	51.3108
14.251	815.366	51.3303
14.2526	808.5896	51.3499
14.2553	815.923	51.3694
14.2564	817.423	51.3889
14.2583	806.518	51.4084
14.2591	816.19	51.428
14.2603	816.4176	51.44751
14.262	806.446	51.467
14.2634	812.659	51.4866
14.26593	820.033	51.5061
14.269	806.45	51.5256
14.2687	809.67	51.5452
14.27129	815.391	51.5647
14.272	811.233	51.5842
14.27444	808.118	51.60376
14.2761	816.201	51.6233
14.2779	808.237	51.6428
14.2785	805.53	51.6624
14.281	811.42	51.6819
14.2901	-17.2688	51.7014
14.289	-38.9848	51.7209
14.28859	-32.45261	51.7405
14.2889	-49.11974	51.76001
14.2902	-51.9444	51.7795
14.2917	-47.3624	51.7991
14.2928	-40.7988	51.8186
14.2953	-49.4773	51.8381
14.2963	-47.87101	51.8577
14.2981	-42.9319	51.8772
14.2997	-48.9093	51.8967
14.3003	-51.122	51.91626
14.3024	-42.3887	51.9358
14.3047	-44.2944	51.9553
14.3063	-54.1798	51.9749
14.307	-42.1076	51.9944
14.3093	-42.3253	52.0139
14.311	-49.4667	52.0334
14.3127	-45.3134	52.053
14.3139	-38.9454	52.07251
14.3151	-53.2249	52.092
14.3176	-44.2439	52.1116
14.319	-39.6118	52.1311
14.3203	-49.8889	52.1506
14.3211	-49.2975	52.1702
14.3239	-38.226	52.1897
14.3257	-48.8878	52.2092
14.3278	-46.4327	52.22876
14.3284	-41.4672	52.2483
14.32936	-43.8803	52.2678
14.3311	-47.8734	52.2874
14.3327	-41.3389	52.3069
14.3349	-46.4921	52.3264
14.3369	-49.7086	52.3459
14.3374	-43.7123	52.3655
14.33874	-38.3048	52.38501
14.3412	-49.9005	52.4045
14.3439	-46.6943	52.4241
14.3449	-41.2363	52.4436
14.3466	-47.5583	52.4631
14.3483	-47.6198	52.4827
14.3492	-39.5431	52.5022
14.3519	-45.0339	52.5217
14.3533	-49.5918	52.54126
14.3548	-40.5945	52.5608
14.3554	-46.07066	52.5803
14.358	-52.0372	52.5999
14.35888	-42.4125	52.6194
14.3608	-39.7141	52.6389
14.3621	-54.4902	52.6584
14.3639	-43.6941	52.678
14.3652	-42.5749	52.69751
14.36689	-48.8245	52.717
14.3681	-46.9829	52.7366
14.36986	-39.6965	52.7561
14.373	-52.0783	52.7756
14.373	-45.3013	52.7952
14.3751	-40.8923	52.8147
14.3772	-45.8825	52.8342
14.3793	-48.7772	52.85376
14.38	-37.9813	52.8733
14.3827	-46.7604	52.8928
14.3837	-48.5446	52.9124
14.3859	-43.56657	52.9319
14.3867	-41.4341	52.9514
14.38851	-49.1588	52.9709
14.3899	-42.9788	52.9905
14.39256	-45.0439	53.01001
14.3927	-49.0517	53.0295
14.39518	-46.8372	53.0491
14.3962	-39.125	53.0686
14.3985	-48.3277	53.0881
14.4011	-48.969	53.1077
14.4005	-42.3101	53.1272
14.4027	-45.6476	53.1467
14.405	-47.7182	53.16626
14.4068	-41.3893	53.1858
14.4083	-42.7714	53.2053
14.4096	-52.9024	53.2249
14.41102	-41.0202	53.2444
14.413	-44.2753	53.2639
14.4145	-51.5899	53.2834
14.41535	-43.8903	53.303
14.4184	-38.6684	53.32251
14.4194	-52.3021	53.342
14.4211	-46.38232	53.3616
14.4218	-41.3706	53.3811
14.42496	-47.3093	53.4006
14.4262	-47.0882	53.4202
14.4275	-38.5357	53.4397
14.4287	-50.5656	53.4592
14.4309	-49.46685	53.47876
14.4321	-41.2475	53.4983
14.434	-45.3468	53.5178
14.4362	-49.9423	53.5374
14.4372	-41.1042	53.5569
14.4389	-45.026	53.5764
14.4411	-48.9722	53.5959
14.442	-46.1744	53.6155
14.4431	-42.2455	53.63501
14.4452	-48.4545	53.6545
14.44751	-44.0585	53.6741
14.4486	-42.1055	53.6936
14.451	-48.966	53.7131
14.453	-48.9322	53.7327
14.4539	-38.7567	53.7522
14.4554	-46.0319	53.7717
14.4567	-52.8277	53.79126
14.4578	-41.383	53.8108
14.4598	-44.4769	53.8303
14.4618	-50.3192	53.8499
14.4638	-42.888	53.8694
14.4659	-41.5565	53.8889
14.4669	-53.0074	53.9084
14.4689	-43.6701	53.928
14.4704	-42.4386	53.94751
14.4709	-50.9276	53.967
14.4728	-47.2861	53.9866
14.4733	-38.30138	54.0061
14.47566	-52.8291	54.0256
14.4779	-47.1076	54.0452
14.4792	-41.3139	54.0647
14.4808	-48.0831	54.0842
14.4839	-46.1635	54.10376
14.4864	-38.4377	54.1233
14.4859	-47.5883	54.1428
14.4878	-49.0746	54.1624
14.4892	-42.19508	54.1819
14.4914	-41.4342	54.2014
14.4923	-51.1239	54.2209
14.496	-43.6295	54.2405
14.4953	-44.44809	54.26001
14.4976	-48.5157	54.2795
14.4993	-46.3376	54.2991
14.5004	-40.4362	54.3186
14.5025	-48.5184	54.3381
14.505	-48.6993	54.3577
14.5063	-41.5607	54.3772
14.5072	-47.4087	54.3967
14.5082	-49.00906	54.41626
14.5104	-40.9218	54.4358
14.5117	-42.6695	54.4553
14.5139	-53.502	54.4749
14.515	-43.6688	54.4944
14.517	-44.8688	54.5139
14.5185	-50.3808	54.5334
14.52	-44.7326	54.553
14.52088	-40.9582	54.57251
14.5239	-54.0945	54.592
14.525	-45.1315	54.6116
14.5274	-41.6564	54.6311
14.5278	-49.7507	54.6506
14.5295	-48.3413	54.6702
14.5314	-38.9705	54.6897
14.533	-48.8487	54.7092
14.5355	-50.0046	54.72876
14.5365	-42.8395	54.7483
14.537	-45.7028	54.7678
14.539	-52.0801	54.7874
14.5419	-41.7663	54.8069
14.5417	-47.6776	54.8264
14.5451	-51.3702	54.8459
14.5461	-43.6763	54.8655