File: data/processed_data_files/tensile/0.254_hd_dimension_typei_4545_r(2).dat
MTS793|BTW|ENU|1|2|.|/|:|1|0|0|A

Data Header:			0.254_hd_dimension_typei_4545_r0			Time:	20.0286	s	4/15/2019 3:09:38 PM
Data Acquisition:	Timed
Station Name:	ft40.cfg
Test File Name:	monotonic_0.2540_typei_hd_4545_dimension.tst
Displacement	Force	Running Time
mm	N	s
9.98131	-129.0585	0.0319824
9.98046	-123.9135	0.0515137
9.98106	-129.261	0.0710449
9.98323	-131.162	0.0905762
9.98367	-127.38	0.110107
9.9854	-122.82	0.129639
9.98789	-129.9724	0.14917
9.99016	-121.497	0.168701
9.99145	-119.183	0.188232
9.9924	-125.817	0.207764
9.99561	-123.493	0.227295
9.99625	-114.5566	0.246826
9.99722	-124.338	0.266357
9.99894	-124.229	0.285889
10.0008	-112.642	0.30542
10.0016	-120.319	0.324951
10.0038	-120.136	0.344482
10.0056	-111.957	0.364014
10.0066	-116.323	0.383545
10.0091	-118.255	0.403076
10.0114	-105.915	0.422607
10.012	-111.318	0.442139
10.0137	-116.832	0.46167
10.015	-109.302	0.481201
10.016	-105.4456	0.500732
10.0185	-114.07	0.520264
10.0201	-105.799	0.539795
10.022	-104.284	0.559326
10.0234	-105.913	0.578857
10.0251	-107.302	0.598389
10.0275	-98.792	0.61792
10.0276	-104.611	0.637451
10.0294	-103.786	0.656982
10.0314	-99.7404	0.676514
10.0335	-98.74807	0.696045
10.0351	-106.1351	0.715576
10.0369	-95.6	0.735107
10.0375	-94.5585	0.754639
10.0395	-100.049	0.77417
10.04186	-97.2699	0.793701
10.0424	-89.8311	0.813232
10.0444	-99.4799	0.832764
10.0463	-92.2158	0.852295
10.0474	-87.5476	0.871826
10.0501	-95.6593	0.891357
10.0513	-95.4487	0.910889
10.0525	-82.8251	0.93042
10.05403	-92.8111	0.949951
10.0566	-95.1957	0.969482
10.0588	-82.4262	0.989014
10.0589	-84.8475	1.00854
10.06049	-90.3366	1.02808
10.0625	-82.07933	1.04761
10.0636	-82.2503	1.06714
10.0667	-88.7308	1.08667
10.0688	-77.7733	1.1062
10.0695	-77.3657	1.12573
10.0706	-85.753	1.14526
10.0716	-80.7432	1.16479
10.0735	-74.2131	1.18433
10.075	-81.558	1.20386
10.0776	-76.95137	1.22339
10.078	-73.8849	1.24292
10.0809	-74.9156	1.26245
10.0815	-79.18602	1.28198
10.0842	-66.58036	1.30151
10.0849	-72.2296	1.32104
10.0861	-74.5204	1.34058
10.0891	-68.3437	1.36011
10.09	-64.3185	1.37964
10.0915	-76.1334	1.39917
10.0942	-66.5881	1.4187
10.094	-63.1479	1.43823
10.097	-68.7581	1.45776
10.0977	-66.883	1.47729
10.10032	-56.03	1.49683
10.1022	-68.2979	1.51636
10.1027	-64.9894	1.53589
10.1045	-53.9277	1.55542
10.1067	-61.2074	1.57495
10.1073	-66.4298	1.59448
10.1093	-52.7513	1.61401
10.1114	-57.9377	1.63354
10.113	-62.5965	1.65308
10.114	-52.1356	1.67261
10.1157	-54.0018	1.69214
10.1176	-59.8626	1.71167
10.1186	-49.9672	1.7312
10.1207	-46.68005	1.75073
10.1233	-59.1242	1.77026
10.1246	-48.6864	1.78979
10.1258	-45.9688	1.80933
10.1277	-52.3224	1.82886
10.1286	-51.3712	1.84839
10.1303	-41.9542	1.86792
10.1325	-47.5715	1.88745
10.1341	-46.9725	1.90698
10.1349	-42.3057	1.92651
10.1373	-42.77626	1.94604
10.1395	-48.334	1.96558
10.1409	-36.2474	1.98511
10.1431	-36.3564	2.00464
10.1438	-42.1141	2.02417
10.14521	-40.3006	2.0437
10.1472	-32.4394	2.06323
10.148	-42.4366	2.08276
10.1511	-35.6053	2.10229
10.1513	-31.5536	2.12183
10.1534	-36.1758	2.14136
10.1552	-36.4819	2.16089
10.1568	-26.1458	2.18042
10.1584	-35.98	2.19995
10.1604	-33.7502	2.21948
10.1618	-23.5008	2.23901
10.1636	-26.19071	2.25854
10.1656	-36.6964	2.27808
10.1664	-23.7827	2.29761
10.1681	-22.9314	2.31714
10.1697	-30.7508	2.33667
10.1719	-21.536	2.3562
10.1727	-21.6589	2.37573
10.1746	-28.625	2.39526
10.1766	-22.173	2.41479
10.1784	-15.5457	2.43433
10.1801	-23.8429	2.45386
10.1808	-20.1955	2.47339
10.1831	-14.2708	2.49292
10.1841	-18.2013	2.51245
10.1862	-21.1092	2.53198
10.1874	-12.008	2.55151
10.1891	-15.0803	2.57104
10.19059	-16.5933	2.59058
10.192	-11.8714	2.61011
10.1949	-8.67671	2.62964
10.1948	-18.7514	2.64917
10.1982	-6.8751	2.6687
10.1992	-3.74108	2.68823
10.2001	-10.1705	2.70776
10.2029	-10.2798	2.72729
10.2039	-0.966677	2.74683
10.2062	-9.34051	2.76636
10.2072	-7.15265	2.78589
10.2086	2.37643	2.80542
10.2106	-4.3353	2.82495
10.2121	-8.87883	2.84448
10.2139	6.71259	2.86401
10.2153	0.0527659	2.88354
10.2163	-5.60995	2.90308
10.2184	6.66643	2.92261
10.2206	6.35713	2.94214
10.2216	-2.894465	2.96167
10.2238	6.44872	2.9812
10.2261	7.7208	3.00073
10.2279	1.48553	3.02026
10.2277	10.258	3.03979
10.2295	12.6354	3.05933
10.2322	4.03773	3.07886
10.2334	8.88908	3.09839
10.234	18.3342	3.11792
10.2361	10.3006	3.13745
10.2383	9.70005	3.15698
10.2394	17.0419	3.17651
10.2415	15.7664	3.19604
10.24297	10.0708	3.21558
10.2451	20.2715	3.23511
10.2458	20.0671	3.25464
10.2483	16.3269	3.27417
10.2488	18.9975	3.2937
10.2515	28.4225	3.31323
10.2538	15.6631	3.33276
10.25435	21.5102	3.35229
10.2557	28.7532	3.37183
10.2573	23.6182	3.39136
10.2592	19.2394	3.41089
10.261	31.536	3.43042
10.2627	24.2835	3.44995
10.2637	25.2309	3.46948
10.2667	34.4973	3.48901
10.2662	30.22525	3.50854
10.2696	21.4859	3.52808
10.2707	37.6221	3.54761
10.2721	33.7822	3.56714
10.2727	26.9675	3.58667
10.2756	36.36182	3.6062
10.27681	38.69949	3.62573
10.2787	29.6245	3.64526
10.2793	38.03046	3.66479
10.2823	41.0192	3.68433
10.2845	33.1204	3.70386
10.28545	38.1371	3.72339
10.2873	46.7719	3.74292
10.2887	39.6598	3.76245
10.29	38.2961	3.78198
10.2919	48.8331	3.80151
10.293	44.6602	3.82104
10.2955	43.42675	3.84058
10.2974	49.5944	3.86011
10.2987	49.9135	3.87964
10.3001	41.5327	3.89917
10.3014	51.41468	3.9187
10.3031	54.7787	3.93823
10.3044	47.44706	3.95776
10.3059	49.2033	3.97729
10.3079	61.6822	3.99683
10.30898	48.874	4.01636
10.3112	53.2791	4.03589
10.3138	60.4156	4.05542
10.3146	56.8804	4.07495
10.3149	52.2109	4.09448
10.3174	63.9478	4.11401
10.3203	58.8009	4.13354
10.3206	55.4834	4.15308
10.3225	67.2123	4.17261
10.3239	65.7778	4.19214
10.3256	56.06781	4.21167
10.3279	66.5466	4.2312
10.3288	68.3412	4.25073
10.3316	61.6862	4.27026
10.3315	65.8042	4.28979
10.3339	74.1166	4.30933
10.3362	62.4856	4.32886
10.338	67.1168	4.34839
10.33936	76.0549	4.36792
10.3393	67.419	4.38745
10.3425	68.8917	4.40698
10.3437	79.6483	4.42651
10.3444	74.5388	4.44604
10.3463	69.9185	4.46558
10.34874	78.0354	4.48511
10.35	79.47554	4.50464
10.3521	73.6667	4.52417
10.3544	79.0072	4.5437
10.3544	82.8888	4.56323
10.3563	73.94	4.58276
10.3589	82.9502	4.60229
10.3597	86.79525	4.62183
10.3612	82.1047	4.64136
10.3631	78.4397	4.66089
10.3648	91.00489	4.68042
10.3668	84.1205	4.69995
10.3699	83.3756	4.71948
10.3693	92.3035	4.73901
10.3722	90.5273	4.75854
10.3737	81.4714	4.77808
10.374	96.2329	4.79761
10.3763	91.3466	4.81714
10.3779	86.8211	4.83667
10.3795	96.7095	4.8562
10.381	101.3364	4.87573
10.3821	87.0205	4.89526
10.3848	97.9836	4.91479
10.3857	101.031	4.93433
10.388	95.2208	4.95386
10.3889	96.7215	4.97339
10.3912	106.108	4.99292
10.3918	96.2543	5.01245
10.3931	98.18	5.03198
10.3958	108.466	5.05151
10.398	102.763	5.07104
10.3993	98.6825	5.09058
10.40053	107.5399	5.11011
10.4024	108.636	5.12964
10.4041	102.263	5.14917
10.4051	109.234	5.1687
10.4078	111.9542	5.18823
10.40935	107.733	5.20776
10.4105	109.447	5.22729
10.4129	116.931	5.24683
10.4142	107.6819	5.26636
10.4151	109.685	5.28589
10.4173	121.022	5.30542
10.4197	115.975	5.32495
10.42023	108.877	5.34448
10.42176	122.826	5.36401
10.4239	117.24	5.38354
10.42524	115.005	5.40308
10.4261	124.634	5.42261
10.4281	125.597	5.44214
10.4301	115.167	5.46167
10.432	127.795	5.4812
10.4326	125.818	5.50073
10.4348	119.132	5.52026
10.4365	125.222	5.53979
10.4377	132.42	5.55933
10.4398	122.9925	5.57886
10.4415	128.5014	5.59839
10.4429	133.157	5.61792
10.4456	128.126	5.63745
10.4457	128.329	5.65698
10.4477	138.148	5.67651
10.4497	130.289	5.69604
10.4507	130.948	5.71558
10.4529	139.455	5.73511
10.4549	137.3642	5.75464
10.4563	132.254	5.77417
10.4576	138.932	5.7937
10.4596	142.8268	5.81323
10.4606	135.82	5.83276
10.4627	139.853	5.85229
10.4641	146.338	5.87183
10.4657	140.424	5.89136
10.468	140.54	5.91089
10.4685	150.299	5.93042
10.4705	142.677	5.94995
10.4731	141.974	5.96948
10.4744	152.658	5.98901
10.4752	149.663	6.00854
10.4767	142.33	6.02808
10.4791	153.679	6.04761
10.4805	151.059	6.06714
10.48113	146.406	6.08667
10.483	155.964	6.1062
10.4848	159.2733	6.12573
10.4869	146.012	6.14526
10.48862	156.534	6.16479
10.49036	160.5173	6.18433
10.4922	153.023	6.20386
10.4934	155.546	6.22339
10.4957	167.153	6.24292
10.4973	155.598	6.26245
10.4986	161.04	6.28198
10.5007	164.165	6.30151
10.501	161.318	6.32104
10.5031	158.655	6.34058
10.5048	168.802	6.36011
10.5063	164.717	6.37964
10.5081	160.695	6.39917
10.5093	167.49	6.4187
10.5105	171.98	6.43823
10.5136	166.614	6.45776
10.515	168.4809	6.47729
10.5164	176.783	6.49683
10.5184	169.7157	6.51636
10.5189	170.876	6.53589
10.5208	177.842	6.55542
10.5234	173.868	6.57495
10.5244	170.496	6.59448
10.5271	180.738	6.61401
10.5269	177.198	6.63354
10.5292	172.316	6.65308
10.531	181.7597	6.67261
10.5333	184.42	6.69214
10.5336	174.451	6.71167
10.5358	185.536	6.7312
10.5367	184.336	6.75073
10.5396	178.373	6.77026
10.5404	184.423	6.78979
10.5418	192.29	6.80933
10.5441	180.395	6.82886
10.5448	186.957	6.84839
10.5478	193.599	6.86792
10.5486	189.7014	6.88745
10.5502	186.177	6.90698
10.5522	197.165	6.92651
10.5544	189.414	6.94604
10.5555	189.609	6.96558
10.5564	196.756	6.98511
10.5603	195.269	7.00464
10.5585	189.667	7.02417
10.56217	198.255	7.0437
10.5626	199.786	7.06323
10.5651	194.781	7.08276
10.5671	199.051	7.10229
10.5685	204.441	7.12183
10.5701	199.223	7.14136
10.571	199.547	7.16089
10.5734	207.172	7.18042
10.5745	201.497	7.19995
10.5772	201.902	7.21948
10.5781	208.743	7.23901
10.5797	207.829	7.25854
10.581	200.327	7.27808
10.5832	210.711	7.29761
10.5845	211.745	7.31714
10.5857	204.698	7.33667
10.5885	211.451	7.3562
10.5887	216.351	7.37573
10.5922	206.0264	7.39526
10.59221	213.748	7.41479
10.5946	218.775	7.43433
10.596	210.537	7.45386
10.5988	214.184	7.47339
10.5988	225.433	7.49292
10.601	214.351	7.51245
10.603	215.611	7.53198
10.6035	222.516	7.55151
10.6057	221.077	7.57104
10.6072	216.863	7.59058
10.6086	227.645	7.61011
10.61105	222.2972	7.62964
10.6127	219.037	7.64917
10.6136	226.394	7.6687
10.6155	231.843	7.68823
10.6176	221.6207	7.70776
10.6191	227.215	7.72729
10.6204	232.833	7.74683
10.6227	228.82	7.76636
10.6244	225.854	7.78589
10.6251	236.069	7.80542
10.627	231.005	7.82495
10.6282	230.818	7.84448
10.6302	238.739	7.86401
10.6315	236.657	7.88354
10.6327	231.5368	7.90308
10.6339	240.199	7.92261
10.6368	243.105	7.94214
10.6386	231.721	7.96167
10.6399	240.854	7.9812
10.642	245.66	8.00073
10.6435	238.895	8.02026
10.6447	243.063	8.03979
10.6462	249.795	8.05933
10.6488	239.423	8.07886
10.649	243.531	8.09839
10.6514	252.55	8.11792
10.6525	244.892	8.13745
10.6542	242.778	8.15698
10.6565	256.45	8.17651
10.6575	248.89	8.19604
10.6607	246.324	8.21558
10.6613	252.881	8.23511
10.6624	254.796	8.25464
10.66515	248.717	8.27417
10.6659	258.539	8.2937
10.6675	256.916	8.31323
10.669	252.528	8.33276
10.6705	254.85	8.35229
10.6724	264.369	8.37183
10.6732	255.183	8.39136
10.6753	258.239	8.41089
10.6765	264.848	8.43042
10.67952	259.961	8.44995
10.6815	257.752	8.46948
10.6815	269.439	8.48901
10.6838	264.922	8.50854
10.6854	259.874	8.52808
10.6881	268.705	8.54761
10.689	269.293	8.56714
10.6909	260.44	8.58667
10.6914	269.131	8.6062
10.6943	276.713	8.62573
10.696	264.701	8.64526
10.6966	269.712	8.66479
10.6991	275.082	8.68433
10.6998	270.468	8.70386
10.7012	271.871	8.72339
10.7037	283.85	8.74292
10.7056	272.919	8.76245
10.7062	272.591	8.78198
10.7085	283.532	8.80151
10.7099	279.6026	8.82104
10.711	274.318	8.84058
10.7125	285.987	8.86011
10.7154	280.995	8.87964
10.71565	278.61	8.89917
10.718	284.675	8.9187
10.7195	288.489	8.93823
10.7211	280.169	8.95776
10.7221	288.2937	8.97729
10.7248	291.14	8.99683
10.7277	285.423	9.01636
10.7279	281.985	9.03589
10.7298	295.091	9.05542
10.7304	289.682	9.07495
10.7321	289.972	9.09448
10.7345	294.072	9.11401
10.7351	293.8	9.13354
10.7373	287.167	9.15308
10.7386	298.125	9.17261
10.7406	299.785	9.19214
10.7427	289.94	9.21167
10.7441	297.336	9.2312
10.7459	304.1969	9.25073
10.7475	292.373	9.27026
10.7485	297.5799	9.28979
10.7502	307.614	9.30933
10.7525	298.926	9.32886
10.7541	298.1282	9.34839
10.7555	309.273	9.36792
10.7564	303.444	9.38745
10.759	300.11	9.40698
10.7604	315.242	9.42651
10.76199	306.215	9.44604
10.7646	300.654	9.46558
10.7648	312.7345	9.48511
10.76652	314.9	9.50464
10.7677	304.549	9.52417
10.7692	315.179	9.5437
10.7707	314.118	9.56323
10.77354	308.635	9.58276
10.7757	313.512	9.60229
10.7766	321.702	9.62183
10.7789	311.592	9.64136
10.7799	316.156	9.66089
10.7809	321.6561	9.68042
10.7826	319.405	9.69995
10.7846	313.303	9.71948
10.786	324.478	9.73901
10.78777	321.71	9.75854
10.7899	318.187	9.77808
10.791	323.801	9.79761
10.7938	327.211	9.81714
10.7951	317.541	9.83667
10.7948	327.019	9.8562
10.7974	332.167	9.87573
10.7997	321.005	9.89526
10.8017	325.131	9.91479
10.80286	336.215	9.93433
10.8045	324.8569	9.95386
10.8055	327.126	9.97339
10.8082	338.669	9.99292
10.809	329.668	10.0125
10.8109	328.155	10.032
10.8125	339.697	10.0515
10.8144	334.8851	10.071
10.8153	327.398	10.0906
10.8175	341.9931	10.1101
10.8189	339.746	10.1296
10.8198	331.704	10.14917
10.8228	339.119	10.1687
10.8237	345.256	10.1882
10.8253	335.137	10.2078
10.82693	343.911	10.2273
10.8284	344.819	10.2468
10.8295	339.435	10.2664
10.8323	341.796	10.2859
10.83222	353.071	10.30542
10.83507	345.539	10.325
10.837	343.855	10.3445
10.839	351.815	10.364
10.8394	352.192	10.3835
10.842	342.138	10.4031
10.8442	354.762	10.4226
10.8442	353.443	10.4421
10.8477	347.756	10.46167
10.849	354.706	10.4812
10.8504	362.194	10.5007
10.8516	347.311	10.5203
10.85311	355.284	10.5398
10.8552	364.666	10.5593
10.857	355.672	10.5789
10.8579	353.202	10.5984
10.8589	365.931	10.61792
10.8603	356.355	10.6375
10.8627	359.007	10.657
10.8641	368.238	10.6765
10.86641	362.869	10.696
10.8678	356.4921	10.7156
10.8691	369.323	10.7351
10.871	367.0462	10.7546
10.8729	358.187	10.77417
10.8746	370.106	10.7937
10.8757	372.598	10.8132
10.8776	362.997	10.8328
10.87909	368.76	10.8523
10.8806	376.151	10.8718
10.8817	367.0177	10.8914
10.8842	371.867	10.9109
10.8863	378.233	10.93042
10.888	372.226	10.95
10.8892	368.184	10.9695
10.8901	382.722	10.989
10.8921	378.329	11.0085
10.8931	373.582	11.0281
10.8959	379.445	11.0476
10.8981	383.984	11.0671
10.8983	372.585	11.08667
10.90028	384.496	11.1062
10.9022	386.846	11.1257
10.903	377.767	11.1453
10.9055	382.39	11.1648
10.90631	394.176	11.1843
10.9086	378.868	11.2039
10.9107	383.052	11.2234
10.9114	394.969	11.24292
10.9134	387.548	11.2625
10.9143	382.69	11.282
10.9167	398.402	11.3015
10.9176	391.293	11.321
10.9204	385.844	11.3406
10.921	398.017	11.3601
10.9226	397.492	11.3796
10.92463	385.912	11.39917
10.9265	399.487	11.4187
10.9282	400.464	11.4382
10.9288	390.205	11.4578
10.9317	396.931	11.4773
10.9319	403.249	11.4968
10.9349	395.887	11.5164
10.9361	398.2966	11.5359
10.93778	406.9321	11.55542
10.9396	398.3591	11.575
10.9411	400.051	11.5945
10.9421	409.082	11.614
10.94424	406.232	11.6335
10.9456	398.159	11.6531
10.9473	411.323	11.6726
10.9486	410.9053	11.6921
10.9507	404.035	11.71167
10.952	408.501	11.7312
10.95449	415.971	11.7507
10.9556	402.942	11.7703
10.95792	412.3981	11.7898
10.9582	419.312	11.8093
10.9608	409.757	11.8289
10.9615	409.17	11.8484
10.96357	424.069	11.86792
10.9655	413.488	11.8875
10.9677	412.007	11.907
10.9681	422.974	11.9265
10.9696	419.709	11.946
10.9724	410.375	11.9656
10.9736	424.458	11.9851
10.9745	422.669	12.0046
10.9759	412.506	12.02417
10.9783	425.349	12.0437
10.98	430.386	12.0632
10.98166	416.535	12.0828
10.9841	424.939	12.1023
10.9862	431.539	12.1218
10.986	421.677	12.1414
10.9881	426.114	12.1609
10.9899	432.138	12.18042
10.9917	426.97	12.2
10.9935	425.232	12.2195
10.994	437.8237	12.239
10.9949	432.835	12.2585
10.9974	426.907	12.2781
10.9991	436.216	12.2976
11.00185	437.666	12.3171
11.0021	426.582	12.33667
11.0046	438.192	12.3562
11.0063	441.594	12.3757
11.0072	432.675	12.3953
11.0094	435.137	12.4148
11.0103	445.945	12.4343
11.0125	433.89	12.4539
11.0136	439.619	12.4734
11.0158	449.422	12.49292
11.0172	441.621	12.5125
11.018	435.381	12.532
11.021	452.9552	12.5515
11.0227	446.1297	12.571
11.0235	440.008	12.5906
11.0257	451.871	12.6101
11.02682	451.273	12.6296
11.0296	440.703	12.64917
11.0303	455.011	12.6687
11.032	454.4	12.6882
11.0348	443.663	12.7078
11.0364	451.4263	12.7273
11.0367	459.993	12.7468
11.0377	447.943	12.7664
11.0398	450.865	12.7859
11.0417	461.029	12.80542
11.0439	453.7052	12.825
11.0446	455.4306	12.8445
11.0469	464.498	12.864
11.04745	457.686	12.8835
11.0493	453.258	12.9031
11.0518	465.703	12.9226
11.0531	462.94	12.9421
11.0552	455.414	12.96167
11.056	462.117	12.9812
11.0584	469.132	13.0007
11.0607	457.784	13.0203
11.0615	465.199	13.0398
11.0625	470.963	13.0593
11.06535	463.132	13.0789
11.0653	464.1925	13.0984
11.0685	477.876	13.11792
11.0692	466.271	13.1375
11.0718	465.354	13.157
11.0727	478.78	13.1765
11.0739	475.187	13.196
11.0758	463.74	13.2156
11.0769	478.563	13.2351
11.0795	474.387	13.2546
11.0808	470.66	13.27417
11.0816	479.756	13.2937
11.0849	483.827	13.3132
11.0854	468.836	13.3328
11.08745	480.147	13.3523
11.08929	485.021	13.3718
11.0911	475.284	13.3914
11.0923	477.093	13.4109
11.0938	488.853	13.43042
11.0941	479.159	13.45
11.0963	479.902	13.4695
11.0981	488.997	13.489
11.1	483.618	13.5085
11.1017	481.654	13.5281
11.1039	491.87	13.5476
11.1052	489.301	13.5671
11.1073	481.377	13.58667
11.1089	491.472	13.6062
11.11	494.684	13.6257
11.1117	486.124	13.6453
11.1125	490.765	13.6648
11.1147	499.336	13.6843
11.1168	489.258	13.7039
11.1198	491.352	13.7234
11.1207	502.538	13.74292
11.122	494.982	13.7625
11.1236	490.368	13.782
11.12524	505.219	13.8015
11.12633	497.763	13.821
11.1275	492.782	13.8406
11.1296	504.778	13.8601
11.1313	506.022	13.8796
11.1323	492.627	13.89917
11.1343	507.154	13.9187
11.1356	507.007	13.9382
11.1373	499.612	13.9578
11.1396	506.336	13.9773
11.1419	514.454	13.9968
11.143	499.083	14.0164
11.14428	506.701	14.0359
11.1459	514.269	14.05542
11.1471	508.382	14.075
11.1496	505.902	14.0945
11.151	517.284	14.114
11.1528	509.179	14.1335
11.1546	506.968	14.1531
11.1562	515.721	14.1726
11.1573	515.789	14.1921
11.1593	507.9288	14.21167
11.16193	517.897	14.2312
11.1611	520.303	14.2507
11.1635	509.69	14.2703
11.1652	515.097	14.2898
11.1669	524.92	14.3093
11.1692	517.381	14.3289
11.171	517.06	14.3484
11.1709	525.688	14.36792
11.1732	516.83	14.3875
11.17398	518.186	14.407
11.1769	528.566	14.4265
11.1785	524.88	14.446
11.1806	515.651	14.4656
11.1822	530.889	14.4851
11.1833	528.698	14.5046
11.18462	519.821	14.52417
11.1858	528.798	14.5437
11.18784	535.782	14.5632
11.1901	521.6037	14.5828
11.1916	531.266	14.6023
11.1933	535.8468	14.6218
11.1952	527.396	14.6414
11.1958	530.354	14.6609
11.1987	543.235	14.68042
11.19943	529.933	14.7
11.2007	530.575	14.7195
11.2027	540.573	14.739
11.2039	537.715	14.7585
11.2054	531.539	14.7781
11.2071	543.347	14.7976
11.2103	539.801	14.8171
11.2113	533.758	14.83667
11.21337	542.032	14.8562
11.2144	547.0434	14.8757
11.2152	537.656	14.8953
11.2171	542.565	14.9148
11.2187	547.421	14.9343
11.2207	541.458	14.9539
11.2229	542.296	14.9734
11.22502	550.092	14.99292
11.22564	546.891	15.0125
11.2276	542.589	15.032
11.2297	553.184	15.0515
11.2307	548.619	15.071
11.2323	543.079	15.0906
11.235	554.898	15.1101
11.2355	557.382	15.1296
11.2367	543.056	15.14917
11.2386	555.1756	15.1687
11.2404	556.935	15.1882
11.2422	549.321	15.2078
11.2438	556.071	15.2273
11.2448	562.277	15.2468
11.2461	549.495	15.2664
11.2488	557.403	15.2859
11.2504	565.24	15.30542
11.2518	556.4519	15.325
11.2544	555.325	15.3445
11.2551	568.289	15.364
11.2569	559.242	15.3835
11.2581	556.267	15.4031
11.2598	566.117	15.4226
11.263	566.0824	15.4421
11.2623	558.3	15.46167
11.2654	568.992	15.4812
11.26579	569.54	15.5007
11.26816	559.889	15.5203
11.269	566.817	15.5398
11.2707	574.409	15.5593
11.2723	565.261	15.5789
11.2741	567.0777	15.5984
11.2759	575.449	15.61792
11.278	569.94	15.6375
11.2797	567.359	15.657
11.2805	576.221	15.6765
11.2824	574.217	15.696
11.2845	566.9	15.7156
11.2861	578.204	15.7351
11.2871	579.402	15.7546
11.289	570.453	15.77417
11.2907	579.174	15.7937
11.2926	585.507	15.8132
11.2935	571.504	15.8328
11.2952	580.809	15.8523
11.2967	583.865	15.8718
11.29944	577.362	15.8914
11.3004	579.68	15.9109
11.3017	591.5058	15.93042
11.3029	576.977	15.95
11.3049	581.121	15.9695
11.3063	589.265	15.989
11.3086	587.8905	16.0085
11.31	579.477	16.0281
11.3128	593.832	16.0476
11.3137	587.587	16.0671
11.3131	583.572	16.08667
11.3166	590.446	16.1062
11.31781	595.422	16.1257
11.32	585.869	16.1453
11.322	593.205	16.1648
11.3228	596.396	16.1843
11.326	589.391	16.2039
11.3263	588.255	16.2234
11.328	601.588	16.24292
11.3299	594.18	16.2625
11.331	590.308	16.282
11.33322	601.146	16.3015
11.335	599.336	16.321
11.3362	592.461	16.3406
11.3378	602.771	16.3601
11.3387	603.624	16.3796
11.3415	592.008	16.39917
11.3431	603.2356	16.4187
11.3449	606.9325	16.4382
11.34598	596.169	16.4578
11.3471	602.034	16.4773
11.3493	613.937	16.4968
11.3507	600.847	16.5164
11.3521	604.083	16.5359
11.3545	610.9787	16.55542
11.357	606.048	16.575
11.3571	604.5351	16.5945
11.3589	618.136	16.614
11.3608	608.212	16.6335
11.3626	605.843	16.6531
11.3641	613.919	16.6726
11.3659	615.11	16.6921
11.3665	607.767	16.71167
11.3689	616.537	16.7312
11.36973	616.926	16.7507
11.3717	611.754	16.7703
11.3734	614.245	16.7898
11.3756	623.057	16.8093
11.37781	613.037	16.8289
11.3776	615.683	16.8484
11.37974	624.021	16.86792
11.3825	618.112	16.8875
11.3833	613.908	16.907
11.3849	626.345	16.9265
11.3861	624.424	16.946
11.3878	616.051	16.9656
11.3897	625.427	16.9851
11.391	627.111	17.0046
11.3932	617.827	17.02417
11.3941	626.572	17.0437
11.3965	633.204	17.0632
11.398	618.034	17.0828
11.3996	627.266	17.1023
11.4013	634.1344	17.1218
11.4033	626.682	17.1414
11.4033	625.1618	17.1609
11.4059	638.072	17.18042
11.40643	628.122	17.2
11.40992	629.938	17.2195
11.4119	637.411	17.239
11.4128	632.24	17.2585
11.4136	628.776	17.2781
11.4157	641.803	17.2976
11.41733	637.003	17.3171
11.4184	630.9054	17.33667
11.4202	637.632	17.3562
11.423	643.679	17.3757
11.4233	634.5271	17.3953
11.425	639.376	17.4148
11.42775	644.101	17.4343
11.4289	639.21	17.4539
11.4316	639.206	17.4734
11.4325	649.252	17.49292
11.4344	641.064	17.5125
11.4358	640.364	17.532
11.4367	648.906	17.5515
11.4394	647.202	17.571
11.4404	638.797	17.5906
11.4422	649.266	17.6101
11.44344	651.142	17.6296
11.4454	642.367	17.64917
11.447	648.055	17.6687
11.4485	653.334	17.6882
11.4504	642.19	17.7078
11.45123	649.807	17.7273
11.455	659.736	17.7468
11.45528	647.266	17.7664
11.4565	650.469	17.7859
11.4581	660.4	17.80542
11.4608	652.884	17.825
11.4616	650.303	17.8445
11.4631	662.5824	17.864
11.4654	655.107	17.8835
11.4665	654.096	17.9031
11.4677	662.21	17.9226
11.4692	661.647	17.9421
11.47077	653.332	17.96167
11.4723	665.48	17.9812
11.475	665.605	18.0007
11.4757	657.866	18.0203
11.4773	661.631	18.0398
11.4797	668.681	18.0593
11.4813	660.739	18.0789
11.4822	664.253	18.0984
11.4837	670.297	18.11792
11.4861	665.363	18.1375
11.4879	661.8	18.157
11.4893	674.69	18.1765
11.4905	668.628	18.196
11.4917	663.987	18.2156
11.494	671.9704	18.2351
11.4959	673.842	18.2546
11.4968	665.018	18.27417
11.4992	674.145	18.2937
11.5007	677.612	18.3132
11.5023	667.251	18.3328
11.5044	671.958	18.3523
11.5052	681.559	18.3718
11.5063	669.936	18.3914
11.5092	672.855	18.4109
11.51068	684.715	18.43042
11.5128	675.45	18.45
11.5131	672.339	18.4695
11.5166	683.6618	18.489
11.5175	677.698	18.5085
11.5177	674.066	18.5281
11.5194	688.091	18.5476
11.5222	681.634	18.5671
11.5239	676.174	18.58667
11.5247	685.9577	18.6062
11.52714	689.887	18.6257
11.528	679.101	18.6453
11.5302	685.978	18.6648
11.5315	691.076	18.6843
11.5332	683.779	18.7039
11.5344	683.909	18.7234
11.5364	694.573	18.74292
11.53863	688.04	18.7625
11.5403	687.155	18.782
11.5405	695.064	18.8015
11.5431	692.56	18.821
11.54401	683.401	18.8406
11.5469	697.588	18.8601
11.5472	697.914	18.8796
11.5492	689.1	18.89917
11.551	691.088	18.9187
11.5527	700.167	18.9382
11.5541	689.402	18.9578
11.556	696.742	18.9773
11.5576	704.579	18.9968
11.5586	693.029	19.0164
11.561	693.078	19.0359
11.5624	707.121	19.05542
11.5632	696.825	19.075
11.5656	693.815	19.0945
11.567	710.222	19.114
11.56941	700.136	19.1335
11.5699	696.284	19.1531
11.5713	706.691	19.1726
11.5737	704.946	19.1921
11.57565	696.999	19.21167
11.5778	710.239	19.2312
11.5787	709.078	19.2507
11.58019	701.053	19.2703
11.5817	706.711	19.2898
11.5832	715.255	19.3093
11.5854	704.758	19.3289
11.5871	708.191	19.3484
11.5878	713.184	19.36792
11.59	708.231	19.3875
11.5921	705.9754	19.407
11.5932	717.499	19.4265
11.596	712.08	19.446
11.596	707.32	19.4656
11.5986	715.701	19.4851
11.5989	720.442	19.5046
11.6013	705.6261	19.52417
11.6026	717.607	19.5437
11.6039	721.852	19.5632
11.607	713.051	19.5828
11.6077	714.587	19.6023
11.6095	725.121	19.6218
11.61125	713.223	19.6414
11.6135	717.747	19.6609
11.6142	728.3819	19.68042
11.616	717.684	19.7
11.61731	714.125	19.7195
11.6191	730.507	19.739
11.621	722.4328	19.7585
11.6217	716.6488	19.7781
11.6241	730.2851	19.7976
11.6264	726.162	19.8171
11.6267	717.5365	19.83667
11.6297	729.122	19.8562
11.6306	729.735	19.8757
11.6326	720.38	19.8953
11.6341	729.372	19.9148
11.6355	732.848	19.9343
11.6368	725.5274	19.9539
11.6389	726.584	19.9734
11.6402	738.22	19.99292
11.64257	729.548	20.0125
11.6427	725.638	20.0222

Data Header:			0.254_hd_dimension_typei_4545_r0			Time:	40.0276	s	4/15/2019 3:09:58 PM
Data Acquisition:	Timed
Station Name:	ft40.cfg
Test File Name:	monotonic_0.2540_typei_hd_4545_dimension.tst
Displacement	Force	Running Time
mm	N	s
11.6431	729.075	20.032
11.64527	736.934	20.0515
11.6469	733.907	20.071
11.6486	727.405	20.0906
11.6505	740.556	20.1101
11.6528	737.784	20.1296
11.6531	729.704	20.14917
11.6559	738.261	20.1687
11.6563	745.115	20.1882
11.6589	729.9563	20.2078
11.6601	737.72	20.2273
11.6621	746.567	20.2468
11.6627	737.794	20.2664
11.6649	736.1875	20.2859
11.6664	749.0376	20.30542
11.66805	738.742	20.325
11.6694	737.398	20.3445
11.6719	750.759	20.364
11.6725	744.474	20.3835
11.67473	736.131	20.4031
11.6773	748.948	20.4226
11.6783	748.772	20.4421
11.6802	740.921	20.46167
11.6817	749.312	20.4812
11.6831	749.809	20.5007
11.6838	738.686	20.5203
11.6861	748.822	20.5398
11.6878	755.029	20.5593
11.6898	743.069	20.5789
11.6915	748.153	20.5984
11.6923	755.067	20.61792
11.6947	750.798	20.6375
11.6953	746.199	20.657
11.6979	758.438	20.6765
11.6982	753.397	20.696
11.7009	752.159	20.7156
11.702	756.427	20.7351
11.7039	759.694	20.7546
11.705	747.374	20.77417
11.7075	759.371	20.7937
11.7091	763.42	20.8132
11.7105	752.6557	20.8328
11.7119	753.095	20.8523
11.7137	766.92	20.8718
11.7151	754.594	20.8914
11.7179	757.8	20.9109
11.7182	767.201	20.93042
11.7205	759.713	20.95
11.7222	754.153	20.9695
11.7228	771.009	20.989
11.7251	760.565	21.0085
11.72691	756.334	21.0281
11.7281	770.173	21.0476
11.7301	767.495	21.0671
11.7304	757.235	21.08667
11.7331	768.542	21.1062
11.7354	770.077	21.1257
11.73654	760.087	21.1453
11.7378	768.1886	21.1648
11.7406	774.904	21.1843
11.7395	762.568	21.2039
11.7431	767.298	21.2234
11.745	778.198	21.24292
11.7456	767.638	21.2625
11.7485	767.133	21.282
11.7493	776.157	21.3015
11.7512	773.963	21.321
11.7533	766.42	21.3406
11.7546	778.091	21.3601
11.7559	774.811	21.3796
11.7578	769.466	21.39917
11.7596	776.0755	21.4187
11.761	782.274	21.4382
11.7626	767.88	21.4578
11.7641	775.632	21.4773
11.7654	784.227	21.4968
11.7673	776.08	21.5164
11.76821	772.788	21.5359
11.7713	787.361	21.55542
11.773	778.456	21.575
11.7741	777.205	21.5945
11.7755	787.866	21.614
11.7778	781.883	21.6335
11.7784	772.945	21.6531
11.7805	788.864	21.6726
11.7817	785.688	21.6921
11.7844	776.87	21.71167
11.7859	785.187	21.7312
11.7864	790.777	21.7507
11.78931	779.623	21.7703
11.7896	787.05	21.7898
11.7912	792.7298	21.8093
11.7929	781.805	21.8289
11.7949	787.391	21.8484
11.79635	795.811	21.86792
11.7984	786.31	21.8875
11.8001	783.261	21.907
11.8016	796.089	21.9265
11.80299	791.722	21.946
11.80456	787.23	21.9656
11.8068	794.184	21.9851
11.8077	796.957	22.0046
11.8102	786.201	22.02417
11.8114	796.437	22.0437
11.8135	798.1	22.0632
11.8144	790.505	22.0828
11.816	794.214	22.1023
11.8173	803.781	22.1218
11.81977	791.05	22.1414
11.8209	793.602	22.1609
11.8227	803.64	22.18042
11.8236	797.913	22.2
11.8265	791.592	22.2195
11.8276	805.648	22.239
11.8292	798.2749	22.2585
11.8298	794.355	22.2781
11.833	806.446	22.2976
11.8346	806.852	22.3171
11.836	791.912	22.33667
11.83769	806.354	22.3562
11.8391	806.732	22.3757
11.83989	798.783	22.3953
11.8423	805.31	22.4148
11.844	811.944	22.4343
11.8447	800.358	22.4539
11.8483	804.459	22.4734
11.84874	812.5824	22.49292
11.8507	804.446	22.5125
11.8525	801.9411	22.532
11.8529	813.47	22.5515
11.8551	806.862	22.571
11.8579	801.45	22.5906
11.85954	813.393	22.6101
11.8611	812.913	22.6296
11.8613	806.3609	22.64917
11.8635	811.756	22.6687
11.8642	815.769	22.6882
11.866	805.759	22.7078
11.8681	814.551	22.7273
11.8701	819.749	22.7468
11.8712	811.924	22.7664
11.8737	810.402	22.7859
11.875	822.982	22.80542
11.8762	811.51	22.825
11.8787	811.719	22.8445
11.8799	821.092	22.864
11.88	818.591	22.8835
11.8836	810.723	22.9031
11.884	823.531	22.9226
11.8859	819.02	22.9421
11.8884	812.421	22.96167
11.8898	823.958	22.9812
11.8907	826.693	23.0007
11.8931	811.841	23.0203
11.8939	821.652	23.0398
11.896	826.796	23.0593
11.8977	818.188	23.0789
11.8994	820.086	23.0984
11.9011	829.561	23.11792
11.9024	820.028	23.1375
11.9037	819.5246	23.157
11.9059	830.661	23.1765
11.9073	825.283	23.196
11.9091	820.1474	23.2156
11.9112	830.467	23.2351
11.9131	828.883	23.2546
11.9139	820.385	23.27417
11.9164	829.853	23.2937
11.9172	831.963	23.3132
11.9189	824.6261	23.3328
11.9197	827.473	23.3523
11.9219	835.252	23.3718
11.9233	825.003	23.3914
11.9254	829.049	23.4109
11.9275	838.559	23.43042
11.9291	832.352	23.45
11.9304	823.434	23.4695
11.9318	840.013	23.489
11.9335	832.496	23.5085
11.9343	828.208	23.5281
11.9361	837.808	23.5476
11.938	837.81	23.5671
11.9398	825.901	23.58667
11.9416	840.901	23.6062
11.9427	839.273	23.6257
11.9436	830.619	23.6453
11.9461	836.786	23.6648
11.9485	844.931	23.6843
11.9506	829.48	23.7039
11.9502	835.258	23.7234
11.9521	842.671	23.74292
11.9549	836.77	23.7625
11.9568	835.323	23.782
11.9579	846.006	23.8015
11.9599	837.648	23.821
11.9616	836.159	23.8406
11.9632	845.614	23.8601
11.9647	845.085	23.8796
11.9654	836.841	23.89917
11.9686	844.7019	23.9187
11.96929	847.946	23.9382
11.97115	839.688	23.9578
11.9731	843.616	23.9773
11.9736	850.53	23.9968
11.9751	842.409	24.0164
11.9773	841.791	24.0359
11.9788	853.743	24.05542
11.9804	842.697	24.075
11.9832	842.124	24.0945
11.984	854.7525	24.114
11.9855	850.848	24.1335
11.988	838.746	24.1531
11.9889	852.721	24.1726
11.991	850.904	24.1921
11.9926	843.838	24.21167
11.9939	853.537	24.2312
11.9949	856.64	24.2507
11.9971	842.275	24.2703
11.9983	853.949	24.2898
12	857.04	24.3093
12.0012	846.685	24.3289
12.0042	849.854	24.3484
12.0055	861.761	24.36792
12.0061	849.729	24.3875
12.0091	850.338	24.407
12.0098	858.544	24.4265
12.0108	856.248	24.446
12.0138	852.388	24.4656
12.0143	861.511	24.4851
12.0163	857.525	24.5046
12.0181	851.18	24.52417
12.0192	859.748	24.5437
12.021	864.581	24.5632
12.0231	854.184	24.5828
12.0248	859.06	24.6023
12.0271	864.981	24.6218
12.0282	855.494	24.6414
12.0293	856.876	24.6609
12.0311	864.111	24.68042
12.0328	859.355	24.7
12.0344	853.801	24.7195
12.0356	867.453	24.739
12.0374	861.049	24.7585
12.0393	855.198	24.7781
12.04039	866.687	24.7976
12.0437	868.395	24.8171
12.0433	854.965	24.83667
12.0453	866.518	24.8562
12.0478	867.528	24.8757
12.0491	860.066	24.8953
12.0517	865.434	24.9148
12.0523	872.818	24.9343
12.0543	858.542	24.9539
12.0563	865.503	24.9734
12.0578	872.908	24.99292
12.0589	864.756	25.0125
12.0603	862.995	25.032
12.0614	874.735	25.0515
12.0621	866.917	25.071
12.065	865.2525	25.0906
12.0676	871.565	25.1101
12.0681	872.308	25.1296
12.07	863.959	25.14917
12.0719	873.199	25.1687
12.0732	875.341	25.1882
12.0745	865.009	25.2078
12.0765	871.175	25.2273
12.0786	878.491	25.2468
12.0798	871.281	25.2664
12.0827	868.883	25.2859
12.0832	876.785	25.30542
12.0842	871.088	25.325
12.0868	870.319	25.3445
12.08725	878.9	25.364
12.0899	875.091	25.3835
12.09118	868.977	25.4031
12.09304	879.917	25.4226
12.0952	878.608	25.4421
12.0965	870.066	25.46167
12.0986	877.352	25.4812
12.09964	883.601	25.5007
12.0999	869.307	25.5203
12.10216	877.705	25.5398
12.1042	881.658	25.5593
12.1054	873.801	25.5789
12.1077	876.626	25.5984
12.1093	887.468	25.61792
12.11104	874.034	25.6375
12.1133	873.947	25.657
12.1142	883.7	25.6765
12.1146	882.396	25.696
12.117	873.695	25.7156
12.11861	884.567	25.7351
12.1204	880.784	25.7546
12.1222	876.032	25.77417
12.124	882.3327	25.7937
12.1258	884.27	25.8132
12.1257	874.833	25.8328
12.1287	881.685	25.8523
12.1295	887.5116	25.8718
12.1333	879.002	25.8914
12.13291	878.5235	25.9109
12.13462	888.699	25.93042
12.1363	884.159	25.95
12.1386	879.919	25.9695
12.1391	890.065	25.989
12.1417	886.456	26.0085
12.1428	877.609	26.0281
12.1454	888.706	26.0476
12.1468	891.439	26.0671
12.14741	878.045	26.08667
12.1494	887.678	26.1062
12.1501	891.622	26.1257
12.153	882.6347	26.1453
12.1548	887.867	26.1648
12.1555	895.613	26.1843
12.1583	881.517	26.2039
12.16	887.2547	26.2234
12.162	893.199	26.24292
12.1631	886.136	26.2625
12.1644	885.083	26.282
12.166	897.831	26.3015
12.1684	887.1665	26.321
12.1694	885.715	26.3406
12.1715	892.256	26.3601
12.1723	895.135	26.3796
12.1743	885.469	26.39917
12.17552	894.984	26.4187
12.1778	894.9566	26.4382
12.1808	888.26	26.4578
12.1811	891.874	26.4773
12.18205	899.335	26.4968
12.184	888.588	26.5164
12.1852	890.237	26.5359
12.1873	898.957	26.55542
12.1887	895.117	26.575
12.1906	889.052	26.5945
12.1931	898.039	26.614
12.1946	897.81	26.6335
12.1955	888.392	26.6531
12.1963	899.144	26.6726
12.19926	898.753	26.6921
12.1994	890.053	26.71167
12.202	898.753	26.7312
12.2034	905.614	26.7507
12.2053	889.443	26.7703
12.2068	898.194	26.7898
12.2088	902.469	26.8093
12.2103	893.808	26.8289
12.211	894.513	26.8484
12.2134	905	26.86792
12.2141	892.127	26.8875
12.2157	895.51	26.907
12.2179	905.264	26.9265
12.2196	898.478	26.946
12.2214	892.661	26.9656
12.2222	906.181	26.9851
12.225	901.143	27.0046
12.2256	896.274	27.02417
12.22859	899.113	27.0437
12.2302	905.605	27.0632
12.2312	895.106	27.0828
12.2326	903.2713	27.1023
12.2351	904.528	27.1218
12.2367	896.908	27.1414
12.2379	897.749	27.1609
12.2392	907.948	27.18042
12.2407	901.623	27.2
12.2426	898.148	27.2195
12.2443	906.05	27.239
12.2459	903.728	27.2585
12.2476	897.609	27.2781
12.2494	907.976	27.2976
12.2507	906.195	27.3171
12.252	898.27	27.33667
12.2535	905.8537	27.3562
12.2559	909.353	27.3757
12.2566	897.88	27.3953
12.2593	902.364	27.4148
12.2599	914.163	27.4343
12.2626	900.169	27.4539
12.2635	903.471	27.4734
12.2655	910.027	27.49292
12.26699	903.512	27.5125
12.2687	901.49	27.532
12.27	915.1521	27.5515
12.2708	905.463	27.571
12.2734	903.135	27.5906
12.27533	910.375	27.6101
12.2772	910.647	27.6296
12.2782	901.232	27.64917
12.2805	911.45	27.6687
12.2826	910.2641	27.6882
12.2832	904.763	27.7078
12.2844	907.559	27.7273
12.2869	915.005	27.7468
12.2879	904.342	27.7664
12.2907	908.029	27.7859
12.2906	912.993	27.80542
12.2935	908.452	27.825
12.295	903.526	27.8445
12.2972	915.402	27.864
12.297	911.448	27.8835
12.2999	905.399	27.9031
12.3008	912.096	27.9226
12.303	913.322	27.9421
12.30476	904.155	27.96167
12.3058	914.338	27.9812
12.3083	917.745	28.0007
12.309	904.177	28.0203
12.3108	912.063	28.0398
12.3123	918.659	28.0593
12.3148	908.364	28.0789
12.315	908.215	28.0984
12.3174	920.644	28.11792
12.3199	911.729	28.1375
12.32061	909.05	28.157
12.3226	920.028	28.1765
12.3245	912.573	28.196
12.3245	908.016	28.2156
12.3268	920.27	28.2351
12.3287	916.041	28.2546
12.3297	907.732	28.27417
12.3323	915.7677	28.2937
12.3329	919.913	28.3132
12.3349	909.371	28.3328
12.3371	915.128	28.3523
12.3387	917.667	28.3718
12.3395	914.286	28.3914
12.3419	913.817	28.4109
12.3439	922.149	28.43042
12.3454	914.557	28.45
12.3468	911.937	28.4695
12.3486	920.757	28.489
12.35083	918.135	28.5085
12.3514	908.878	28.5281
12.3529	921.681	28.5476
12.3559	919.701	28.5671
12.3559	913.209	28.58667
12.3588	917.222	28.6062
12.3591	923.77	28.6257
12.3615	910.373	28.6453
12.3632	916.436	28.6648
12.364	924.984	28.6843
12.3661	913.728	28.7039
12.3676	913.427	28.7234
12.3687	924.453	28.74292
12.3711	918.042	28.7625
12.3731	911.746	28.782
12.3738	924.357	28.8015
12.3764	917.5517	28.821
12.3779	913.266	28.8406
12.3796	922.258	28.8601
12.3811	921.655	28.8796
12.3822	912.791	28.89917
12.3837	924.498	28.9187
12.3862	923.074	28.9382
12.387	915.956	28.9578
12.3894	918.5047	28.9773
12.3909	926.505	28.9968
12.3915	917.0199	29.0164
12.3949	920.496	29.0359
12.3943	925.496	29.05542
12.397	920.762	29.075
12.3985	915.9726	29.0945
12.40106	928.919	29.114
12.4016	922.536	29.1335
12.4038	916.348	29.1531
12.4048	923.135	29.1726
12.4068	927.463	29.1921
12.4086	916.3363	29.21167
12.4105	922.772	29.2312
12.4122	926.66	29.2507
12.4135	917.247	29.2703
12.4149	919.428	29.2898
12.41647	930.573	29.3093
12.4189	916.56	29.3289
12.4199	919.75	29.3484
12.4212	931.2334	29.36792
12.4225	922.492	29.3875
12.4249	917.737	29.407
12.4262	928.959	29.4265
12.4285	922.941	29.446
12.4294	917.729	29.4656
12.4325	928.509	29.4851
12.4335	925.979	29.5046
12.4352	917.922	29.52417
12.43594	924.824	29.5437
12.4374	929.9278	29.5632
12.4403	916.324	29.5828
12.44159	924.7475	29.6023
12.4438	928.781	29.6218
12.4451	923.673	29.6414
12.44625	921.1109	29.6609
12.4482	930.5957	29.68042
12.44946	923.799	29.7
12.4514	923.448	29.7195
12.4531	928.824	29.739
12.4538	927.426	29.7585
12.4566	920.29	29.7781
12.4574	931.792	29.7976
12.4587	930.62	29.8171
12.46095	922.147	29.83667
12.4617	926.235	29.8562
12.4644	934.15	29.8757
12.4662	922.359	29.8953
12.4664	926.803	29.9148
12.4687	932.3891	29.9343
12.4704	922.477	29.9539
12.4713	922.266	29.9734
12.4738	936.354	29.99292
12.4759	926.157	30.0125
12.4775	923.777	30.032
12.4782	935.666	30.0515
12.4795	927.438	30.071
12.482	922.418	30.0906
12.48371	931.892	30.1101
12.4847	930.2063	30.1296
12.4857	922.355	30.14917
12.4889	933.1955	30.1687
12.4896	931.829	30.1882
12.4923	924.087	30.2078
12.4928	929.907	30.2273
12.4939	937.796	30.2468
12.4971	924.434	30.2664
12.4987	928.068	30.2859
12.4993	933.401	30.30542
12.501	931.34	30.325
12.5031	927.746	30.3445
12.505	935.476	30.364
12.5058	930.073	30.3835
12.5081	926.855	30.4031
12.5095	932.881	30.4226
12.51117	935.95	30.4421
12.5128	922.955	30.46167
12.5144	932.74	30.4812
12.5152	935.598	30.5007
12.5173	927.023	30.5203
12.52033	929.373	30.5398
12.52051	937.827	30.5593
12.5229	926.911	30.5789
12.5251	929.574	30.5984
12.5269	936.953	30.61792
12.5275	929.283	30.6375
12.5298	925.663	30.657
12.53	940.122	30.6765
12.5313	933.013	30.696
12.5339	925.787	30.7156
12.5361	936.571	30.7351
12.5369	936.026	30.7546
12.5393	926.433	30.77417
12.5404	936.2774	30.7937
12.5416	936.691	30.8132
12.5451	926.704	30.8328
12.5456	935.916	30.8523
12.5468	937.6759	30.8718
12.5484	928.336	30.8914
12.551	929.965	30.9109
12.5512	940.0304	30.93042
12.5531	930.895	30.95
12.5555	931.454	30.9695
12.5561	936.407	30.989
12.55792	935.462	31.0085
12.5597	927.4408	31.0281
12.5619	938.149	31.0476
12.56382	936.069	31.0671
12.5648	930.167	31.08667
12.5672	934.298	31.1062
12.5676	943.242	31.1257
12.5689	928.195	31.1453
12.5724	934.26	31.1648
12.5717	940.5722	31.1843
12.5752	931.5791	31.2039
12.5764	928.718	31.2234
12.57766	942.108	31.24292
12.5797	933.073	31.2625
12.5812	931.76	31.282
12.58334	941.329	31.3015
12.58516	935.663	31.321
12.5855	925.598	31.3406
12.5869	940.67	31.3601
12.5901	937.859	31.3796
12.5909	930.942	31.39917
12.5926	937.378	31.4187
12.5939	940.061	31.4382
12.5959	929.564	31.4578
12.5975	938.637	31.4773
12.599	942.156	31.4968
12.6009	930.086	31.5164
12.6025	935.1311	31.5359
12.6041	942.733	31.55542
12.6056	934.577	31.575
12.6069	934.245	31.5945
12.6085	943.601	31.614
12.611	937.368	31.6335
12.6129	934.314	31.6531
12.6134	940.567	31.6726
12.6154	940.272	31.6921
12.6158	931.7757	31.71167
12.6181	941.107	31.7312
12.62	942.668	31.7507
12.6216	933.439	31.7703
12.624	934.129	31.7898
12.6253	946.416	31.8093
12.6269	933.863	31.8289
12.6295	936.817	31.8484
12.6293	944.143	31.86792
12.63107	938.238	31.8875
12.6331	932.617	31.907
12.635	946.31	31.9265
12.6357	936.521	31.946
12.6378	933.119	31.9656
12.6397	944.604	31.9851
12.6417	942.18	32.0046
12.6435	929.648	32.02417
12.6453	943.544	32.0437
[...]
15.3338	961.882	64.3093
15.3347	951.183	64.3289
15.3363	955.388	64.3484
15.33773	959.291	64.36792
15.3395	952.029	64.3875
15.3414	949.0462	64.407
15.3431	962.303	64.4265
15.3458	956.223	64.446
15.3474	950.4364	64.4656
15.3485	957.738	64.4851
15.3493	958.304	64.5046
15.3517	948.402	64.52417
15.3523	957.516	64.5437
15.35424	959.695	64.5632
15.35624	949.213	64.5828
15.3578	953.9762	64.6023
15.3592	965.272	64.6218
15.3621	949.761	64.6414
15.3618	953.8	64.6609
15.3651	962.29	64.68042
15.3658	955.023	64.7
15.3671	948.359	64.7195
15.3693	963.271	64.739
15.3712	954.641	64.7585
15.373	949.886	64.7781
15.3741	961.087	64.7976
15.3764	956.343	64.8171
15.3772	946.035	64.83667
15.3789	957.224	64.8562
15.3801	959.956	64.8757
15.3817	949.036	64.8953
15.3844	954.024	64.9148
15.3851	960.744	64.9343
15.3871	949.791	64.9539
15.3888	952.9278	64.9734
15.3909	961.553	64.99292
15.3918	951.76	65.0125
15.3929	950.84	65.032
15.39609	960.75	65.0515
15.3967	954.973	65.071
15.398	947.9361	65.0906
15.4002	959.498	65.1101
15.4016	958.498	65.1296
15.4027	950.884	65.14917
15.4046	955.005	65.1687
15.4072	960.107	65.1882
15.4086	949.2428	65.2078
15.40979	955.344	65.2273
15.41233	959.787	65.2468
15.4139	952.545	65.2664
15.4148	949.077	65.2859
15.4159	962.7027	65.30542
15.4173	952.332	65.325
15.4204	948.987	65.3445
15.4207	960.948	65.364
15.4227	955.654	65.3835
15.4246	946.924	65.4031
15.4262	961.198	65.4226
15.4284	955.648	65.4421
15.4297	947.309	65.46167
15.4313	959.951	65.4812
15.4329	961.021	65.5007
15.4341	944.933	65.5203
15.4365	955.754	65.5398
15.4376	962.285	65.5593
15.439	951.7547	65.5789
15.4402	953.092	65.5984
15.4423	959.181	65.61792
15.4444	951.38	65.6375
15.44617	950.4	65.657
15.4474	960.887	65.6765
15.4489	953.966	65.696
15.45	950.047	65.7156
15.4526	956.639	65.7351
15.4541	957.785	65.7546
15.4553	947.896	65.77417
15.4568	955.3703	65.7937
15.4597	957.944	65.8132
15.4605	950.289	65.8328
15.4621	952.755	65.8523
15.4639	961.6	65.8718
15.4658	948.559	65.8914
15.4678	951.41	65.9109
15.4694	961.216	65.93042
15.4703	951.673	65.95
15.4717	946.253	65.9695
15.4731	963.3327	65.989
15.4757	954.25	66.0085
15.4762	949.385	66.0281
15.4777	958.812	66.0476
15.4791	959.031	66.0671
15.4817	946.331	66.08667
15.483	961.339	66.1062
15.4846	957.191	66.1257
15.4852	947.864	66.1453
15.4878	954.797	66.1648
15.4905	961.242	66.1843
15.4914	948.091	66.2039
15.4926	950.883	66.2234
15.4948	959.81	66.24292
15.4969	952.112	66.2625
15.4976	951.22	66.282
15.4994	958.532	66.3015
15.5018	951.258	66.321
15.5026	947.888	66.3406
15.5042	958.742	66.3601
15.5066	958.169	66.3796
15.5079	947.479	66.39917
15.50922	954.229	66.4187
15.51	960.796	66.4382
15.5129	949.2511	66.4578
15.5136	953.6319	66.4773
15.5156	960.619	66.4968
15.5165	952.045	66.5164
15.5177	951.22	66.5359
15.52	961.814	66.55542
15.5218	951.292	66.575
15.5228	949.3974	66.5945
15.5253	963.659	66.614
15.5281	957.061	66.6335
15.5294	944.972	66.6531
15.5295	959.768	66.6726
15.5326	955.125	66.6921
15.533	948.086	66.71167
15.535	958.228	66.7312
15.53684	959.44	66.7507
15.5388	945.148	66.7703
15.5407	955.509	66.7898
15.5418	959.35	66.8093
15.5448	948.834	66.8289
15.5454	952.083	66.8484
15.5465	961.1485	66.86792
15.5487	951.07	66.8875
15.5496	951.335	66.907
15.5522	959.251	66.9265
15.5532	954.782	66.946
15.555	950.658	66.9656
15.5569	960.992	66.9851
15.5574	955.88	67.0046
15.5595	946.926	67.02417
15.56164	955.941	67.0437
15.5636	958.606	67.0632
15.5638	950.489	67.0828
15.566	951.617	67.1023
15.5665	959.892	67.1218
15.56875	949.41	67.1414
15.5707	951.973	67.1609
15.5717	959.894	67.18042
15.5739	954.542	67.2
15.57554	948.029	67.2195
15.57678	962.032	67.239
15.5794	953.337	67.2585
15.5817	948.541	67.2781
15.5817	959.104	67.2976
15.5845	960.041	67.3171
15.58563	945.155	67.33667
15.5879	958.281	67.3562
15.5889	958.281	67.3757
15.59047	948.71	67.3953
15.59214	955.042	67.4148
15.5933	962.878	67.4343
15.596	947.5155	67.4539
15.5965	952.964	67.4734
15.5993	960.58	67.49292
15.6009	952.405	67.5125
15.602	950.642	67.532
15.6031	959.591	67.5515
15.606	952.097	67.571
15.60743	950.338	67.5906
15.6083	958.37	67.6101
15.6099	955.869	67.6296
15.6108	948.344	67.64917
15.6133	956.62	67.6687
15.6145	957.8819	67.6882
15.61718	947.951	67.7078
15.6176	953.2019	67.7273
15.6201	957.895	67.7468
15.6215	951.165	67.7664
15.6227	948.906	67.7859
15.6246	959.511	67.80542
15.6263	952.077	67.825
15.6283	949.11	67.8445
15.63	959.501	67.864
15.6321	955.777	67.8835
15.6337	945.824	67.9031
15.6342	958.797	67.9226
15.6354	957.664	67.9421
15.6367	948.792	67.96167
15.64	956.099	67.9812
15.6405	960.5213	68.0007
15.6424	945.629	68.0203
15.6444	955.123	68.0398
15.6456	958.935	68.0593
15.6476	948.796	68.0789
15.6501	952.092	68.0984
15.65043	962.124	68.11792
15.65199	950.0575	68.1375
15.6536	950.937	68.157
15.655	958.16	68.1765
15.6569	954.928	68.196
15.6591	948.888	68.2156
15.6611	959.103	68.2351
15.6619	953.876	68.2546
15.6636	948.4101	68.27417
15.6656	955.952	68.2937
15.6662	957.93	68.3132
15.6691	948.386	68.3328
15.6713	953.182	68.3523
15.6715	958.974	68.3718
15.6734	951.16	68.3914
15.6752	949.202	68.4109
15.6764	957.999	68.43042
15.6792	952.9975	68.45
15.6808	948.284	68.4695
15.6817	958.993	68.489
15.6838	954.567	68.5085
15.6851	947.865	68.5281
15.6877	958	68.5476
15.6885	958.713	68.5671
15.6892	944.1499	68.58667
15.6918	957.573	68.6062
15.6932	958.134	68.6257
15.6946	949.243	68.6453
15.6971	953.723	68.6648
15.698	960.9458	68.6843
15.6997	946.297	68.7039
15.7011	954.386	68.7234
15.7029	961.109	68.74292
15.7045	950.874	68.7625
15.7064	948.566	68.782
15.7078	961.867	68.8015
15.7107	950.979	68.821
15.7104	948.089	68.8406
15.71211	955.656	68.8601
15.7148	956.29	68.8796
15.7155	947.8725	68.89917
15.7175	956.211	68.9187
15.71926	954.6098	68.9382
15.72003	947.691	68.9578
15.723	952.771	68.9773
15.7238	960.163	68.9968
15.7253	950.174	69.0164
15.72829	950.844	69.0359
15.7288	957.628	69.05542
15.73057	952.4834	69.075
15.7317	947.972	69.0945
15.735	957.575	69.114
15.7355	955.596	69.1335
15.738	948.01	69.1531
15.7378	958.441	69.1726
15.73984	955.765	69.1921
15.7422	946.146	69.21167
15.7437	955.257	69.2312
15.7458	960.293	69.2507
15.7463	946.618	69.2703
15.74861	952.38	69.2898
15.7503	959.9433	69.3093
15.7524	949.102	69.3289
15.7539	950.536	69.3484
15.7555	961.504	69.36792
15.7555	948.923	69.3875
15.7584	949.652	69.407
15.7602	959.291	69.4265
15.762	953.404	69.446
15.7632	948.303	69.4656
15.7662	959.465	69.4851
15.766	954.006	69.5046
15.7681	948.415	69.52417
15.7698	952.596	69.5437
15.771	959.097	69.5632
15.77292	947.06	69.5828
15.774	954.517	69.6023
15.7753	957.5202	69.6218
15.7781	950.122	69.6414
15.7795	950.163	69.6609
15.7825	960.979	69.68042
15.7829	952.568	69.7
15.7845	947.689	69.7195
15.7861	955.847	69.739
15.7882	954.309	69.7585
15.7893	948.167	69.7781
15.7903	956.187	69.7976
15.7924	957.223	69.8171
15.7944	945.883	69.83667
15.7958	955.678	69.8562
15.7975	960.219	69.8757
15.7984	947.639	69.8953
15.8006	951.984	69.9148
15.8024	960.828	69.9343
15.8042	947.6156	69.9539
15.8056	950.543	69.9734
15.8078	959.319	69.99292
15.8086	950.153	70.0125
15.8107	947.63	70.032
15.8121	960.2475	70.0515
15.8134	950.009	70.071
15.8147	948.037	70.0906
15.8168	955.349	70.1101
15.8193	955.868	70.1296
15.82025	945.702	70.14917
15.8217	956.19	70.1687
15.8233	955.368	70.1882
15.8249	949.028	70.2078
15.8268	950.899	70.2273
15.8278	959.11	70.2468
15.8296	947.938	70.2664
15.83177	950.377	70.2859
15.8332	957.522	70.30542
15.8348	954.397	70.325
15.8369	946.339	70.3445
15.8381	958.2804	70.364
15.83917	955.428	70.3835
15.841	947.393	70.4031
15.8428	955.451	70.4226
15.8445	956.172	70.4421
15.8461	944.871	70.46167
15.8476	956.355	70.4812
15.8487	957.672	70.5007
15.851	945.62	70.5203
15.8521	951.821	70.5398
15.8552	959.659	70.5593
15.8554	950.499	70.5789
15.8575	948.645	70.5984
15.8593	961.06	70.61792
15.8615	950.022	70.6375
15.8623	949.568	70.657
15.8639	959.229	70.6765
15.8659	951.533	70.696
15.8671	946.171	70.7156
15.869	960.388	70.7351
15.8702	953.311	70.7546
15.8718	946.978	70.77417
15.8733	953.24	70.7937
15.8749	958.266	70.8132
15.8763	946.181	70.8328
15.8781	953.64	70.8523
15.88038	956.693	70.8718
15.882	950.437	70.8914
15.8836	949.719	70.9109
15.8849	961.693	70.93042
15.8869	950.493	70.95
15.8887	947.187	70.9695
15.8902	957.62	70.989
15.8913	954.921	71.0085
15.8942	946.268	71.0281
15.8946	955.945	71.0476
15.8963	955.8653	71.0671
15.8969	946.91	71.08667
15.9002	953.121	71.1062
15.9019	958.705	71.1257
15.9039	946.08	71.1453
15.9047	951.259	71.1648
15.9061	961.112	71.1843
15.9074	944.818	71.2039
15.9102	948.811	71.2234
15.911	960.4632	71.24292
15.91265	951.152	71.2625
15.91466	946.7182	71.282
15.9158	960.071	71.3015
15.9177	952.436	71.321
15.9191	947.928	71.3406
15.9208	958.302	71.3601
15.9229	955.502	71.3796
15.9238	944.324	71.39917
15.9262	956.783	71.4187
15.9271	956.274	71.4382
15.92924	946.991	71.4578
15.9308	950.693	71.4773
15.9319	960.189	71.4968
15.9339	947.177	71.5164
15.9353	950.846	71.5359
15.9377	957.584	71.55542
15.9384	953.111	71.575
15.9409	947.5365	71.5945
15.94187	961.034	71.614
15.9435	954.094	71.6335
15.9457	946.821	71.6531
15.9475	954.576	71.6726
15.9489	958.7038	71.6921
15.9506	946.602	71.71167
15.9518	955.6925	71.7312
15.9531	958.897	71.7507
15.9558	946.416	71.7703
15.9563	948.596	71.7898
15.9578	960.991	71.8093
15.9608	946.752	71.8289
15.96143	948.233	71.8484
15.9628	960.968	71.86792
15.9652	950.44	71.8875
15.9659	945.443	71.907
15.9688	957.92	71.9265
15.9696	951.495	71.946
15.972	944.571	71.9656
15.9731	958.731	71.9851
15.9738	953.107	72.0046
15.9773	947.13	72.02417
15.978	954.671	72.0437
15.9803	959.991	72.0632
15.9811	945.578	72.0828
15.9817	953.2677	72.1023
15.9846	956.407	72.1218
15.9861	949.927	72.1414
15.9874	949.21	72.1609
15.9891	959.791	72.18042
15.9905	949.698	72.2
15.9927	947.604	72.2195
15.9935	955.629	72.239
15.9958	954	72.2585
15.9975	944.791	72.2781
15.99956	956.338	72.2976
16.0002	957.036	72.3171
16.00309	945.926	72.33667
16.0031	948.6814	72.3562
16.0056	958.336	72.3757
16.00761	946.663	72.3953
16.0089	952.605	72.4148
16.0102	959.392	72.4343
16.0122	946.4632	72.4539
16.0143	947.959	72.4734
16.0155	961.48	72.49292
16.0173	948.973	72.5125
16.0182	945.214	72.532
16.0215	959.1059	72.5515
16.0215	952.662	72.571
16.0235	945.114	72.5906
16.0256	956.058	72.6101
16.02634	955.404	72.6296
16.0279	944.121	72.64917
16.0296	958.753	72.6687
16.0308	954.549	72.6882
16.0332	945.583	72.7078
16.0348	950.5896	72.7273
16.0366	960.331	72.7468
16.0382	945.736	72.7664
16.0407	950.201	72.7859
16.0402	955.837	72.80542
16.0434	951.9873	72.825
16.0449	945.355	72.8445
16.0467	959.774	72.864
16.0477	951.588	72.8835
16.0499	946.849	72.9031
16.0514	954.1131	72.9226
16.0533	956.304	72.9421
16.0537	943.6001	72.96167
16.0559	953.553	72.9812
16.05818	956.671	73.0007
16.0586	947.321	73.0203
16.0604	949.51	73.0398
16.0624	959.984	73.0593
16.0644	945.403	73.0789
16.0662	949.732	73.0984
16.0672	960.063	73.11792
16.0692	948.396	73.1375
16.0711	945.367	73.157
16.0725	959.396	73.1765
16.0734	953.743	73.196
16.0751	944.299	73.2156
16.0765	956.31	73.2351
16.0786	954.337	73.2546
16.0799	946.183	73.27417
16.0824	954.54	73.2937
16.0844	955.175	73.3132
16.0854	943.967	73.3328
16.087	952.729	73.3523
16.0876	955.884	73.3718
16.0911	947.4856	73.3914
16.0921	945.16	73.4109
16.093	959.096	73.43042
16.0947	948.995	73.45
16.096	947.697	73.4695
16.0974	955.413	73.489
16.0997	953.313	73.5085
16.1025	944.758	73.5281
16.103	956.729	73.5476
16.1051	955.6806	73.5671
16.107	946.167	73.58667
16.1087	952.08	73.6062
16.1104	960.221	73.6257
16.1113	944.747	73.6453
16.1128	951.2	73.6648
16.1152	958.338	73.6843
16.1171	948.539	73.7039
16.1177	946.253	73.7234
16.12	959.489	73.74292
16.12188	948.664	73.7625
16.1233	945.317	73.782
16.12414	958.635	73.8015
16.1269	951.318	73.821
16.1282	943.084	73.8406
16.13	957.2016	73.8601
16.13172	953.565	73.8796
16.1325	942.941	73.89917
16.13493	953.55	73.9187
16.1354	955.017	73.9382
16.1375	943.358	73.9578
16.1388	953.097	73.9773
16.14	958.114	73.9968
16.1419	945.242	74.0164
16.1436	948.668	74.0359
16.1466	956.905	74.05542
16.1476	949.721	74.075
16.1493	945.84	74.0945
16.1513	957.111	74.114
16.1519	949.914	74.1335
16.1536	947.571	74.1531
16.1561	954.136	74.1726
16.1578	954.528	74.1921
16.1584	942.917	74.21167
16.1596	954.923	74.2312
16.16169	957.982	74.2507
16.164	946.221	74.2703
16.165	949.097	74.2898
16.1676	959.97	74.3093
16.1689	945.235	74.3289
16.1704	948.2561	74.3484
16.1719	959.899	74.36792
16.1728	949.628	74.3875
16.1746	943.3017	74.407
16.17708	961.486	74.4265
16.1789	950.441	74.446
16.1799	942.861	74.4656
16.1817	955.693	74.4851
16.1834	955.165	74.5046
16.1837	941.881	74.52417
16.18638	952.309	74.5437
16.1877	955.95	74.5632
16.1894	944.357	74.5828
16.1913	952.681	74.6023
16.1932	957.783	74.6218
16.1944	943.734	74.6414
16.1957	948.3689	74.6609
16.1977	959.393	74.68042
16.1994	948.04	74.7
16.2004	945.967	74.7195
16.2021	955.298	74.739
16.20504	952.247	74.7585
16.20602	943.388	74.7781
16.2075	956.394	74.7976
16.2095	953.926	74.8171
16.2107	944.723	74.83667
16.21207	950.67	74.8562
16.2135	957.703	74.8757
16.2164	941.842	74.8953
16.2184	950.695	74.9148
16.2187	956.553	74.9343
16.2208	947.4613	74.9539
16.2218	944.3103	74.9734
16.2235	959.811	74.99292
16.2265	946.527	75.0125
16.2271	945.469	75.032
16.2285	957.397	75.0515
16.2301	951.041	75.071
16.2327	940.081	75.0906
16.2329	957.662	75.1101
16.2358	952.718	75.1296
16.2367	941.977	75.14917
16.2381	953.509	75.1687
16.2404	957.85	75.1882
16.2416	943.0174	75.2078
16.2431	950.99	75.2273
16.2451	956.8501	75.2468
16.2461	945.58	75.2664
16.2488	947.955	75.2859
16.2493	956.541	75.30542
16.2514	946.105	75.325
16.2533	944.241	75.3445
16.2536	956.965	75.364
16.2568	951.253	75.3835
16.2573	945.089	75.4031
16.2596	953.026	75.4226
16.2616	953.5993	75.4421
16.2629	943.7215	75.46167
16.2641	954.987	75.4812
16.2661	955.219	75.5007
16.2676	946.25	75.5203
16.2683	947.936	75.5398
16.2709	960.176	75.5593
16.2737	944.597	75.5789
16.2747	947.076	75.5984
16.2766	957.175	75.61792
16.27787	950.9679	75.6375
16.2795	942.0813	75.657
16.2803	957.964	75.6765
16.2821	948.789	75.696
16.2846	944.634	75.7156
16.2847	955.135	75.7351
16.2867	954.522	75.7546
16.2885	940.42	75.77417
16.2905	953.668	75.7937
16.2927	954.4538	75.8132
16.294	942.243	75.8328
16.2958	948.6629	75.8523
16.2972	957.811	75.8718
16.29887	942.658	75.8914
16.2999	947.419	75.9109
16.3022	957.087	75.93042
16.3029	946.314	75.95
16.30526	945.541	75.9695
16.3064	955.857	75.989
16.3086	950.0658	76.0085
16.3092	941.704	76.0281
16.3112	954.79	76.0476
16.3141	952.3526	76.0671
16.3148	943.789	76.08667
16.31601	948.819	76.1062
16.3185	954.726	76.1257
16.3202	943.1	76.1453
16.3213	951.434	76.1648
16.32226	955.406	76.1843
16.3241	944.675	76.2039
16.3264	943.64	76.2234
16.3269	957.7019	76.24292
16.3293	946.422	76.2625
16.3307	943.366	76.282
16.3326	955.032	76.3015
16.3347	951.195	76.321
16.3365	940.464	76.3406
16.337	957.13	76.3601
16.3392	951.487	76.3796
16.3402	941.997	76.39917
16.34277	950.592	76.4187
16.3443	957.699	76.4382
16.3453	939.467	76.4578
16.3473	949.826	76.4773
16.34931	953.942	76.4968
16.351	945.16	76.5164
16.3516	945.31	76.5359
16.35372	956.202	76.55542
16.3553	945.21	76.575
16.3573	945.354	76.5945
16.3585	955.761	76.614
16.3604	948.334	76.6335
16.361	942.082	76.6531
16.3636	953.339	76.6726
16.366	952.831	76.6921
16.3665	943.3479	76.71167
16.3682	951.244	76.7312
16.3697	953.67	76.7507
16.3705	943.5611	76.7703
16.3739	948.792	76.7898
16.3753	955.911	76.8093
16.3772	941.792	76.8289
16.3777	945.423	76.8484
16.3807	956.6	76.86792
16.3813	946.8725	76.8875
16.3839	940.512	76.907
16.3854	956.33	76.9265
16.3866	948.486	76.946
16.3882	944.493	76.9656
16.3893	953.64	76.9851
16.3909	953.4682	77.0046
16.3917	939.445	77.02417
16.3941	955.166	77.0437
16.396	953.905	77.0632
16.3969	941.721	77.0828
16.3986	949.204	77.1023
16.4019	957.303	77.1218
16.4031	940.826	77.1414
16.4047	945.9837	77.1609
16.4058	954.472	77.18042
16.4075	945.396	77.2
16.4086	943.806	77.2195
16.4094	956.5343	77.239
16.4133	945.96	77.2585
16.415	941.909	77.2781
16.4154	951.7171	77.2976
16.4174	951.394	77.3171
16.4194	940.496	77.33667
16.4211	949.331	77.3562
16.4224	953.615	77.3757
16.4241	941.865	77.3953
16.4259	946.719	77.4148
16.4271	953.019	77.4343
16.4291	943.498	77.4539
16.4305	943.745	77.4734
16.43165	955.511	77.49292
16.43399	942.8692	77.5125
16.4356	940.606	77.532
16.43726	953.357	77.5515
16.4388	949.574	77.571
16.4406	938.443	77.5906
16.4415	951.554	77.6101
16.4433	948.526	77.6296
16.44511	938.949	77.64917
16.4465	949.125	77.6687
16.4484	951.656	77.6882
16.449	933.835	77.7078
16.4507	944.828	77.7273
16.4598	-106.646	77.7468
16.4601	-45.1756	77.7664
16.4602	-38.6818	77.7859
16.4604	-29.8988	77.80542
16.4626	-48.2322	77.825
16.4628	-45.3325	77.8445
16.4643	-33.373	77.864
16.4669	-41.3435	77.8835
16.468	-48.6952	77.9031
16.4683	-35.1317	77.9226
16.47073	-40.2818	77.9421
16.47226	-48.0576	77.96167
16.4741	-41.87	77.9812
16.4749	-34.61388	78.0007
16.477	-46.6396	78.0203
16.4782	-43.9511	78.0398
16.48	-36.8069	78.0593
16.4829	-45.64016	78.0789
16.4829	-44.5105	78.0984
16.4854	-34.4563	78.11792
16.4871	-43.0428	78.1375
16.487	-49.4354	78.157
16.48942	-34.1671	78.1765
16.4919	-41.4757	78.196
16.4926	-50.6572	78.2156
16.495	-39.0986	78.2351
16.4962	-36.57716	78.2546
16.497	-50.1059	78.27417
16.4988	-38.2782	78.2937
16.5011	-37.2524	78.3132
16.5032	-46.19054	78.3328
16.505	-41.3253	78.3523
16.5052	-33.5423	78.3718
16.507	-48.77	78.3914
16.5089	-42.9513	78.4109
16.5104	-34.6187	78.43042
16.513	-42.2494	78.45
16.5144	-48.4973	78.4695
16.5158	-35.4897	78.489
16.5165	-42.6516	78.5085
16.5194	-47.5331	78.5281
16.5207	-38.1957	78.5476
16.5217	-38.15554	78.5671
16.5244	-48.6854	78.58667
16.5254	-39.7192	78.6062
16.5262	-36.9495	78.6257
16.5288	-49.3088	78.6453
16.5301	-43.0211	78.6648
16.5319	-35.92514	78.6843
16.5334	-44.2569	78.7039
16.5346	-44.3237	78.7234
16.537	-36.3372	78.74292
16.5386	-43.5402	78.7625
16.5399	-46.7822	78.782
16.5423	-34.5967	78.8015
16.543	-40.1494	78.821
16.5445	-51.0528	78.8406
16.5466	-36.617	78.8601
16.5478	-38.1158	78.8796
16.55	-48.1105	78.89917
16.5516	-41.2955	78.9187
16.553	-34.7582	78.9382
16.5548	-50.5367	78.9578
16.55722	-40.0953	78.9773
16.5571	-35.5843	78.9968
16.5602	-46.0022	79.0164
16.5613	-45.8094	79.0359
16.5622	-32.8118	79.05542
16.56443	-44.7293	79.075
16.5657	-45.4491	79.0945
16.5686	-37.0689	79.114
16.5696	-41.1167	79.1335
16.5705	-47.99818	79.1531
16.5718	-37.0219	79.1726
16.573	-42.2273	79.1921
16.5761	-48.4358	79.21167
16.5769	-39.7622	79.2312
16.5776	-36.4338	79.2507
16.5808	-47.5257	79.2703
16.5818	-42.2192	79.2898
16.5835	-37.0716	79.3093
16.5861	-45.8404	79.3289
16.58736	-47.4933	79.3484
16.5887	-35.99369	79.36792
16.5905	-43.8704	79.3875
16.5921	-47.36422	79.407
16.5937	-38.83007	79.4265
16.5954	-41.3033	79.446
16.5971	-50.658	79.4656
16.59848	-38.9257	79.4851
16.5995	-36.8991	79.5046
16.6011	-49.9528	79.52417
16.6035	-41.1753	79.5437
16.6051	-36.1422	79.5632
16.6066	-48.7456	79.5828
16.60762	-45.4659	79.6023
16.6092	-35.6492	79.6218
16.6106	-48.9578	79.6414
16.6138	-44.9442	79.6609
16.61495	-35.59317	79.68042
16.6176	-42.6449	79.7
16.61791	-47.7318	79.7195
16.6199	-34.4627	79.739
16.6217	-42.61264	79.7585
16.6229	-47.3993	79.7781
16.6241	-39.9908	79.7976
16.62591	-37.8149	79.8171
16.6283	-48.4042	79.83667
16.6291	-38.686	79.8562
16.6311	-40.2786	79.8757
16.6321	-48.419	79.8953
16.6341	-44.8591	79.9148
16.6368	-34.6197	79.9343
16.6367	-46.5738	79.9539
16.6396	-46.9605	79.9734
16.6421	-38.1847	79.99292
16.6425	-42.1337	80.0125
16.6425	-48.04813	80.0222

Data Header:			0.254_hd_dimension_typei_4545_r0			Time:	80.1609	s	4/15/2019 3:10:38 PM
Data Acquisition:	Timed
Station Name:	ft40.cfg
Test File Name:	monotonic_0.2540_typei_hd_4545_dimension.tst
Displacement	Force	Running Time
mm	N	s
16.6447	-48.1303	80.032
16.6453	-42.51363	80.0417
16.6448	-38.5484	80.0515
16.6457	-34.5444	80.0613
16.6473	-40.49818	80.071
16.6482	-48.3367	80.0808
16.649	-49.7079	80.0906
16.6508	-45.4757	80.1003
16.651	-38.0748	80.1101
16.65144	-35.3689	80.1199
16.6517	-40.1908	80.1296
16.65357	-43.562	80.1394
16.6539	-50.6142	80.14917