File: data/processed_data_files/tensile/0.254_hd_uprint_typeiv_090_r(2).dat
MTS793|BTW|ENU|1|2|.|/|:|1|0|0|A

Data Header:			0.254_hd_uprint_typeiv_090_r0			Time:	20.0176	s	4/13/2019 10:58:48 PM
Data Acquisition:	Timed
Station Name:	ft40.cfg
Test File Name:	monotonic_0.2540_typeiv_solid_4545_uprint.tst
Displacement	Force	Running Time
mm	N	s
-40.0423	-103.21	0.0229492
-40.0422	-108.292	0.0424805
-40.0431	-106.59	0.0620117
-40.0412	-104.144	0.081543
-40.0401	-101.141	0.101074
-40.0374	-108.9483	0.120605
-40.0364	-99.9729	0.140137
-40.0341	-100.765	0.159668
-40.0326	-104.463	0.179199
-40.0317	-99.0598	0.19873
-40.0299	-94.6834	0.218262
-40.028	-103.286	0.237793
-40.0277	-98.0875	0.257324
-40.0238	-93.2084	0.276855
-40.0232	-94.5351	0.296387
-40.0226	-95.6787	0.315918
-40.0213	-89.5935	0.335449
-40.0177	-95.816	0.35498
-40.0171	-92.2135	0.374512
-40.0153	-89.6591	0.394043
-40.0158	-89.2666	0.413574
-40.0117	-91.61805	0.433105
-40.0097	-85.8163	0.452637
-40.0088	-83.4534	0.472168
-40.0073	-86.986	0.491699
-40.0065	-85.3204	0.51123
-40.00309	-81.1945	0.530762
-40.002	-81.0058	0.550293
-40.0012	-83.67382	0.569824
-40.0002	-77.1269	0.589355
-39.9978	-81.5314	0.608887
-39.995	-79.6038	0.628418
-39.99445	-73.5097	0.647949
-39.9932	-73.802	0.66748
-39.99234	-83.1934	0.687012
-39.9892	-70.1982	0.706543
-39.9879	-73.21	0.726074
-39.9859	-75.7109	0.745605
-39.9835	-70.1007	0.765137
-39.9822	-66.2506	0.784668
-39.9808	-76.4194	0.804199
-39.9786	-66.116	0.82373
-39.9784	-65.7944	0.843262
-39.9767	-69.8231	0.862793
-39.97488	-66.0002	0.882324
-39.9728	-59.3793	0.901855
-39.971	-68.7056	0.921387
-39.971	-65.5978	0.940918
-39.9693	-59.6484	0.960449
-39.9672	-61.9461	0.97998
-39.9651	-62.8237	0.999512
-39.964	-58.5186	1.019043
-39.9619	-58.6737	1.03857
-39.9604	-60.7369	1.05811
-39.9569	-54.8792	1.07764
-39.9562	-55.7256	1.097168
-39.9549	-56.5353	1.1167
-39.9534	-54.5286	1.13623
-39.9515	-48.27335	1.15576
-39.95	-56.594	1.175293
-39.9489	-53.6355	1.19482
-39.9473	-47.5223	1.21436
-39.946	-47.8867	1.23389
-39.9435	-53.0681	1.253418
-39.9417	-44.2735	1.27295
-39.94096	-48.1519	1.29248
-39.93866	-47.6441	1.31201
-39.9373	-41.6573	1.331543
-39.935	-41.4004	1.35107
-39.933	-50.273	1.37061
-39.93327	-39.7526	1.39014
-39.9302	-37.8497	1.409668
-39.9291	-42.7183	1.4292
-39.9272	-38.3548	1.44873
-39.9261	-33.5121	1.46826
-39.9229	-42.2709	1.487793
-39.922	-37.7104	1.50732
-39.92	-32.9092	1.52686
-39.91988	-35.8934	1.54639
-39.9181	-35.5957	1.565918
-39.9172	-28.0816	1.58545
-39.9141	-34.5102	1.60498
-39.9129	-34.8555	1.62451
-39.9111	-27.3612	1.644043
-39.9095	-29.0164	1.66357
-39.908	-30.7124	1.68311
-39.9062	-28.56933	1.70264
-39.9053	-24.8071	1.722168
-39.9044	-30.3955	1.7417
-39.9019	-23.3491	1.76123
-39.89999	-20.5388	1.78076
-39.8981	-24.76	1.800293
-39.8967	-25.2041	1.81982
-39.8957	-15.458	1.83936
-39.8942	-22.3068	1.85889
-39.891	-21.8641	1.878418
-39.8902	-14.4541	1.89795
-39.8884	-16.0723	1.91748
-39.8881	-21.3895	1.93701
-39.8845	-11.0516	1.956543
-39.883	-13.8394	1.97607
-39.8826	-16.0949	1.99561
-39.8806	-10.2242	2.01514
-39.8788	-7.58292	2.034668
-39.8769	-17.5346	2.0542
-39.8752	-8.69185	2.07373
-39.8739	-5.72226	2.09326
-39.8727	-10.2415	2.112793
-39.8706	-7.77535	2.13232
-39.8696	-2.63879	2.15186
-39.8682	-8.14342	2.17139
-39.866	-5.5808	2.190918
-39.8643	-2.2943	2.21045
-39.864	-3.43664	2.22998
-39.8617	-2.97642	2.24951
-39.8588	1.03637	2.269043
-39.8573	1.61601	2.28857
-39.856	-3.38224	2.30811
-39.8551	3.48632	2.32764
-39.8525	5.51439	2.347168
-39.851	1.42865	2.3667
-39.8494	1.60885	2.38623
-39.8479	9.25287	2.40576
-39.84602	4.279779	2.425293
-39.8451	7.47804	2.44482
-39.8436	12.2984	2.46436
-39.8418	9.69844	2.48389
-39.8412	6.29352	2.503418
-39.8379	17.5361	2.52295
-39.8368	10.5527	2.54248
-39.8356	9.28577	2.56201
-39.8341	19.1891	2.581543
-39.8319	18.5776	2.60107
-39.8308	11.0556	2.62061
-39.8289	18.1793	2.64014
-39.827	18.1526	2.659668
-39.82523	16.9474	2.6792
-39.824	21.2763	2.69873
-39.8217	25.9822	2.71826
-39.8212	16.9094	2.737793
-39.8185	19.8792	2.75732
-39.8163	28.327	2.77686
-39.8167	23.3145	2.79639
-39.8138	23.8383	2.815918
-39.8131	28.3819	2.83545
-39.8111	27.35494	2.85498
-39.8094	25.3649	2.87451
-39.8067	29.6399	2.894043
-39.8052	29.6815	2.91357
-39.8052	29.2141	2.93311
-39.8022	31.4414	2.95264
-39.8017	35.2177	2.972168
-39.7999	27.9929	2.9917
-39.7986	35.9505	3.01123
-39.7961	41.1112	3.03076
-39.79335	37.14164	3.050293
-39.7923	32.6018	3.06982
-39.7917	43.9511	3.08936
-39.7895	37.1152	3.10889
-39.7873	38.4538	3.128418
-39.786	44.9181	3.14795
-39.7835	41.9988	3.16748
-39.7847	38.7294	3.18701
-39.7809	48.5302	3.206543
-39.7806	45.7667	3.22607
-39.7783	41.6324	3.24561
-39.7763	48.0437	3.26514
-39.7751	51.5946	3.284668
-39.7735	44.2266	3.3042
-39.7703	50.7394	3.32373
-39.7694	52.0141	3.34326
-39.7689	48.6211	3.362793
-39.7677	52.12537	3.38232
-39.7652	55.549	3.40186
-39.7647	52.1758	3.42139
-39.76236	52.5073	3.440918
-39.7608	60.6424	3.46045
-39.75848	56.5378	3.47998
-39.7571	55.0609	3.49951
-39.7563	59.7029	3.519043
-39.754	62.7441	3.53857
-39.7518	57.6975	3.55811
-39.7504	63.0501	3.57764
-39.7483	63.3751	3.597168
-39.7485	62.7194	3.6167
-39.7448	63.4595	3.63623
-39.74403	70.4651	3.65576
-39.7422	61.97176	3.675293
-39.7411	66.60984	3.69482
-39.7389	74.1503	3.71436
-39.737	68.6384	3.73389
-39.7353	63.4846	3.753418
-39.7332	74.3227	3.77295
-39.733	71.7702	3.79248
-39.7317	70.63826	3.81201
-39.7291	76.44976	3.831543
-39.7276	76.1044	3.85107
-39.7259	70.9551	3.87061
-39.7256	79.8715	3.89014
-39.7235	79.4304	3.909668
-39.7211	72.3894	3.9292
-39.7191	79.3496	3.94873
-39.718	83.9718	3.96826
-39.7167	78.1894	3.987793
-39.7148	79.95	4.00732
-39.71283	85.487	4.02686
-39.7117	81.5328	4.04639
-39.7101	84.9296	4.065918
-39.7085	86.8486	4.08545
-39.70607	86.1413	4.10498
-39.7041	81.9	4.12451
-39.7028	92.4909	4.144043
-39.7016	89.9361	4.16357
-39.70055	87.9912	4.18311
-39.6992	90.2128	4.20264
-39.6965	96.5649	4.222168
-39.6957	87.6229	4.2417
-39.6933	94.111	4.26123
-39.6913	97.1321	4.28076
-39.6904	94.2359	4.300293
-39.6885	92.2163	4.31982
-39.68721	102.436	4.33936
-39.6853	94.7465	4.35889
-39.6839	96.2832	4.378418
-39.6826	103.241	4.39795
-39.6812	101.167	4.41748
-39.6794	95.127	4.43701
-39.6776	104.899	4.456543
-39.6759	105.134	4.47607
-39.6734	101.104	4.49561
-39.673	106.044	4.51514
-39.6706	107.952	4.534668
-39.6698	102.262	4.5542
-39.6674	108.7588	4.57373
-39.6661	113.041	4.59326
-39.6637	106.535	4.612793
-39.6624	109.327	4.63232
-39.661	114.415	4.65186
-39.6592	111.896	4.67139
-39.6597	107.752	4.690918
-39.6559	115.925	4.71045
-39.65443	115.421	4.72998
-39.6525	116.726	4.74951
-39.6511	118.051	4.769043
-39.6495	119.715	4.78857
-39.6475	113.76	4.80811
-39.6455	121.318	4.82764
-39.6458	124.902	4.847168
-39.6428	118.522	4.8667
-39.6415	119.637	4.88623
-39.6392	128.501	4.90576
-39.6396	121.948	4.925293
-39.6371	123.7422	4.94482
-39.6355	130.414	4.96436
-39.6328	126.3616	4.98389
-39.6318	123.176	5.003418
-39.6301	133.993	5.02295
-39.6292	128.022	5.04248
-39.6269	124.901	5.06201
-39.6253	135.139	5.081543
-39.6243	134.821	5.10107
-39.6221	127.421	5.12061
-39.6212	133.772	5.14014
-39.6181	136.924	5.159668
-39.6157	131.871	5.1792
-39.616	138.362	5.19873
-39.6145	137.7706	5.21826
-39.6118	135.849	5.237793
-39.61026	137.509	5.25732
-39.6089	144.929	5.27686
-39.6081	139.435	5.29639
-39.6067	140.796	5.315918
-39.6038	145.012	5.33545
-39.6025	147.343	5.35498
-39.6013	140.184	5.37451
-39.5985	149.609	5.394043
-39.5974	148.338	5.41357
-39.596	145.138	5.43311
-39.5949	148.295	5.45264
-39.5921	152.822	5.472168
-39.591	145.3593	5.4917
-39.5896	153.764	5.51123
-39.5884	155.843	5.53076
-39.5866	150.754	5.550293
-39.5849	148.496	5.56982
-39.5831	160.632	5.58936
-39.5809	154.062	5.60889
-39.5803	152.85	5.628418
-39.5784	160.953	5.64795
-39.5765	159.359	5.66748
-39.5753	155.004	5.68701
-39.5729	162.905	5.706543
-39.5706	160.749	5.72607
-39.5697	156.065	5.74561
-39.5676	166.601	5.76514
-39.5673	164.097	5.784668
-39.5653	160.339	5.8042
-39.5636	164.191	5.82373
-39.5616	171.097	5.84326
-39.5595	165.543	5.862793
-39.5589	167.27	5.88232
-39.5569	169.752	5.90186
-39.5558	169.53	5.92139
-39.5535	166.81	5.940918
-39.5521	175.996	5.96045
-39.5506	172.091	5.97998
-39.5488	170.566	5.99951
-39.5485	173.859	6.019043
-39.54594	177.753	6.03857
-39.5425	171.28	6.05811
-39.542	178.233	6.07764
-39.5402	181.86	6.097168
-39.5388	177.402	6.1167
-39.5375	177.133	6.13623
-39.5354	184.899	6.15576
-39.534	176.8582	6.175293
-39.53257	180.073	6.19482
-39.5319	187.233	6.21436
-39.5299	182.179	6.23389
-39.5265	179.757	6.253418
-39.5262	190.441	6.27295
-39.5246	187.706	6.29248
-39.5232	182.722	6.31201
-39.5217	191.312	6.331543
-39.5192	188.5808	6.35107
-39.5181	185.695	6.37061
-39.5157	192.106	6.39014
-39.515	192.628	6.409668
-39.5132	188.33	6.4292
-39.5111	195.418	6.44873
-39.5095	196.096	6.46826
-39.5089	192.371	6.487793
-39.5061	193.036	6.50732
-39.5047	200.988	6.52686
-39.50293	196.716	6.54639
-39.5013	197.795	6.565918
-39.5	200.03	6.58545
-39.4988	200.852	6.60498
-39.4972	195.8114	6.62451
-39.4949	204.73	6.644043
-39.4942	201.558	6.66357
-39.4915	199.693	6.68311
-39.4903	202.02	6.70264
-39.4895	208.817	6.722168
-39.4873	200.029	6.7417
-39.4858	205.729	6.76123
-39.4832	211.3829	6.78076
-39.4822	206.5641	6.800293
-39.4803	204.842	6.81982
-39.4791	214.156	6.83936
-39.4776	209.731	6.85889
-39.4764	209.592	6.878418
-39.4732	217.564	6.89795
-39.472	211.717	6.91748
-39.4707	209.8096	6.93701
-39.4699	218.452	6.956543
-39.46698	218.692	6.97607
-39.4656	211.823	6.99561
-39.4642	219.845	7.01514
-39.4616	220.336	7.034668
-39.4607	217.457	7.0542
-39.4595	219.981	7.07373
-39.4577	224.3	7.09326
-39.4549	220.202	7.112793
-39.4542	223.491	7.13232
-39.4531	225.63	7.15186
-39.4509	225.065	7.17139
-39.4497	221.372	7.190918
-39.44817	229.866	7.21045
-39.4452	229.592	7.22998
-39.4444	226.724	7.24951
-39.44331	228.6	7.269043
-39.4416	231.978	7.28857
-39.4384	226.298	7.30811
-39.4384	232.473	7.32764
-39.436	236.409	7.347168
-39.4338	229.945	7.3667
-39.4331	231.997	7.38623
-39.4305	238.929	7.40576
-39.42955	232.239	7.425293
-39.4277	234.057	7.44482
-39.4277	241.667	7.46436
-39.4247	235.417	7.48389
-39.4239	235.998	7.503418
-39.4207	242.913	7.52295
-39.4208	240.402	7.54248
-39.418	237.848	7.56201
-39.4171	248.721	7.581543
-39.4159	243.454	7.60107
-39.414	239.3	7.62061
-39.4123	245.422	7.64014
-39.4099	249.805	7.659668
-39.4089	244.325	7.6792
-39.408	247.532	7.69873
-39.4055	248.775	7.71826
-39.4039	247.412	7.737793
-39.4021	246.7892	7.75732
-39.4019	254.38	7.77686
-39.39917	250.056	7.79639
-39.3971	250.603	7.815918
-39.3967	256.007	7.83545
-39.3941	257.053	7.85498
-39.39286	249.5238	7.87451
-39.3907	258.408	7.894043
-39.3903	260.193	7.91357
-39.38805	254.297	7.93311
-39.3867	256.007	7.95264
-39.3839	260.463	7.972168
-39.3831	255.895	7.9917
-39.3819	260.391	8.01123
-39.3791	267.598	8.03076
-39.3781	259.083	8.050293
-39.3762	261.788	8.06982
-39.3743	268.395	8.08936
-39.3737	263.551	8.10889
-39.3716	260.713	8.128418
-39.3704	271.6799	8.14795
-39.3693	265.957	8.16748
-39.366	264.068	8.18701
-39.3662	271.658	8.206543
-39.36401	271.141	8.22607
-39.3619	265.973	8.24561
-39.3605	275.915	8.26514
-39.3581	273.725	8.284668
-39.357	270.602	8.3042
-39.356	272.239	8.32373
-39.354	280.264	8.34326
-39.3513	273.776	8.362793
-39.3504	277.104	8.38232
-39.3485	278.415	8.40186
-39.346	279.313	8.42139
-39.346	275.957	8.440918
-39.3427	282.291	8.46045
-39.3416	281.318	8.47998
-39.3411	279.526	8.49951
-39.3373	283.011	8.519043
-39.3366	287.014	8.53857
-39.336	278.047	8.55811
-39.3345	284.766	8.57764
-39.3324	289.353	8.597168
-39.3314	282.745	8.6167
-39.3295	284.406	8.63623
-39.3283	292.771	8.65576
-39.326	284.896	8.675293
-39.324	286.733	8.69482
-39.3227	295.355	8.71436
-39.3213	286.868	8.73389
-39.3191	287.008	8.753418
-39.3179	295.2435	8.77295
-39.3154	292.101	8.79248
-39.3148	288.808	8.81201
-39.3139	300.127	8.831543
-39.3124	294.725	8.85107
-39.31	293.557	8.87061
-39.3076	297.949	8.89014
-39.3062	301.1532	8.909668
-39.3051	294.79	8.9292
-39.3033	301.344	8.94873
-39.3013	303.5871	8.96826
-39.2993	298.508	8.987793
-39.2984	299.81	9.00732
-39.29665	307.747	9.02686
-39.295	302.858	9.04639
-39.293	301.3811	9.065918
-39.291	304.856	9.08545
-39.2906	306.527	9.10498
-39.2886	302.108	9.12451
-39.2874	309.435	9.144043
-39.2855	309.586	9.16357
-39.2839	304.722	9.18311
-39.2817	308.6741	9.20264
-39.2799	314.945	9.222168
-39.2788	306.008	9.2417
-39.2777	312.259	9.26123
-39.2761	317.872	9.28076
-39.2739	309.26	9.300293
-39.2731	311.217	9.31982
-39.2706	317.173	9.33936
-39.2695	314.8812	9.35889
-39.2674	312.268	9.378418
-39.26506	321.639	9.39795
-39.2639	315.525	9.41748
-39.2629	314.901	9.43701
-39.2611	321.652	9.456543
-39.2598	322.716	9.47607
-39.2574	316.446	9.49561
-39.2571	323.824	9.51514
-39.2538	322.788	9.534668
-39.2523	322.728	9.5542
-39.2509	323.217	9.57373
-39.2501	328.391	9.59326
-39.2477	323.841	9.612793
-39.2453	325.583	9.63232
-39.2446	328.178	9.65186
-39.2428	326.031	9.67139
-39.24041	323.32	9.690918
-39.2396	332.422	9.71045
-39.23801	330.749	9.72998
-39.2367	327.647	9.74951
-39.23595	331.425	9.769043
-39.233	335.627	9.78857
-39.231	329.5	9.80811
-39.2301	334.239	9.82764
-39.2281	338.262	9.847168
-39.2261	330.293	9.8667
-39.225	335.197	9.88623
-39.2231	340.06	9.90576
-39.2227	334.878	9.925293
-39.2204	336.232	9.94482
-39.2176	344.623	9.96436
-39.21611	336.834	9.98389
-39.2149	337.756	10.0034
-39.2132	342.35	10.0229
-39.2124	341.153	10.04248
-39.2095	339.921	10.062
-39.2089	347.968	10.0815
-39.2063	343.582	10.1011
-39.20644	342.299	10.1206
-39.2047	344.948	10.1401
-39.2025	349.538	10.1597
-39.2003	344.055	10.1792
-39.2008	347.649	10.19873
-39.1982	350.516	10.2183
-39.1952	349.626	10.2378
-39.1953	347.308	10.2573
-39.1927	354.517	10.2769
-39.1897	349.1423	10.2964
-39.1891	350.758	10.3159
-39.1895	356.06	10.3354
-39.186	354.968	10.35498
-39.1844	347.87	10.3745
-39.1825	357.491	10.394
-39.18148	358.542	10.4136
-39.1782	351.383	10.4331
-39.1775	354.906	10.4526
-39.1759	361.106	10.4722
-39.1755	354.811	10.4917
-39.1743	359.772	10.51123
-39.1717	364.674	10.5308
-39.16935	355.896	10.5503
-39.169	361.851	10.5698
-39.1665	365.936	10.5894
-39.1654	361.926	10.6089
-39.1633	359.026	10.6284
-39.1612	368.778	10.6479
-39.1606	362.651	10.66748
-39.1582	362.954	10.687
-39.1567	367.485	10.7065
-39.1558	368.435	10.7261
-39.1535	363.983	10.7456
-39.1518	371.371	10.7651
-39.1509	368.009	10.7847
-39.1484	365.94	10.8042
-39.1465	370.133	10.82373
-39.14502	375.933	10.8433
-39.1442	368.808	10.8628
-39.1423	369.858	10.8823
-39.141	374.612	10.9019
-39.1404	372.709	10.9214
-39.1377	371.349	10.9409
-39.135	377.054	10.9604
-39.1339	375.3783	10.97998
-39.1324	371.766	10.9995
-39.13068	378.915	11.019
-39.129	379.99	11.0386
-39.1277	372.7356	11.0581
-39.1265	378.961	11.0776
-39.125	383.678	11.0972
-39.1223	375.298	11.1167
-39.1202	380.017	11.13623
-39.1188	383.032	11.1558
-39.1178	380.031	11.1753
-39.115	379.904	11.1948
-39.1147	387.336	11.2144
-39.1121	379.042	11.2339
-39.1102	380.913	11.2534
-39.11039	388.0347	11.2729
-39.1073	385.744	11.29248
-39.1066	380.55	11.312
-39.1044	390.867	11.3315
-39.1043	385.377	11.3511
-39.1014	386.402	11.3706
-39.1006	388.055	11.3901
-39.0982	390.252	11.4097
-39.0967	386.053	11.4292
-39.0947	392.772	11.44873
-39.094	391.867	11.4683
-39.0912	388.9165	11.4878
-39.0901	389.416	11.5073
-39.0876	396.7587	11.5269
-39.0866	392.739	11.5464
-39.0847	389.297	11.5659
-39.0839	395.266	11.5854
-39.0826	396.62	11.60498
-39.0805	392.2775	11.6245
-39.0774	397.277	11.644
-39.0771	398.051	11.6636
-39.0755	390.886	11.6831
-39.07309	398.521	11.7026
-39.0724	400.719	11.7222
-39.0699	393.557	11.7417
-39.0689	399.144	11.76123
-39.0671	404.741	11.7808
-39.0657	397.029	11.8003
-39.0638	397.914	11.8198
-39.063	403.846	11.8394
-39.06	401.667	11.8589
-39.0597	401.209	11.8784
-39.0576	408.475	11.8979
-39.0569	400.763	11.91748
-39.0539	402.0741	11.937
-39.0519	407.248	11.9565
-39.0509	408.285	11.9761
-39.0489	401.765	11.9956
-39.049	408.008	12.0151
-39.0449	408.437	12.0347
-39.04501	406.249	12.0542
-39.0421	407.147	12.07373
-39.0417	411.604	12.0933
-39.0392	405.796	12.1128
-39.0373	408.548	12.1323
-39.0366	411.601	12.1519
-39.0353	408.286	12.1714
-39.0331	407.605	12.1909
-39.031	413.874	12.2104
-39.0301	410.876	12.22998
-39.0282	407.517	12.2495
-39.0261	413.303	12.269
-39.0247	415.004	12.2886
-39.0235	407.451	12.3081
-39.0215	413.348	12.3276
-39.02	417.503	12.3472
-39.0174	408.727	12.3667
-39.0169	415.653	12.38623
-39.0156	418.981	12.4058
-39.01453	411.946	12.4253
-39.0122	413.485	12.4448
-39.0097	421.423	12.4644
-39.009	412.277	12.4839
-39.0073	415.512	12.5034
-39.0059	420.342	12.5229
-39.0024	417.124	12.54248
-39.0025	415.343	12.562
-38.9997	422.705	12.5815
-38.99818	416.97	12.6011
-38.9973	416.235	12.6206
-38.99604	419.746	12.6401
-38.9946	422.055	12.6597
-38.9918	416.343	12.6792
-38.99044	419.298	12.69873
-38.9894	422.913	12.7183
-38.9886	419.308	12.7378
-38.9859	419.197	12.7573
-38.9843	424.9249	12.7769
-38.9824	423.189	12.7964
-38.9808	421.248	12.8159
-38.9791	425.806	12.8354
-38.977	422.821	12.85498
-38.9762	418.715	12.8745
-38.9741	426.515	12.894
-38.9726	427.589	12.9136
-38.9708	418.085	12.9331
-38.9689	426.288	12.9526
-38.9685	426.573	12.9722
-38.9654	421.426	12.9917
-38.9645	423.5899	13.01123
-38.9628	431.294	13.0308
-38.9617	420.547	13.0503
-38.9608	426.509	13.0698
-38.958	429.652	13.0894
-38.9571	427.403	13.1089
-38.956	424.492	13.1284
-38.954	433.9	13.1479
-38.9511	425.914	13.16748
-38.9489	425.096	13.187
-38.9474	427.584	13.2065
-38.94696	430.295	13.2261
-38.9448	425.236	13.2456
-38.9441	431.6716	13.2651
-38.9414	428.914	13.2847
-38.9409	425.616	13.3042
-38.9392	429.2851	13.32373
-38.9369	433.545	13.3433
-38.93549	428.099	13.3628
-38.9339	429.03	13.3823
-38.9329	432.579	13.4019
-38.9304	429.719	13.4214
-38.9281	427.476	13.4409
-38.9272	433.0647	13.4604
-38.9255	431.8457	13.47998
-38.92437	426.831	13.4995
-38.9229	434.686	13.519
-38.9197	432.586	13.5386
-38.9197	427.17	13.5581
-38.9176	432.609	13.5776
-38.9155	438.157	13.5972
-38.9148	426.54	13.6167
-38.9127	432.413	13.63623
-38.91045	435.587	13.6558
-38.9089	430.213	13.6753
-38.9076	432.725	13.6948
-38.9067	437.089	13.7144
-38.9037	428.758	13.7339
-38.9026	433.151	13.7534
-38.9005	436.525	13.7729
-38.89959	433.256	13.79248
-38.8985	428.548	13.812
-38.896	437.93	13.8315
-38.8949	434.172	13.8511
-38.8947	432.092	13.8706
-38.8923	432.726	13.8901
-38.8888	438.547	13.9097
-38.8887	432.333	13.9292
-38.8857	437.2973	13.94873
-38.8845	436.879	13.9683
-38.8833	431.132	13.9878
-38.8813	432.708	14.0073
-38.88	440.504	14.0269
-38.8795	434.98	14.0464
-38.8771	430.615	14.0659
-38.875	437.581	14.0854
-38.8735	437.769	14.10498
-38.8718	431.3078	14.1245
-38.8707	436.62	14.144
-38.8678	437.882	14.1636
-38.867	431.043	14.1831
-38.8654	439.25	14.2026
-38.8642	437.673	14.2222
-38.8614	431.187	14.2417
-38.8601	435.124	14.26123
-38.8587	441.294	14.2808
-38.8583	430.569	14.3003
-38.8563	433.837	14.3198
-38.8537	439.208	14.3394
-38.8532	434.19	14.3589
-38.8512	434.077	14.3784
-38.8484	440.158	14.3979
-38.847	431.714	14.41748
-38.8459	434.032	14.437
-38.8444	438.841	14.4565
-38.8415	437.151	14.4761
-38.84	432.039	14.4956
-38.8394	438.623	14.5151
-38.83812	437.052	14.5347
-38.8363	433.891	14.5542
-38.8343	435.258	14.57373
-38.8335	440.399	14.5933
-38.8317	435.338	14.6128
-38.8306	435.513	14.6323
-38.8278	438.649	14.6519
-38.8265	434.494	14.6714
-38.8248	432.2973	14.6909
-38.8221	439.175	14.7104
-38.8211	437.2045	14.72998
-38.8203	430.165	14.7495
-38.81839	440.133	14.769
-38.8165	437.074	14.7886
-38.815	433.835	14.8081
-38.8131	437.187	14.8276
-38.8123	438.327	14.8472
-38.81	429.118	14.8667
-38.8081	438.116	14.88623
-38.8078	438.252	14.9058
-38.8059	431.963	14.9253
-38.803	433.747	14.9448
-38.80246	442.905	14.9644
-38.8009	431.639	14.9839
-38.79784	433.943	15.0034
-38.7979	437.884	15.0229
-38.7959	437.569	15.04248
-38.7935	432.948	15.062
-38.7925	439.1839	15.0815
-38.7908	432.762	15.1011
-38.78783	431.8045	15.1206
-38.7869	435.403	15.1401
-38.7868	439.173	15.1597
-38.7838	432.648	15.1792
-38.7819	435.22	15.19873
-38.7807	438.651	15.2183
-38.7799	432.268	15.2378
-38.77795	432.776	15.2573
-38.7753	436.245	15.2769
-38.7736	434.976	15.2964
-38.7729	430.239	15.3159
-38.772	437.339	15.3354
-38.7692	432.429	15.35498
-38.7678	429.572	15.3745
-38.7673	435.9	15.394
-38.7648	437.673	15.4136
-38.7631	427.185	15.4331
-38.761	434.238	15.4526
-38.75914	435.096	15.4722
-38.7573	431.097	15.4917
-38.7557	433.247	15.51123
-38.7549	436.4422	15.5308
-38.75264	426.301	15.5503
-38.75206	433.792	15.5698
-38.7499	436.204	15.5894
-38.7466	431.471	15.6089
-38.7472	429.372	15.6284
-38.7441	437.344	15.6479
-38.7435	430.094	15.66748
-38.742	429.3092	15.687
-38.7401	434.422	15.7065
-38.73864	434.389	15.7261
-38.73642	428.431	15.7456
-38.7347	434.132	15.7651
-38.7326	432.2377	15.7847
-38.7323	429.302	15.8042
-38.7305	432.162	15.82373
-38.7293	435.565	15.8433
-38.7278	427.922	15.8628
-38.7259	428.595	15.8823
-38.7239	433.926	15.9019
-38.7224	428.953	15.9214
-38.7201	428.762	15.9409
-38.7201	432.675	15.9604
-38.7176	432.408	15.97998
-38.7153	427.194	15.9995
-38.7135	434.507	16.019
-38.7122	430.7887	16.0386
-38.7101	425.538	16.0581
-38.7084	432.858	16.0776
-38.707	435.951	16.0972
-38.7057	422.4223	16.1167
-38.704	431.024	16.13623
-38.7032	432.442	16.1558
-38.7004	427.279	16.1753
-38.6995	427.496	16.1948
-38.6975	433.379	16.2144
-38.6969	426.258	16.2339
-38.6942	429.937	16.2534
-38.693	432.301	16.2729
-38.69173	428.655	16.29248
-38.6893	424.0004	16.312
-38.6881	432.092	16.3315
-38.6866	429.336	16.3511
-38.6854	425.8353	16.3706
-38.6823	429.348	16.3901
-38.6818	430.608	16.4097
-38.68084	426.1066	16.4292
-38.6782	427.498	16.44873
-38.67683	430	16.4683
-38.6758	426.571	16.4878
-38.6735	426.168	16.5073
-38.6714	432.4455	16.5269
-38.6702	427.135	16.5464
-38.668	422.945	16.5659
-38.6679	431.1785	16.5854
-38.6647	426.698	16.60498
-38.664	423.127	16.6245
-38.6618	428.4278	16.644
-38.6613	429.8671	16.6636
-38.6595	421.244	16.6831
-38.6567	429.654	16.7026
-38.65588	426.931	16.7222
-38.6541	420.964	16.7417
-38.6518	426.7	16.76123
-38.6505	432.325	16.7808
-38.6483	421.59	16.8003
-38.6479	424.309	16.8198
-38.6451	427.572	16.8394
-38.6445	424.462	16.8589
-38.64201	422.374	16.8784
-38.6409	430.016	16.8979
-38.6396	422.676	16.91748
-38.63805	422.877	16.937
-38.6354	427.475	16.9565
-38.6362	425.6218	16.9761
-38.6324	420.595	16.9956
-38.6298	427.381	17.0151
-38.6302	426.257	17.0347
-38.6279	422.089	17.0542
-38.62606	423.746	17.07373
-38.6251	427.175	17.0933
-38.6219	422.889	17.1128
-38.62141	423.566	17.1323
-38.6196	426.306	17.1519
-38.6181	421.096	17.1714
-38.6172	420.669	17.1909
-38.6149	427.717	17.2104
-38.6129	425.724	17.22998
-38.6107	418.443	17.2495
-38.6099	426.952	17.269
-38.6084	426.219	17.2886
-38.6082	421.049	17.3081
-38.6047	424.308	17.3276
-38.6033	426.081	17.3472
-38.6016	418.198	17.3667
-38.59993	425.877	17.38623
-38.5982	425.526	17.4058
-38.5969	420.439	17.4253
-38.5945	420.984	17.4448
-38.5942	430	17.4644
-38.5909	419.609	17.4839
-38.5894	419.873	17.5034
-38.5896	424.244	17.5229
-38.5864	422.881	17.54248
-38.5853	420.384	17.562
-38.5843	426.994	17.5815
-38.5826	421.797	17.6011
-38.58	420.465	17.6206
-38.5788	422.865	17.6401
-38.5763	426.261	17.6597
-38.57589	418.696	17.6792
-38.5748	421.491	17.69873
-38.5724	426.062	17.7183
-38.5714	418.168	17.7378
-38.5703	422.223	17.7573
-38.56665	424.869	17.7769
-38.5657	421.714	17.7964
-38.5632	418.426	17.8159
-38.5627	426.148	17.8354
-38.5612	421.802	17.85498
-38.5603	417.106	17.8745
-38.5581	425.073	17.894
-38.5556	425.78	17.9136
-38.5554	415.915	17.9331
-38.552	424.358	17.9526
-38.5507	425.099	17.9722
-38.5503	419.029	17.9917
-38.5486	422.654	18.01123
-38.54673	427.226	18.0308
-38.5447	416.04	18.0503
-38.5439	422.439	18.0698
-38.5405	424.693	18.0894
-38.5407	419.963	18.1089
-38.5381	418.744	18.1284
-38.53603	426.257	18.1479
-38.5352	420.721	18.16748
-38.5339	417.364	18.187
-38.532	422.501	18.2065
-38.5304	422.5871	18.2261
-38.529	418.3	18.2456
-38.5279	423.704	18.2651
-38.5253	421.083	18.2847
-38.5242	417.666	18.3042
-38.5228	421.101	18.32373
-38.5194	424.148	18.3433
-38.5188	419.29	18.3628
-38.5175	416.827	18.3823
-38.5166	424.6113	18.4019
-38.5134	419.076	18.4214
-38.5117	415.447	18.4409
-38.5105	421.157	18.4604
-38.5098	421.015	18.47998
-38.5084	415.167	18.4995
-38.5067	423.412	18.519
-38.504	420.441	18.5386
-38.5024	415.373	18.5581
-38.50066	422.507	18.5776
-38.499	424.688	18.5972
-38.4984	412.874	18.6167
-38.4974	421.4162	18.63623
-38.4941	422.104	18.6558
-38.4925	417.065	18.6753
-38.4909	418.831	18.6948
-38.4901	423.6312	18.7144
-38.488	415.4136	18.7339
-38.4872	419.0473	18.7534
-38.4844	423.152	18.7729
-38.48439	418.937	18.79248
-38.4811	415.552	18.812
-38.4802	424.395	18.8315
-38.4779	420.8204	18.8511
-38.4765	415.776	18.8706
-38.4742	419.562	18.8901
-38.4731	422.278	18.9097
-38.4724	417.773	18.9292
-38.4699	420.073	18.94873
-38.4688	422.229	18.9683
-38.4666	415.658	18.9878
-38.4657	417.532	19.0073
-38.4642	423.82	19.0269
-38.46204	417.709	19.0464
-38.4604	413.778	19.0659
-38.4571	423.256	19.0854
-38.4571	418.49	19.10498
-38.4553	415.824	19.1245
-38.4543	421.655	19.144
-38.451	422.5011	19.1636
-38.451	413.245	19.1831
-38.4479	421.965	19.2026
-38.4474	420.298	19.2222
-38.4462	414.717	19.2417
-38.4433	418.398	19.26123
-38.4418	425.784	19.2808
-38.4409	412.3844	19.3003
-38.4397	417.7955	19.3198
-38.4371	422.44	19.3394
-38.43507	417.119	19.3589
-38.4344	419.02	19.3784
-38.4323	422.156	19.3979
-38.431	415.405	19.41748
-38.42897	415.174	19.437
-38.4281	422.581	19.4565
-38.4256	420.052	19.4761
-38.42334	414.103	19.4956
-38.4227	419.2662	19.5151
-38.4211	420.938	19.5347
-38.4189	415.5014	19.5542
-38.41758	417.712	19.57373
-38.4168	421.736	19.5933
-38.414	417.526	19.6128
-38.4124	415.793	19.6323
-38.4116	421.26	19.6519
-38.4106	415.929	19.6714
-38.4083	415.887	19.6909
-38.4059	422.202	19.7104
-38.4055	418.892	19.72998
-38.4043	411.038	19.7495
-38.4014	421.482	19.769
-38.3995	419.331	19.7886
-38.3975	415.1442	19.8081
-38.39682	418.645	19.8276
-38.3954	421.7775	19.8472
-38.3926	411.4	19.8667
-38.3919	419.854	19.88623
-38.3904	421.162	19.9058
-38.3891	414.426	19.9253
-38.3867	416.3363	19.9448
-38.3858	425.421	19.9644
-38.3837	413.494	19.9839
-38.381	415.332	20.0034
-38.3819	420.218	20.0132

Data Header:			0.254_hd_uprint_typeiv_090_r0			Time:	29.5054	s	4/13/2019 10:58:58 PM
Data Acquisition:	Timed
Station Name:	ft40.cfg
Test File Name:	monotonic_0.2540_typeiv_solid_4545_uprint.tst
Displacement	Force	Running Time
mm	N	s
-38.3811	420.421	20.0229
-38.3797	419.149	20.0327
-38.3792	418.434	20.04248
-38.3781	414.106	20.0522
-38.3774	414.699	20.062
-38.3764	415.79	20.0718
-38.375	420.555	20.0815
-38.3746	422.5856	20.0913
-38.3742	417.2	20.1011
-38.3742	415.089	20.11084
-38.3721	414.689	20.1206
-38.3714	416.614	20.1304
-38.3703	418.501	20.1401
-38.3696	419.0762	20.1499
-38.3683	421.235	20.1597
-38.3674	419.392	20.1694
-38.3676	415.1752	20.1792
-38.3664	413.564	20.189
-38.3661	416.975	20.19873
-38.3652	420.838	20.2085
-38.3636	421.683	20.2183
-38.3632	416.734	20.228
-38.3636	414.814	20.2378
-38.3609	414.9982	20.2476
-38.3608	415.048	20.2573
-38.3604	417.308	20.26709
-38.3599	420.422	20.2769
-38.358	421.487	20.2866
-38.3578	417.556	20.2964
-38.3563	411.595	20.3062
-38.3564	414.061	20.3159
-38.3555	417.226	20.3257
-38.3544	421.533	20.3354
-38.3543	421.696	20.3452
-38.3527	415.257	20.35498
-38.3519	413.899	20.3647
-38.3522	412.6853	20.3745
-38.349	415.145	20.3843
-38.349	420.467	20.394
-38.3482	422.392	20.4038
-38.349	421.458	20.4136
-38.3463	415.211	20.42334
-38.346	408.453	20.4331
-38.346	415.89	20.4429
-38.343	418.803	20.4526
-38.3441	423.204	20.4624
-38.3431	419.315	20.4722
-38.3427	415.732	20.4819
-38.3419	414.607	20.4917
-38.3403	413.761	20.5015
-38.3394	418.265	20.51123
-38.3379	421.152	20.521
-38.3377	421.06	20.5308
-38.3364	417.757	20.5405
-38.3368	411.362	20.5503
-38.3364	410.822	20.5601
-38.3342	416.035	20.5698
-38.3344	419.783	20.57959
-38.3332	420.231	20.5894
-38.3322	417.549	20.5991
-38.3325	412.31	20.6089
-38.3306	412.118	20.6187
-38.33	413.237	20.6284
-38.3301	415.133	20.6382
-38.3283	421.221	20.6479
-38.32785	418.7959	20.6577
-38.327	414.825	20.66748
-38.3258	411.817	20.6772
-38.3255	413.139	20.687
-38.3236	418.306	20.6968
-38.3244	419.43	20.7065
-38.323	418.444	20.7163
-38.3219	418.6178	20.7261
-38.3214	414.771	20.73584
-38.3192	413.679	20.7456
-38.3197	413.35	20.7554
-38.3182	417.525	20.7651
-38.3169	422.63	20.7749
-38.3176	419.342	20.7847
-38.3161	416.581	20.7944
-38.3154	411.519	20.8042
-38.3146	414.459	20.814
-38.3128	415.34	20.82373
-38.3135	415.944	20.8335
-38.3127	421.0163	20.8433
-38.312	420.213	20.853
-38.3112	414.882	20.8628
-38.309	412.547	20.8726
-38.3086	411.892	20.8823
-38.3066	420.188	20.89209
-38.3073	421.703	20.9019
-38.3072	418.7323	20.9116
-38.3054	414.421	20.9214
-38.3051	411.815	20.9312
-38.30307	412.5322	20.9409
-38.3036	415.619	20.9507
-38.3028	418.465	20.9604
-38.3013	420.32	20.9702
-38.30241	417.437	20.97998
-38.29866	411.151	20.9897
-38.29961	410.539	20.9995
-38.2986	412.772	21.0093
-38.2964	419.918	21.019
-38.2968	421.222	21.0288
-38.2961	415.301	21.0386
-38.2949	414.752	21.04834
-38.2934	411.0242	21.0581
-38.2942	413.599	21.0679
-38.2928	419.4021	21.0776
-38.2912	420.695	21.0874
-38.2907	419.5181	21.0972
-38.2902	415.367	21.1069
-38.2901	408.933	21.1167
-38.2883	412.658	21.1265
-38.2877	418.055	21.13623
-38.2867	419.674	21.146
-38.2861	418.79	21.1558
-38.2849	415.245	21.1655
-38.28405	413.966	21.1753
-38.2837	411.971	21.1851
-38.2837	413.893	21.1948
-38.2813	419.409	21.20459
-38.2805	420.723	21.2144
-38.2801	419.5712	21.2241
-38.2794	411.501	21.2339
-38.2793	410.478	21.2437
-38.2782	413.456	21.2534
-38.278	417.561	21.2632
-38.2764	420.851	21.2729
-38.2758	417.783	21.2827
-38.2738	415.728	21.29248
-38.27446	414.362	21.3022
-38.2726	414.001	21.312
-38.2716	412.522	21.3218
-38.2715	419.595	21.3315
-38.2704	420.368	21.3413
-38.2699	415.757	21.3511
-38.2688	413.74	21.36084
-38.268	410.196	21.3706
-38.267	415.32	21.3804
-38.2669	417.274	21.3901
-38.2647	418.2283	21.3999
-38.2646	417.054	21.4097
-38.2632	414.614	21.4194
-38.2624	413.805	21.4292
-38.263	411.1091	21.439
-38.2618	413.287	21.44873
-38.2593	419.953	21.4585
-38.2587	416.454	21.4683
-38.258	417.519	21.478
-38.2585	413.4939	21.4878
-38.2575	412.7178	21.4976
-38.2565	412.254	21.5073
-38.256	414.134	21.51709
-38.255	419.733	21.5269
-38.254	419.845	21.5366
-38.2527	415.247	21.5464
-38.2527	411.364	21.5562
-38.2521	409.862	21.5659
-38.251	415.86	21.5757
-38.2492	420.628	21.5854
-38.2492	418.916	21.5952
-38.2486	416.055	21.60498
-38.2484	411.356	21.6147
-38.2473	410.076	21.6245
-38.2462	413.734	21.6343
-38.2459	416.825	21.644
-38.2444	420.381	21.6538
-38.2439	418.185	21.6636
-38.24358	410.953	21.67334
-38.24152	408.954	21.6831
-38.24157	411.479	21.6929
-38.2401	419.16	21.7026
-38.2387	422.254	21.7124
-38.2381	416.1	21.7222
-38.2373	414.512	21.7319
-38.237	410.148	21.7417
-38.2368	411.007	21.7515
-38.2359	417.29	21.76123
-38.2349	417.952	21.771
-38.2334	422.173	21.7808
-38.2328	416.139	21.7905
-38.2314	410.469	21.8003
-38.2309	410.849	21.8101
-38.2311	415.011	21.8198
-38.2308	418.353	21.82959
-38.2289	419.564	21.8394
-38.2289	414.482	21.8491
-38.2263	414.128	21.8589
-38.2269	410.187	21.8687
-38.2261	413.279	21.8784
-38.2257	413.699	21.8882
-38.2243	419.229	21.8979
-38.2236	419.438	21.9077
-38.2226	412.669	21.91748
-38.22184	411.84	21.9272
-38.221	413.5968	21.937
-38.2199	415.882	21.9468
-38.2191	418.274	21.9565
-38.218	417.091	21.9663
-38.2173	416.172	21.9761
-38.2166	414.741	21.98584
-38.2157	412.263	21.9956
-38.21479	410.567	22.0054
-38.2147	414.981	22.0151
-38.2134	418.462	22.0249
-38.2129	417.827	22.0347
-38.2116	414.833	22.0444
-38.2108	411.278	22.0542
-38.211	413.567	22.064
-38.2099	413.615	22.07373
-38.208	416.504	22.0835
-38.2066	417.6	22.0933
-38.2065	417.424	22.103
-38.2055	414.9537	22.1128
-38.2046	409.3288	22.1226
-38.2047	412.673	22.1323
-38.2044	417.119	22.14209
-38.203	421.034	22.1519
-38.2018	418.212	22.1616
-38.20174	410.407	22.1714
-38.19957	410.381	22.1812
-38.19875	412.38	22.1909
-38.199	412.37	22.2007
-38.1988	419.846	22.2104
-38.19735	419.365	22.2202
-38.197	416.301	22.22998
-38.1954	412.675	22.2397
-38.19482	409.24	22.2495
-38.19429	413.582	22.2593
-38.1935	420.435	22.269
-38.19297	420.091	22.2788
-38.19035	416.072	22.2886
-38.191	411.748	22.29834
-38.1899	410.753	22.3081
-38.1907	410.136	22.3179
-38.1886	415.887	22.3276
-38.18792	420.221	22.3374
-38.18697	419.948	22.3472
-38.1864	413.85	22.3569
-38.1856	409.207	22.3667
-38.18433	409.1	22.3765
-38.1832	416.95	22.38623
-38.183	420.164	22.396
-38.182	416.95	22.4058
-38.1807	416.373	22.4155
-38.1801	410.689	22.4253
-38.1797	411.045	22.4351
-38.1776	412.75	22.4448
-38.1782	416.132	22.45459
-38.1772	420.793	22.4644
-38.1755	417.543	22.4741
-38.1757	412.318	22.4839
-38.1751	409.952	22.4937
-38.173	411.636	22.5034
-38.1729	417.901	22.5132
-38.17247	416.949	22.5229
-38.1712	416.775	22.5327
-38.171	414.527	22.54248
-38.17	412.4256	22.5522
-38.16909	413.312	22.562
-38.1685	412.5928	22.5718
-38.1675	417.22	22.5815
-38.1668	421.406	22.5913
-38.16555	415.201	22.6011
-38.16362	413.482	22.61084
-38.1631	412.415	22.6206
-38.1631	413.935	22.6304
-38.1619	416.227	22.6401
-38.1612	415.424	22.6499
-38.1603	415.521	22.6597
-38.1592	416.535	22.6694
-38.1591	411.218	22.6792
-38.1578	410.377	22.689
-38.1581	414.115	22.69873
-38.1571	418.066	22.7085
-38.1559	421.557	22.7183
-38.1562	414.873	22.728
-38.1534	410.189	22.7378
-38.1531	412.306	22.7476
-38.1521	411.156	22.7573
-38.1525	414.275	22.76709
-38.1512	415.805	22.7769
-38.1494	417.676	22.7866
-38.1489	414.423	22.7964
-38.149	409.382	22.8062
-38.147	409.48	22.8159
-38.1468	414.888	22.8257
-38.1459	419.905	22.8354
-38.1459	419.89	22.8452
-38.1442	411.228	22.85498
-38.1437	411.122	22.8647
-38.1424	411.645	22.8745
-38.1426	410.953	22.8843
-38.1407	419.557	22.894
-38.1394	418.465	22.9038
-38.1399	417.237	22.9136
-38.1371	412.534	22.92334
-38.1385	406.481	22.9331
-38.1367	411.257	22.9429
-38.1372	417.7533	22.9526
-38.1363	419.066	22.9624
-38.1341	417.224	22.9722
-38.1337	412.099	22.9819
-38.1333	411.325	22.9917
-38.13208	410.284	23.0015
-38.1323	414.053	23.01123
-38.1297	418.16	23.021
-38.1298	419.371	23.0308
-38.1292	417.274	23.0405
-38.1278	407.804	23.0503
-38.1276	408.735	23.0601
-38.12653	414.541	23.0698
-38.12561	416.918	23.07959
-38.1251	417.317	23.0894
-38.12513	414.971	23.0991
-38.1229	413.304	23.1089
-38.1227	411.622	23.1187
-38.1219	411.818	23.1284
-38.1211	413.1026	23.1382
-38.1206	418.837	23.1479
-38.11935	417.901	23.1577
-38.1175	411.192	23.16748
-38.11731	410.231	23.1772
-38.1178	409.34	23.187
-38.1166	415.359	23.1968
-38.1147	416.2449	23.2065
-38.1139	416.1402	23.2163
-38.11319	414.475	23.2261
-38.113	412.716	23.23584
-38.1125	412.2879	23.2456
-38.112	411.12	23.2554
-38.1108	413.382	23.2651
-38.1089	418.767	23.2749
-38.1086	415.586	23.2847
-38.1076	412.57	23.2944
-38.107	410.357	23.3042
-38.1062	410.7	23.314
-38.1052	414.603	23.32373
-38.1054	414.485	23.3335
-38.1036	415.469	23.3433
-38.1033	417.544	23.353
-38.1027	410.8627	23.3628
-38.1022	410.58	23.3726
-38.1011	409.974	23.3823
-38.10017	415.878	23.39209
-38.0988	419.261	23.4019
-38.0975	416.548	23.4116
-38.0974	411.9299	23.4214
-38.09602	410.015	23.4312
-38.0959	409.911	23.4409
-38.0957	414.04	23.4507
-38.0946	416.614	23.4604
-38.0928	417.545	23.4702
-38.0926	416.758	23.47998
-38.0914	409.376	23.4897
-38.0894	408.477	23.4995
-38.0903	410.601	23.5093
-38.0882	420.286	23.519
-38.0889	419.804	23.5288
-38.08667	413.794	23.5386
-38.0869	409.903	23.54834
-38.0846	409.321	23.5581
-38.0849	410.54	23.5679
-38.0834	417.95	23.5776
-38.084	417.561	23.5874
-38.0821	418.464	23.5972
-38.0815	413.034	23.6069
-38.081	406.544	23.6167
-38.0799	409.471	23.6265
-38.0798	414.762	23.63623
-38.0795	419.419	23.646
-38.0769	416.252	23.6558
-38.0773	411.467	23.6655
-38.0757	411.715	23.6753
-38.0758	410.536	23.6851
-38.0742	411.22	23.6948
-38.0734	414.694	23.70459
-38.0732	417.921	23.7144
-38.0725	417.454	23.7241
-38.0708	409.67	23.7339
-38.0706	410.129	23.7437
-38.0692	412.281	23.7534
-38.0679	416.871	23.7632
-38.0679	416.901	23.7729
-38.06773	414.438	23.7827
-38.0669	412.475	23.79248
-38.0656	411.806	23.8022
-38.0643	410.383	23.812
-38.0639	411.406	23.8218
-38.0639	415.345	23.8315
-38.0622	416.939	23.8413
-38.0624	412.742	23.8511
-38.0615	413.152	23.86084
-38.0596	408.33	23.8706
-38.0591	412.97	23.8804
-38.058	414.4949	23.8901
-38.0568	416.042	23.8999
-38.056	414.005	23.9097
-38.0557	412.486	23.9194
-38.0549	411.328	23.9292
-38.0548	407.113	23.939
-38.0541	411.884	23.94873
-38.0526	417.128	23.9585
-38.0515	417.015	23.9683
-38.0509	415.233	23.978
-38.0499	408.83	23.9878
-38.05022	410.005	23.9976
-38.0488	412.593	24.0073
-38.0483	412.745	24.01709
-38.047	416.779	24.0269
-38.0456	416.394	24.0366
-38.04525	412.699	24.0464
-38.0454	410.319	24.0562
-38.0434	406.768	24.0659
-38.04343	413.478	24.0757
-38.042	419.107	24.0854
-38.04155	418.546	24.0952
-38.0402	413.9	24.10498
-38.0399	409.502	24.1147
-38.0386	408.967	24.1245
-38.0374	412.107	24.1343
-38.0368	415.871	24.144
-38.0362	418.498	24.1538
-38.0349	417.813	24.1636
-38.0344	408.947	24.17334
-38.03474	407.545	24.1831
-38.0334	409.645	24.1929
-38.032	416.267	24.2026
-38.0313	419.886	24.2124
-38.0311	412.691	24.2222
-38.02879	413.0701	24.2319
-38.029	409.336	24.2417
-38.0288	409.179	24.2515
-38.0267	414.417	24.26123
-38.027	415.486	24.271
-38.0265	418.777	24.2808
-38.025	414.86	24.2905
-38.0236	407.914	24.3003
-38.0225	409.1	24.3101
-38.02306	413.2623	24.3198
-38.0214	417.828	24.32959
-38.02079	415.988	24.3394
-38.0195	413.975	24.3491
-38.019	411.668	24.3589
-38.0181	409.134	24.3687
-38.0174	411.151	24.3784
-38.0168	412.401	24.3882
-38.0158	417.862	24.3979
-38.0164	416.789	24.4077
-38.0145	412.799	24.41748
-38.0139	409.82	24.4272
-38.0121	409.318	24.437
-38.0121	412.067	24.4468
-38.0115	415.513	24.4565
-38.0086	414.647	24.4663
-38.00985	410.211	24.4761
-38.0077	412.165	24.48584
-38.0079	409.911	24.4956
-38.007	407.6	24.5054
-38.0055	413.849	24.5151
-38.0041	414.91	24.5249
-38.0043	414.195	24.5347
-38.0043	411.5957	24.5444
-38.0036	406.219	24.5542
-38.0024	411.6	24.564
-38.0021	410.514	24.57373
-38.0014	415.155	24.5835
-37.9997	415.699	24.5933
-37.999	412.186	24.603
-37.9979	410.993	24.6128
-37.9961	406.768	24.6226
-37.9959	408.151	24.6323
-37.9944	412.593	24.64209
-37.994	416.004	24.6519
-37.994	416.015	24.6616
-37.9938	408.244	24.6714
-37.99247	409.6485	24.6812
-37.9904	409.482	24.6909
-37.9908	411.379	24.7007
-37.9891	416.804	24.7104
-37.9899	415.409	24.7202
-37.9882	413.833	24.72998
-37.9879	408.234	24.7397
-37.9869	404.135	24.7495
-37.9865	409.231	24.7593
-37.9845	415.842	24.769
-37.9833	416.125	24.7788
-37.98386	412.178	24.7886
-37.982	407.037	24.79834
-37.9818	407.725	24.8081
-37.9818	408.279	24.8179
-37.9813	413.042	24.8276
-37.97945	415.204	24.8374
-37.97826	416.539	24.8472
-37.9773	409.763	24.8569
-37.9774	405.971	24.8667
-37.9745	405.58	24.8765
-37.9755	414.216	24.88623
-37.9745	415.331	24.896
-37.9728	413.304	24.9058
-37.9726	410.932	24.9155
-37.9718	405.999	24.9253
-37.9707	407.437	24.9351
-37.9691	409.657	24.9448
-37.97039	410.797	24.95459
-37.96936	416.123	24.9644
-37.9677	412.914	24.9741
-37.9673	407.615	24.9839
-37.9658	407.095	24.9937
-37.9648	407.49	25.0034
-37.965	413.616	25.0132
-37.9638	414.53	25.0229
-37.9629	411.563	25.0327
-37.96402	410.9397	25.04248
-37.9612	408.27	25.0522
-37.9608	409.811	25.062
-37.9601	408.917	25.0718
-37.9597	413.232	25.0815
-37.9587	416.221	25.0913
-37.9571	412.661	25.1011
-37.9555	409.162	25.11084
-37.9558	405.7579	25.1206
-37.9552	407.966	25.1304
-37.9537	411.345	25.1401
-37.9531	411.465	25.1499
-37.9535	414.15	25.1597
-37.9514	413.3248	25.1694
-37.9511	408.705	25.1792
-37.9501	405.499	25.189
-37.9489	410.369	25.19873
-37.9482	412.876	25.2085
-37.9478	415.8898	25.2183
-37.9474	413.072	25.228
-37.9463	406.043	25.2378
-37.9447	406.778	25.2476
-37.9438	407.549	25.2573
-37.9435	411.0033	25.26709
-37.9422	414.806	25.2769
-37.9419	412.29	25.2866
-37.941	409.744	25.2964
-37.9409	404.524	25.3062
-37.9391	403.545	25.3159
-37.9391	410.317	25.3257
-37.9378	414.834	25.3354
-37.9366	413.633	25.3452
-37.9364	408.638	25.35498
-37.9356	404.271	25.3647
-37.93539	406.572	25.3745
-37.9332	407.918	25.3843
-37.9343	414.4761	25.394
-37.9326	414.519	25.4038
-37.9308	414.097	25.4136
-37.93008	407.558	25.42334
-37.9291	403.461	25.4331
-37.92844	407.106	25.4429
-37.9283	413.3638	25.4526
-37.9264	414.912	25.4624
-37.9257	411.89	25.4722
-37.925	408.874	25.4819
-37.9241	406.547	25.4917
-37.9244	407.573	25.5015
-37.9227	408.739	25.51123
-37.9216	412.014	25.521
-37.9214	413.766	25.5308
-37.9203	410.008	25.5405
-37.9203	405.248	25.5503
-37.9195	403.454	25.5601
-37.9182	409.57	25.5698
-37.9182	413.349	25.57959
-37.91626	414.75	25.5894
-37.9162	409.129	25.5991
-37.9152	407.3671	25.6089
-37.9147	407.204	25.6187
-37.9139	407.194	25.6284
-37.91209	408.057	25.6382
-37.9135	414.197	25.6479
-37.91	413.705	25.6577
-37.9098	408.16	25.66748
-37.909	406.701	25.6772
-37.9087	405.428	25.687
-37.9081	410.608	25.6968
-37.9063	411.832	25.7065
-37.9055	410.906	25.7163
-37.9055	409.945	25.7261
-37.9055	407.768	25.73584
-37.9033	406.656	25.7456
-37.9027	405.0502	25.7554
-37.9021	409.354	25.7651
-37.9013	414.112	25.7749
-37.9014	411.766	25.7847
-37.8978	409.0434	25.7944
-37.8983	404.3815	25.8042
-37.89761	405.395	25.814
-37.8972	411.146	25.82373
-37.8962	409.489	25.8335
-37.8947	412.3316	25.8433
-37.8946	412.406	25.853
-37.8946	405.481	25.8628
-37.89225	404.379	25.8726
-37.8919	405.403	25.8823
-37.8916	409.034	25.89209
-37.8905	415.371	25.9019
-37.8901	410.9212	25.9116
-37.8895	405.072	25.9214
-37.88879	403.432	25.9312
-37.8856	405.541	25.9409
-37.887	407.593	25.9507
-37.88546	412.305	25.9604
-37.8851	413.21	25.9702
-37.8833	410.66	25.97998
-37.88298	403.224	25.9897
-37.88073	402.8168	25.9995
-37.882	406.709	26.0093
-37.8815	411.704	26.019
-37.87936	416.204	26.0288
-37.879	407.228	26.0386
-37.87804	405.383	26.04834
-37.8783	403.171	26.0581
-37.8764	406.058	26.0679
-37.8754	412.544	26.0776
-37.8755	409.745	26.0874
-37.8746	412.93	26.0972
-37.8733	406.64	26.1069
-37.8728	401.931	26.1167
-37.872	405.43	26.1265
-37.8709	408.694	26.13623
-37.871	412.7045	26.146
-37.8698	411.68	26.1558
-37.8693	406.777	26.1655
-37.8672	405.764	26.1753
-37.8662	405.349	26.1851
-37.8664	406.154	26.1948
-37.8646	409.242	26.20459
-37.8647	411.303	26.2144
-37.8626	411.965	26.2241
-37.86211	404.484	26.2339
-37.8623	402.746	26.2437
-37.8604	405.409	26.2534
-37.8604	409.1817	26.2632
-37.8603	411.694	26.2729
-37.8587	409.781	26.2827
-37.8565	405.87	26.29248
-37.8577	405.49	26.3022
-37.8558	404.91	26.312
-37.8555	405.125	26.3218
-37.854	410.4404	26.3315
-37.8541	411.13	26.3413
-37.8536	407.936	26.3511
-37.85112	405.294	26.36084
-37.8534	401.564	26.3706
-37.8507	405.718	26.3804
-37.8507	408.667	26.3901
-37.84951	409.398	26.3999
-37.8487	409.713	26.4097
-37.8486	405.257	26.4194
-37.8463	403.572	26.4292
-37.8463	401.8374	26.439
-37.8444	402.626	26.44873
-37.8434	410.67	26.4585
-37.8434	410.532	26.4683
-37.8426	407.945	26.478
-37.8415	402.602	26.4878
-37.8415	399.8981	26.4976
-37.8394	406.429	26.5073
-37.83918	405.503	26.51709
-37.8393	409.919	26.5269
-37.8387	408.924	26.5366
-37.8369	404.582	26.5464
-37.8347	401.966	26.5562
-37.8351	401.068	26.5659
-37.8343	405.826	26.5757
-37.8336	412.368	26.5854
-37.833	408.576	26.5952
-37.833	405.33	26.60498
-37.831	400.086	26.6147
-37.83025	401.072	26.6245
-37.8303	403.551	26.6343
-37.8291	408.047	26.644
-37.8284	409.813	26.6538
-37.827	406.804	26.6636
-37.8269	401.781	26.67334
-37.8251	398.766	26.6831
-37.8239	401.375	26.6929
-37.8237	407.237	26.7026
-37.8235	411.8205	26.7124
-37.8227	405.203	26.7222
-37.82132	402.415	26.7319
-37.8209	399.847	26.7417
-37.8196	401.807	26.7515
-37.8196	406.01	26.76123
-37.8189	403.678	26.771
-37.8159	408.9173	26.7808
-37.8157	404.735	26.7905
-37.8149	398.409	26.8003
-37.8145	398.411	26.8101
-37.81329	402.925	26.8198
-37.8139	406.934	26.82959
-37.812	405.518	26.8394
-37.8115	400.836	26.8491
-37.81073	398.753	26.8589
-37.81073	398.461	26.8687
-37.81	401.235	26.8784
-37.8091	401.383	26.8882
-37.8072	403.883	26.8979
-37.80624	406.936	26.9077
-37.8058	400.679	26.91748
-37.8056	398.0087	26.9272
-37.8041	397.342	26.937
-37.8036	400.28	26.9468
-37.8038	403.742	26.9565
-37.8022	404.455	26.9663
-37.8005	400.483	26.9761
-37.801	399.757	26.98584
-37.8005	396.434	26.9956
-37.7992	396.08	27.0054
-37.7983	399.199	27.0151
-37.7966	402.315	27.0249
-37.796	402.046	27.0347
-37.7961	396.273	27.0444
-37.7936	392.323	27.0542
-37.7928	393.789	27.064
-37.7936	395.551	27.07373
-37.7923	396.341	27.0835
-37.7909	397.621	27.0933
-37.7899	391.625	27.103
-37.7898	389.437	27.1128
-37.7883	379.898	27.1226
-37.7854	-14.0958	27.1323
-37.785	-24.7099	27.14209
-37.7846	-48.40826	27.1519
-37.7842	-38.933	27.1616
-37.7832	-44.5971	27.1714
-37.7824	-43.0177	27.1812
-37.7821	-42.0006	27.1909
-37.7809	-41.119	27.2007
-37.7817	-36.1121	27.2104
-37.7796	-36.5782	27.2202
-37.779	-40.0297	27.22998
-37.7793	-43.6048	27.2397
-37.77721	-47.381	27.2495
-37.7768	-43.0688	27.2593
-37.7751	-35.8757	27.269
-37.7754	-35.4742	27.2788
-37.7748	-38.3999	27.2886
-37.7733	-44.9835	27.29834
-37.7723	-44.4116	27.3081
-37.7707	-42.2047	27.3179
-37.7722	-39.2099	27.3276
-37.76973	-36.2244	27.3374
-37.7689	-37.72332	27.3472
-37.7697	-42.8554	27.3569
-37.7694	-45.4881	27.3667
-37.7672	-45.2802	27.3765
-37.7659	-39.8141	27.38623
-37.7657	-36.1418	27.396
-37.7661	-39.40493	27.4058
-37.76413	-41.0629	27.4155
-37.7642	-43.7277	27.4253
-37.7622	-44.0207	27.4351
-37.7622	-39.5069	27.4448
-37.7611	-40.3004	27.45459
-37.7599	-34.92664	27.4644
-37.7593	-38.306	27.4741
-37.7573	-44.5463	27.4839
-37.7578	-42.3846	27.4937
-37.7573	-44.1118	27.5034
-37.7561	-39.9886	27.5132
-37.7558	-37.08	27.5229
-37.75452	-40.6014	27.5327
-37.7536	-41.5622	27.54248
-37.7536	-44.12508	27.5522
-37.7517	-42.8123	27.562
-37.75148	-42.0014	27.5718
-37.75	-42.2416	27.5815
-37.7499	-35.9521	27.5913
-37.7481	-40.3133	27.6011
-37.7481	-42.5659	27.61084
-37.748	-45.7538	27.6206
-37.7465	-44.6561	27.6304
-37.7448	-38.4302	27.6401
-37.7442	-40.2579	27.6499
-37.7424	-37.5538	27.6597
-37.7431	-39.0041	27.6694
-37.742	-42.1662	27.6792
-37.7411	-44.1335	27.689
-37.7411	-43.2112	27.69873
-37.7399	-38.3714	27.7085
-37.7396	-35.98201	27.7183
-37.7381	-40.2741	27.728
-37.7375	-45.7352	27.7378
-37.7366	-45.0661	27.7476
-37.735	-42.6961	27.7573
-37.7353	-40.1004	27.76709
-37.7348	-35.9018	27.7769
-37.7336	-38.5034	27.7866
-37.7332	-41.9687	27.7964
-37.7329	-45.0797	27.8062
-37.7307	-47.3869	27.8159
-37.7295	-42.2942	27.8257
-37.7288	-36.4913	27.8354
-37.7277	-35.3998	27.8452
-37.7276	-41.73399	27.85498
-37.7271	-45.7125	27.8647
-37.7266	-43.8129	27.8745
-37.72493	-42.7041	27.8843
-37.7246	-36.5635	27.894
-37.7236	-37.8465	27.9038
-37.7224	-39.1401	27.9136
-37.7222	-41.4074	27.92334
-37.72184	-47.7384	27.9331
-37.7202	-43.4814	27.9429
-37.7191	-38.9305	27.9526
-37.7189	-35.7435	27.9624
-37.7182	-37.6832	27.9722
-37.7173	-43.4265	27.9819
-37.715	-46.7562	27.9917
-37.717	-42.2025	28.0015
-37.7143	-41.5484	28.01123
-37.7143	-38.3923	28.021
-37.7126	-38.7327	28.0308
-37.7126	-38.5278	28.0405
-37.712	-44.693	28.0503
-37.71077	-44.5437	28.0601
-37.71	-41.20602	28.0698
-37.7094	-36.6677	28.07959
-37.708	-38.4477	28.0894
-37.70705	-41.5075	28.0991
-37.7068	-44.3677	28.1089
-37.7057	-42.6085	28.1187
-37.7043	-42.3092	28.1284
-37.7045	-41.5829	28.1382
-37.7043	-37.8302	28.1479
-37.7023	-36.3657	28.1577
-37.7007	-41.2189	28.16748
-37.7002	-42.5467	28.1772
-37.7001	-45.3119	28.187
-37.6988	-40.01	28.1968
-37.6992	-38.67757	28.2065
-37.6967	-40.1354	28.2163
-37.6967	-40.2876	28.2261
-37.6957	-42.5991	28.23584
-37.6947	-43.4738	28.2456
-37.6937	-45.1878	28.2554
-37.6929	-43.1074	28.2651
-37.6928	-36.8283	28.2749
-37.6925	-37.7738	28.2847
-37.6895	-40.4276	28.2944
-37.68932	-43.7423	28.3042
-37.6899	-45.3312	28.314
-37.689	-41.4531	28.32373
-37.6864	-39.964	28.3335
-37.6864	-38.0292	28.3433
-37.6868	-37.9518	28.353
-37.6862	-43.2335	28.3628
-37.6833	-45.6752	28.3726
-37.6833	-43.9914	28.3823
-37.6829	-40.4481	28.39209
-37.6818	-35.2597	28.4019
-37.6808	-38.4311	28.4116
-37.6808	-42.72982	28.4214
-37.68018	-45.1345	28.4312
-37.6781	-44.29567	28.4409
-37.678	-40.7952	28.4507
-37.6769	-36.6438	28.4604
-37.6769	-38.0161	28.4702
-37.6753	-38.9802	28.47998
-37.6754	-45.156	28.4897
-37.67313	-48.00452	28.4995
-37.6718	-41.8105	28.5093
-37.6727	-37.9126	28.519
-37.6721	-34.9831	28.5288
-37.6715	-40.1456	28.5386
-37.6699	-45.9468	28.54834
-37.6702	-44.938	28.5581
-37.6687	-43.808	28.5679
-37.6677	-38.0689	28.5776
-37.667	-39.3979	28.5874
-37.6658	-38.7777	28.5972
-37.665	-41.3366	28.6069
-37.6641	-47.27578	28.6167
-37.6631	-43.8295	28.6265
-37.6627	-40.4682	28.63623
-37.662	-36.0831	28.646
-37.6605	-38.13	28.6558
-37.6602	-43.2052	28.6655
-37.6589	-43.2585	28.6753
-37.6586	-42.8612	28.6851
-37.6575	-41.4465	28.6948
-37.6573	-41.046	28.70459
-37.6563	-37.9196	28.7144
-37.6543	-38.3554	28.7241
-37.654	-42.3812	28.7339
-37.653	-44.0274	28.7437
-37.6532	-42.2809	28.7534
-37.6524	-38.3445	28.7632
-37.6517	-38.2624	28.7729
-37.65	-38.25034	28.7827
-37.6502	-42.7071	28.79248
-37.6481	-41.6025	28.8022
-37.6488	-42.4134	28.812
-37.6466	-44.028	28.8218
-37.6465	-39.5778	28.8315
-37.6443	-36.3839	28.8413
-37.6456	-38.78215	28.8511
-37.6442	-40.7665	28.86084
-37.6434	-44.6398	28.8706
-37.6425	-42.0615	28.8804
-37.6414	-38.6003	28.8901
-37.6412	-38.6068	28.8999
-37.6396	-36.882	28.9097
-37.6389	-41.1002	28.9194
-37.6389	-42.492	28.9292
-37.6385	-43.8895	28.939
-37.6358	-43.8468	28.94873
-37.6352	-37.75119	28.9585
-37.635	-35.724	28.9683
-37.6332	-37.3343	28.978
-37.6326	-44.3028	28.9878
-37.6324	-44.934	28.9976
-37.6311	-41.1678	29.0073
-37.6303	-41.1226	29.01709
-37.63	-37.4309	29.0269
-37.62904	-38.1199	29.0366
-37.628	-40.08585	29.0464
-37.627	-43.2605	29.0562
-37.6261	-46.1648	29.0659
-37.625	-41.57235	29.0757
-37.62466	-35.48748	29.0854
-37.62384	-36.0992	29.0952
-37.6244	-41.3975	29.10498
-37.6231	-43.9907	29.1147
-37.6217	-46.1023	29.1245
-37.6208	-40.546	29.1343
-37.6197	-37.8395	29.144
-37.6201	-36.6963	29.1538
-37.6182	-39.4987	29.1636
-37.6165	-42.4649	29.17334
-37.6162	-46.13673	29.1831
-37.6174	-43.4668	29.1929
-37.6156	-39.5649	29.2026
-37.6146	-34.3018	29.2124
-37.6137	-37.6665	29.2222
-37.6128	-43.213	29.2319
-37.6126	-44.0297	29.2417
-37.6108	-42.5222	29.2515
-37.6113	-38.5587	29.26123
-37.6089	-39.5563	29.271
-37.6094	-36.1657	29.2808
-37.6079	-38.0915	29.2905
-37.6075	-45.2003	29.3003
-37.6056	-44.019	29.3101
-37.6052	-42.9383	29.3198
-37.6054	-36.1089	29.32959
-37.6033	-36.6831	29.3394
-37.6043	-41.1292	29.3491
-37.6027	-43.02647	29.3589
-37.6014	-43.7177	29.3687
-37.6002	-42.0575	29.3784
-37.5998	-41.0191	29.3882
-37.5998	-38.87122	29.3979
-37.5975	-36.5604	29.4077
-37.5972	-41.6103	29.41748
-37.59724	-45.0937	29.4272
-37.5955	-45.1822	29.437
-37.5959	-40.7579	29.4468
-37.5948	-37.7415	29.4565
-37.5935	-38.19931	29.4663
-37.59198	-40.4705	29.4761
-37.5925	-41.4082	29.48584
-37.5911	-43.2233	29.4956