File: data/processed_data_files/tensile/0.254_solid_dimension_typei_090_r(5).dat
MTS793|BTW|ENU|1|2|.|/|:|1|0|0|A

Data Header:			0.254_solid_dimension_typei_090_r0			Time:	20.0176	s	4/15/2019 2:26:46 PM
Data Acquisition:	Timed
Station Name:	ft40.cfg
Test File Name:	monotonic_0.2540_typei_solid_090_dimension.tst
Displacement	Force	Running Time
mm	N	s
9.97195	-164.062	0.0224609
9.97048	-152.686	0.0419922
9.97201	-148.449	0.0615234
9.97109	-159.157	0.0810547
9.97313	-156.722	0.100586
9.975318	-147.138	0.120117
9.9763	-152.892	0.139648
9.9789	-155.858	0.15918
9.979599	-143.923	0.178711
9.98048	-148.068	0.198242
9.98288	-151.625	0.217773
9.98404	-143.496	0.237305
9.98639	-140.462	0.256836
9.986701	-149.983	0.276367
9.98914	-140.2	0.295898
9.99149	-133.554	0.31543
9.99201	-142.908	0.334961
9.99496	-143.9608	0.354492
9.9965	-129.832	0.374023
9.99815	-140.332	0.393555
9.99932	-139.611	0.413086
10.0012	-128.767	0.432617
10.00169	-132.3098	0.452148
10.00406	-138.804	0.47168
10.0055	-123.446	0.491211
10.008	-126.821	0.510742
10.0086	-135.102	0.530273
10.0103	-123.956	0.549805
10.0123	-121.094	0.569336
10.0137	-133.009	0.588867
10.0161	-120.804	0.608398
10.017	-117.728	0.62793
10.01877	-126.135	0.647461
10.0205	-119.445	0.666992
10.0218	-113.503	0.686523
10.0243	-123.5	0.706055
10.0253	-119.996	0.725586
10.0271	-107.797	0.745117
10.02778	-114.44	0.764648
10.0306	-117.565	0.78418
10.0316	-109.083	0.803711
10.0334	-109.387	0.823242
10.03502	-115.066	0.842773
10.0368	-104.432	0.862305
10.03826	-104.723	0.881836
10.0401	-111.2953	0.901367
10.0413	-105.478	0.920898
10.0429	-96.8758	0.94043
10.0448	-109.669	0.959961
10.0466	-101.739	0.979492
10.0487	-92.3437	0.999023
10.0497	-99.1419	1.01855
10.0519	-104.021	1.03809
10.0525	-87.6569	1.05762
10.054	-96.2001	1.07715
10.05577	-98.15741	1.09668
10.0575	-86.0385	1.11621
10.059	-90.2513	1.13574
10.0607	-99.656	1.15527
10.0635	-83.7513	1.1748
10.0645	-85.2578	1.19434
10.0659	-92.8966	1.21387
10.0676	-86.1694	1.2334
10.0697	-77.377	1.25293
10.071	-90.6228	1.27246
10.07259	-82.4324	1.29199
10.0745	-75.8449	1.31152
10.07677	-84.49752	1.33105
10.078	-80.8767	1.35059
10.0783	-72.2062	1.37012
10.0801	-80.5285	1.38965
10.0825	-81.4942	1.40918
10.0837	-68.8632	1.42871
10.0841	-72.1258	1.44824
10.0867	-78.232	1.46777
10.0891	-69.8519	1.4873
10.0907	-64.6531	1.50684
10.0922	-75.5515	1.52637
10.0931	-67.1572	1.5459
10.0953	-61.0769	1.56543
10.0966	-68.7337	1.58496
10.098	-67.2666	1.60449
10.0996	-53.0938	1.62402
10.101	-66.3821	1.64355
10.1033	-64.38858	1.66309
10.1055	-51.7462	1.68262
10.1074	-56.6726	1.70215
10.1078	-65.0851	1.72168
10.1108	-48.843	1.74121
10.1119	-53.1269	1.76074
10.1137	-57.7941	1.78027
10.1141	-48.2518	1.7998
10.1157	-46.4471	1.81934
10.1179	-57.9344	1.83887
10.1202	-45.7276	1.8584
10.1214	-40.2078	1.87793
10.1235	-50.1475	1.89746
10.1236	-44.621	1.91699
10.126	-37.1064	1.93652
10.1268	-46.78257	1.95605
10.1284	-43.7846	1.97559
10.1308	-35.3161	1.99512
10.1322	-40.0799	2.01465
10.1343	-40.62719	2.03418
10.1365	-31.27	2.05371
10.13751	-34.5742	2.07324
10.1384	-41.1409	2.09277
10.1402	-28.1977	2.1123
10.1427	-27.1907	2.13184
10.1433	-34.9879	2.15137
10.1451	-31.6379	2.1709
10.1472	-19.6316	2.19043
10.1486	-31.5262	2.20996
10.1504	-26.60318	2.22949
10.15247	-20.0558	2.24902
10.1541	-25.6447	2.26855
10.1558	-28.9123	2.28809
10.1572	-12.9483	2.30762
10.1591	-22.7355	2.32715
10.1603	-27.0281	2.34668
10.1622	-12.0006	2.36621
10.163	-12.9781	2.38574
10.1659	-23.816	2.40527
10.1662	-10.8856	2.4248
10.1688	-9.1556	2.44434
10.1705	-17.6651	2.46387
10.1717	-8.64156	2.4834
10.1727	-3.26668	2.50293
10.1747	-15.28978	2.52246
10.1763	-7.53435	2.54199
10.1774	2.25606	2.56152
10.1799	-9.17127	2.58105
10.18202	-5.82968	2.60059
10.1823	3.11352	2.62012
10.18415	-1.73043	2.63965
10.1874	-3.482722	2.65918
10.1874	6.91865	2.67871
10.1895	2.07332	2.69824
10.1905	-0.121146	2.71777
10.1934	7.28831	2.7373
10.1945	11.83647	2.75684
10.1958	-1.17196	2.77637
10.1975	10.0221	2.7959
10.1999	17.0232	2.81543
10.2005	7.78486	2.83496
10.2028	6.521306	2.85449
10.2029	22.2268	2.87402
10.2045	11.0967	2.89355
10.2073	13.3585	2.91309
10.2097	23.4341	2.93262
10.2101	18.1382	2.95215
10.2125	10.6435	2.97168
10.2143	28.71258	2.99121
10.2158	23.4267	3.01074
10.2168	16.6555	3.03027
10.2194	29.093	3.0498
10.2205	31.7897	3.06934
10.2229	19.04447	3.08887
10.22427	29.145	3.1084
10.2249	34.67905	3.12793
10.2269	24.636	3.14746
10.2286	31.3775	3.16699
10.23	38.0744	3.18652
10.2314	28.5355	3.20605
10.2343	31.27759	3.22559
10.2346	43.8618	3.24512
10.2359	35.8547	3.26465
10.2387	34.56395	3.28418
10.2405	42.5924	3.30371
10.241	42.5897	3.32324
10.2436	34.7758	3.34277
10.245	47.8042	3.3623
10.2465	49.05349	3.38184
10.24835	41.9166	3.40137
10.2496	45.9659	3.4209
10.2516	55.9765	3.44043
10.2534	41.8775	3.45996
10.2542	49.4624	3.47949
10.2557	60.2868	3.49902
10.25776	51.6364	3.51855
10.26	48.6313	3.53809
10.2607	64.4341	3.55762
10.2627	55.4254	3.57715
10.2644	54.0369	3.59668
10.2655	65.3331	3.61621
10.2672	63.5115	3.63574
10.2685	52.6613	3.65527
10.2706	67.6658	3.6748
10.2721	69.8107	3.69434
10.2749	57.939	3.71387
10.2762	67.3489	3.7334
10.278	74.3219	3.75293
10.2782	62.146	3.77246
10.2812	68.1862	3.79199
10.2827	75.6394	3.81152
10.2843	68.7607	3.83105
10.2859	70.3591	3.85059
10.2874	79.9709	3.87012
10.2897	74.8228	3.88965
10.2909	69.7088	3.90918
10.2923	83.9376	3.92871
10.293	81.26	3.94824
10.2951	75.6247	3.96777
10.2957	82.9806	3.9873
10.298	87.4271	4.00684
10.3007	77.7023	4.02637
10.3005	86.2435	4.0459
10.3037	92.0344	4.06543
10.3053	82.8816	4.08496
10.3074	84.6516	4.10449
10.308	99.5448	4.12402
10.3106	86.4885	4.14355
10.3113	88.734	4.16309
10.3135	101.697	4.18262
10.3153	97.61422	4.20215
10.3162	86.73777	4.22168
10.3184	103.238	4.24121
10.3209	99.714	4.26074
10.321	93.1955	4.28027
10.3221	106.29	4.2998
10.3249	106.847	4.31934
10.3261	93.9657	4.33887
10.3285	106.676	4.3584
10.3299	112.857	4.37793
10.3309	101.113	4.39746
10.33283	106.23	4.41699
10.3342	115.596	4.43652
10.3356	108.014	4.45605
10.3373	108.956	4.47559
10.3395	118.495	4.49512
10.3427	113.577	4.51465
10.3432	111.7006	4.53418
10.3431	120.22	4.55371
10.3458	120.362	4.57324
10.34761	109.225	4.59277
10.349	124.295	4.6123
10.3508	127.68	4.63184
10.3519	117.011	4.65137
10.3529	120.729	4.6709
10.3556	131.9547	4.69043
10.3569	121.639	4.70996
10.3594	126.9381	4.72949
10.3592	136.918	4.74902
10.362	127.577	4.76855
10.3642	124.253	4.78809
10.36564	141.214	4.80762
10.36639	132.136	4.82715
10.369	128.425	4.84668
10.3696	141.68	4.86621
10.3718	141.0208	4.88574
10.374	129.387	4.90527
10.3756	141.395	4.9248
10.3761	145.294	4.94434
10.3778	135.762	4.96387
10.3803	145.916	4.9834
10.3821	150.716	5.00293
10.3835	139.456	5.02246
10.3853	146.14	5.04199
10.3864	153.953	5.06152
10.38723	145.776	5.08105
10.3892	146.589	5.10059
10.3915	157.455	5.12012
10.3925	152.794	5.13965
10.3943	148.442	5.15918
10.3962	160.109	5.17871
10.3976	158.068	5.19824
10.3989	152.466	5.21777
10.40071	159.518	5.2373
10.4027	166.834	5.25684
10.4046	153.499	5.27637
10.40573	163.641	5.2959
10.4079	171.243	5.31543
10.4094	162.469	5.33496
10.4109	161.672	5.35449
10.41265	175.847	5.37402
10.4139	163.498	5.39355
10.4146	164.6353	5.41309
10.4173	176.837	5.43262
10.4197	171.24	5.45215
10.4201	164.338	5.47168
10.4221	181.4274	5.49121
10.4238	178.308	5.51074
10.4245	168.72	5.53027
10.4274	181.354	5.5498
10.4289	184.59	5.56934
10.4303	171.778	5.58887
10.4325	181.43	5.6084
10.4339	188.901	5.62793
10.4345	177.577	5.64746
10.4374	184.125	5.66699
10.4385	191.457	5.68652
10.4393	180.763	5.70605
10.4421	182.6129	5.72559
10.4433	196.8166	5.74512
10.4444	190.247	5.76465
10.44656	187.524	5.78418
10.4495	196.251	5.80371
10.45	198.317	5.82324
10.4515	189.376	5.84277
10.4541	200.017	5.8623
10.45393	202.287	5.88184
10.4558	194.233	5.90137
10.4589	198.42	5.9209
10.4598	209.804	5.94043
10.46127	195.7063	5.95996
10.4629	201.757	5.97949
10.46423	213.272	5.99902
10.4664	204.666	6.01855
10.4669	200.664	6.03809
10.4697	215.625	6.05762
10.4706	207.656	6.07715
10.4735	205.494	6.09668
10.4741	219.005	6.11621
10.4767	216.3205	6.13574
10.4772	204.279	6.15527
10.4789	221.293	6.1748
10.4816	221.885	6.19434
10.4824	209.732	6.21387
10.4844	220.726	6.2334
10.4857	226.157	6.25293
10.4881	214.965	6.27246
10.4891	220.819	6.29199
10.49071	229.059	6.31152
10.4928	220.87	6.33105
10.4941	224.412	6.35059
10.49597	233.198	6.37012
10.4964	228.768	6.38965
10.4991	222.855	6.40918
10.5002	236.392	6.42871
10.5025	235.508	6.44824
10.5043	228.664	6.46777
10.5057	234.468	6.4873
10.5067	241.827	6.50684
10.5083	231.073	6.52637
10.5101	239.468	6.5459
10.5111	245.659	6.56543
10.5133	236.201	6.58496
10.5144	237.693	6.60449
10.5162	251.418	6.62402
10.5191	240.39	6.64355
10.5198	239.371	6.66309
10.5228	254.896	6.68262
10.5224	248.57	6.70215
10.5245	241.895	6.72168
10.5269	255.339	6.74121
10.5286	253.161	6.76074
10.5287	246.2903	6.78027
10.5317	258.958	6.7998
10.533	259.181	6.81934
10.5334	246.733	6.83887
10.5364	258.691	6.8584
10.5369	264.673	6.87793
10.5391	252.854	6.89746
10.5405	258.993	6.91699
10.5424	267.892	6.93652
10.5449	260.274	6.95605
10.5446	261.325	6.97559
10.54626	272.44	6.99512
10.5489	263.323	7.01465
10.5515	263.084	7.03418
10.553	273.265	7.05371
10.5539	273.14	7.07324
10.5552	262.89	7.09277
10.557	278.26	7.1123
10.55872	278.8743	7.13184
10.5607	270.026	7.15137
10.5622	272.862	7.1709
10.5632	284.706	7.19043
10.5649	271.744	7.20996
10.56769	277.775	7.22949
10.5683	288.728	7.24902
10.5704	279.35	7.26855
10.5725	275.368	7.28809
10.573	293.636	7.30762
10.5751	285.614	7.32715
10.5765	279.874	7.34668
10.5789	292.27	7.36621
10.5804	291.517	7.38574
10.581	282.365	7.40527
10.584	295.0592	7.4248
10.5848	296.245	7.44434
10.5859	288.111	7.46387
10.5888	297.879	7.4834
10.5903	300.472	7.50293
10.591	290.403	7.52246
10.5934	296.237	7.54199
10.5948	307.94	7.56152
10.5962	297.866	7.58105
10.5979	298.82	7.60059
10.5997	307.297	7.62012
10.6017	305.3476	7.63965
10.6037	299.232	7.65918
10.6055	312.314	7.67871
10.6056	308.8616	7.69824
10.6081	303.117	7.71777
10.6089	311.056	7.7373
10.6123	317.278	7.75684
10.6118	303.057	7.77637
10.6139	313.17	7.7959
10.6162	322.908	7.81543
10.6182	312.542	7.83496
10.6193	310.58	7.85449
10.6209	326.032	7.87402
10.6223	314.281	7.89355
10.6246	316.899	7.91309
10.6248	328.518	7.93262
10.62676	322.451	7.95215
10.6286	315.5014	7.97168
10.6304	331.94	7.99121
10.632	329.689	8.01074
10.6347	319.998	8.03027
10.6357	330.147	8.0498
10.6361	335.136	8.06934
10.639	324.467	8.08887
10.6405	331.7056	8.1084
10.6424	338.997	8.12793
10.6437	328.566	8.14746
10.6453	333.924	8.16699
10.6471	342.108	8.18652
10.6479	334.24	8.20605
10.6505	331.396	8.22559
10.6513	348.714	8.24512
10.6542	341.407	8.26465
10.655	338.114	8.28418
10.6566	346.335	8.30371
10.6582	349.068	8.32324
10.6599	337.85	8.34277
10.6608	350.028	8.3623
10.6633	354.617	8.38184
10.6651	342.037	8.40137
10.6673	346.551	8.4209
10.6679	360.952	8.44043
10.6695	345.107	8.45996
10.6722	350.792	8.47949
10.67215	363.285	8.49902
10.6745	354.717	8.51855
10.6772	348.851	8.53809
10.67674	365.937	8.55762
10.67935	358.0722	8.57715
10.6805	353.843	8.59668
10.6824	369.8	8.61621
10.6846	366.254	8.63574
10.6864	353.501	8.65527
10.68805	368.742	8.6748
10.6887	374.402	8.69434
10.6908	360.782	8.71387
10.6927	369.235	8.7334
10.6939	376.769	8.75293
10.6954	365.6481	8.77246
10.6977	368.046	8.79199
10.6978	380.7511	8.81152
10.7003	370.881	8.83105
10.7021	370.287	8.85059
10.7041	382.092	8.87012
10.7057	380.0163	8.88965
10.707	368.558	8.90918
10.7082	386.78	8.92871
10.7111	386.298	8.94824
10.7117	376.1272	8.96777
10.7131	382.666	8.9873
10.7156	391.041	9.00684
10.7166	378.24	9.02637
10.7189	388.118	9.0459
10.7198	396.652	9.06543
10.722	384.538	9.08496
10.7227	383.941	9.10449
10.7248	402.902	9.12402
10.72664	389.9155	9.14355
10.7275	386.0899	9.16309
10.7305	403.125	9.18262
10.7321	399.977	9.20215
10.7336	388.041	9.22168
10.7352	404.7113	9.24121
10.7368	401.231	9.26074
10.7376	391.256	9.28027
10.7387	406.03	9.2998
10.7407	409.307	9.31934
10.7432	394.765	9.33887
10.7448	404.959	9.3584
10.7465	414.737	9.37793
10.7478	402.685	9.39746
10.7496	405.914	9.41699
10.7505	415.9	9.43652
10.7524	409.641	9.45605
10.7549	406.333	9.47559
10.7559	422.054	9.49512
10.758	414.5546	9.51465
10.759	409.109	9.53418
10.7605	419.522	9.55371
10.7623	424.875	9.57324
10.7637	409.129	9.59277
10.7658	423.22	9.6123
10.7669	428.739	9.63184
10.7689	417.484	9.65137
10.7709	420.385	9.6709
10.7718	435.061	9.69043
10.7729	421.196	9.70996
10.7748	424.389	9.72949
10.7769	437.746	9.74902
10.7785	428.534	9.76855
10.7803	421.31	9.78809
10.7816	442.324	9.80762
10.7837	434.356	9.82715
10.78443	425.008	9.84668
10.7869	441.881	9.86621
10.7892	441.7764	9.88574
10.7907	428.394	9.90527
10.7922	443.402	9.9248
10.7933	446.397	9.94434
10.7958	432.946	9.96387
10.7969	444.02	9.9834
10.7989	452.578	10.00293
10.7999	439.9429	10.0225
10.8023	442.436	10.042
10.803	456.059	10.0615
10.8054	445.97	10.0811
10.807	445.697	10.1006
10.8089	454.232	10.1201
10.8108	454.882	10.1396
10.8113	444.052	10.15918
10.8139	460.034	10.1787
10.8145	458.931	10.1982
10.8168	447.724	10.2178
10.8195	457.251	10.2373
10.8193	468.389	10.2568
10.8216	451.423	10.2764
10.8238	460.2905	10.2959
10.8248	469.178	10.31543
10.8259	459.601	10.335
10.8281	458.252	10.3545
10.8294	474.969	10.374
10.8314	462.346	10.3936
10.83391	462.467	10.4131
10.835	477.56	10.4326
10.8363	470.535	10.4521
10.8385	459.944	10.47168
10.8394	477.39	10.4912
10.84117	478.626	10.5107
10.8429	464.726	10.5303
10.8449	479.081	10.5498
10.8457	483.12	10.5693
10.8487	470.958	10.5889
10.8489	478.0083	10.6084
10.8512	487.803	10.62793
10.8524	474.05	10.6475
10.8543	481.262	10.667
10.8544	493.115	10.6865
10.8572	482.264	10.7061
10.859	476.28	10.7256
10.8611	495.235	10.7451
10.8621	489.605	10.7646
10.8637	483.038	10.78418
10.8661	492.302	10.8037
10.8663	497.036	10.8232
10.8685	482.8793	10.8428
10.8706	496.929	10.8623
10.8722	501.878	10.8818
10.8735	488.785	10.9014
10.8754	492.447	10.9209
10.8772	509.107	10.94043
10.8776	492.24	10.96
10.88108	495.88	10.9795
10.8811	510.322	10.999
10.8836	500.821	11.0186
10.8846	495.031	11.0381
10.8864	512.588	11.0576
10.8875	504.813	11.0771
10.8902	497.111	11.09668
10.8911	516.017	11.1162
10.8928	512.324	11.1357
10.8946	498.883	11.1553
10.8956	514.17	11.1748
10.8976	520.428	11.1943
10.8998	506.329	11.2139
10.9002	515.714	11.2334
10.9035	521.971	11.25293
10.90349	511.854	11.2725
10.9055	513.545	11.292
10.9079	528.733	11.3115
10.9087	516.019	11.3311
10.9111	516.624	11.3506
10.91225	527.976	11.3701
10.9142	526.0979	11.3896
10.9163	514.918	11.40918
10.9172	530.784	11.4287
10.9186	532.984	11.4482
10.9205	520.864	11.4678
10.92171	527.975	11.4873
10.9242	537.727	11.5068
10.92585	523.159	11.5264
10.92691	532.036	11.5459
10.9291	544.122	11.56543
10.9314	528.706	11.585
10.9312	528.437	11.6045
10.9337	548.091	11.624
10.9357	535.175	11.6436
10.93755	531.215	11.6631
10.9385	546.775	11.6826
10.9407	542.232	11.7021
10.9413	532.928	11.72168
10.9432	548.355	11.7412
10.94485	549.078	11.7607
10.9476	535.474	11.7803
10.9487	552.223	11.7998
10.9503	554.921	11.8193
10.9531	539.585	11.8389
10.9528	548.837	11.8584
10.955	560.4447	11.87793
10.9565	547.233	11.8975
10.9578	551.314	11.917
10.959	561.393	11.9365
10.9615	554.538	11.9561
10.9641	549.202	11.9756
10.9652	566.624	11.9951
10.9669	558.557	12.0146
10.9675	553.08	12.03418
10.969	565.127	12.0537
10.972	569.479	12.0732
10.9727	551.8269	12.0928
10.9742	566.499	12.1123
10.9759	573.319	12.1318
10.9768	559.719	12.1514
10.9784	563.737	12.1709
10.9795	578.157	12.19043
10.9831	562.448	12.21
10.9845	567.806	12.2295
10.9875	582.7373	12.249
10.9869	571.104	12.2686
10.989	564.179	12.2881
10.9909	584.187	12.3076
10.99264	577.544	12.3271
10.9943	568.2301	12.34668
10.9959	583.087	12.3662
10.9967	582.994	12.3857
10.999	570.813	12.4053
10.9995	583.475	12.4248
11.0025	588.883	12.4443
11.0042	574.978	12.4639
11.0062	585.757	12.4834
11.0069	595.197	12.50293
11.0077	580.918	12.5225
11.0101	581.332	12.542
11.01222	599.862	12.5615
11.013	588.221	12.5811
11.0148	585.944	12.6006
11.0167	595.791	12.6201
11.0183	596.66	12.6396
11.0213	585.584	12.65918
11.021	602.066	12.6787
11.0224	600.331	12.6982
11.025	589.73	12.7178
11.0267	600.33	12.7373
11.0278	609.8797	12.7568
11.0299	590.131	12.7764
11.0316	600.104	12.7959
11.0333	613.476	12.81543
11.0347	601.0506	12.835
11.0365	599.2005	12.8545
11.0384	614.956	12.874
11.0394	603.775	12.8936
11.0411	599.882	12.9131
11.0428	618.455	12.9326
11.0441	610.166	12.9521
11.046	601.052	12.97168
11.0479	618.219	12.9912
11.0492	619.441	13.0107
11.0504	605.211	13.0303
11.0524	620.19	13.0498
11.0545	621.535	13.0693
11.0556	609.7135	13.0889
11.058	619.297	13.1084
11.0584	628.302	13.12793
11.0612	613.852	13.1475
11.0624	620.526	13.167
11.0646	629.422	13.1865
11.0647	623.8432	13.2061
11.0668	616.6803	13.2256
11.07	635.158	13.2451
11.0721	629.8786	13.2646
11.0723	623.022	13.28418
11.0737	631.891	13.3037
11.0751	635.84	13.3232
11.0763	622.167	13.3428
11.0778	637.21	13.3623
11.0808	642.538	13.3818
11.0825	628.241	13.4014
11.0843	632.355	13.4209
11.085	648.1463	13.44043
11.0866	631.178	13.46
11.088	634.4895	13.4795
11.09	650.373	13.499
11.0924	638.339	13.5186
11.0937	633.96	13.5381
11.0947	651.179	13.5576
11.0958	644.673	13.5771
11.098	637.1712	13.59668
11.0999	653.789	13.6162
11.1011	650.164	13.6357
11.1039	637.782	13.6553
11.10429	652.556	13.6748
11.10548	659.912	13.6943
11.1077	645.219	13.7139
11.1093	653.756	13.7334
11.11025	660.3031	13.75293
11.1133	651.51	13.7725
11.115	651.92	13.792
11.116	666.223	13.8115
11.1172	654.764	13.8311
11.1196	653.482	13.8506
11.1203	666.96	13.8701
11.123	664.495	13.8896
11.1242	651.634	13.90918
11.1262	669.957	13.9287
11.1263	669.342	13.9482
11.1284	658.18	13.9678
11.1301	665.271	13.9873
11.1312	675.631	14.0068
11.1344	660.474	14.0264
11.1357	670.146	14.0459
11.1369	679.731	14.06543
11.13838	665.301	14.085
11.1405	666.574	14.1045
11.1419	684.969	14.124
11.1437	671.655	14.1436
11.1459	666.192	14.1631
11.1469	685.202	14.1826
11.1485	678.347	14.2021
11.1505	670.6333	14.22168
11.1518	684.816	14.2412
11.15384	683.201	14.2607
11.1548	672.054	14.2803
11.1566	688.583	14.2998
11.15845	688.39	14.3193
11.1606	678.219	14.3389
11.1618	684.062	14.3584
11.1626	697.365	14.37793
11.164	683.375	14.3975
11.1661	687.048	14.417
11.1693	696.161	14.4365
11.1702	691.112	14.4561
11.1713	685.494	14.4756
11.1725	702.799	14.4951
11.1749	694.098	14.5146
11.1764	688.158	14.53418
11.1779	699.352	14.5537
11.1795	703.657	14.5732
11.1812	687.863	14.5928
11.1834	702.447	14.6123
11.185	708.868	14.6318
11.1863	695.94	14.6514
11.187	700.207	14.6709
11.1895	713.404	14.69043
11.1901	698.125	14.71
11.19187	702.382	14.7295
11.1943	717.442	14.749
11.1961	703.707	14.7686
11.1977	700.201	14.7881
11.1992	718.912	14.8076
11.2009	711.142	14.8271
11.2028	703.394	14.84668
11.2043	719.328	14.8662
11.2057	717.039	14.8857
11.2061	708.094	14.9053
11.2075	719.416	14.9248
11.2093	722.1947	14.9443
11.213	710.7912	14.9639
11.2133	720.7522	14.9834
11.2158	726.093	15.00293
11.2166	716.186	15.0225
11.2198	716.119	15.042
11.2207	732.331	15.0615
11.222	723.826	15.0811
11.2235	720.9231	15.1006
11.2253	731.817	15.1201
11.2269	728.844	15.1396
11.2288	720.115	15.15918
11.2292	737.825	15.1787
11.2313	734.406	15.1982
11.2332	723.549	15.2178
11.2343	733.831	15.2373
11.2361	741.612	15.2568
11.238	725.297	15.2764
11.2395	734.217	15.2959
11.2413	746.053	15.31543
11.24269	732.711	15.335
11.2443	733.942	15.3545
11.2462	748.347	15.374
11.2476	737.012	15.3936
11.2502	735.14	15.4131
11.2507	752.744	15.4326
11.2522	743.122	15.4521
11.2544	734.917	15.47168
11.2557	751.471	15.4912
11.2576	750.13	15.5107
11.259	738.291	15.5303
11.2599	752.237	15.5498
11.26217	753.371	15.5693
11.2643	743.34	15.5889
11.2657	750.732	15.6084
11.2675	760.552	15.62793
11.2684	746.947	15.6475
11.2704	752.5802	15.667
11.2725	761.093	15.6865
11.2736	754.231	15.7061
11.275	748.786	15.7256
11.2778	766.559	15.7451
11.2781	761.566	15.7646
11.2799	753.437	15.78418
11.2815	765.155	15.8037
11.2837	764.914	15.8232
11.2851	754.2	15.8428
11.28549	766.9093	15.8623
11.2886	773.399	15.8818
11.2897	757.385	15.9014
11.293	764.432	15.9209
11.2946	778.672	15.94043
11.2947	763.952	15.96
11.29655	764.108	15.9795
11.2994	780.547	15.999
11.2995	768.676	16.0186
11.3013	768.794	16.0381
11.3031	780.209	16.0576
11.3053	774.044	16.0771
11.3072	767.541	16.09668
11.3079	785.946	16.1162
11.3097	779.728	16.1357
11.3114	769.476	16.1553
11.3134	780.868	16.1748
11.315	788.171	16.1943
11.316	775.702	16.2139
11.3183	783.097	16.2334
11.3197	788.011	16.25293
11.3196	779.953	16.2725
11.3229	781.762	16.292
11.3243	795.993	16.3115
11.3257	784.526	16.3311
11.32619	783.557	16.3506
11.3283	795.662	16.3701
11.3307	793.334	16.3896
11.3318	782.771	16.40918
11.3342	798.2821	16.4287
11.3351	799.239	16.4482
11.3377	786.807	16.4678
11.3402	794.347	16.4873
11.3406	803.3006	16.5068
11.3428	789.838	16.5264
11.343	797.704	16.5459
11.3457	808.883	16.56543
11.3464	793.46	16.585
11.3485	796.537	16.6045
11.3503	810.4339	16.624
11.3521	800.204	16.6436
11.3538	795.823	16.6631
11.3547	813.624	16.6826
11.3571	803.192	16.7021
11.3585	800.97	16.72168
11.36018	813.851	16.7412
11.3612	810.889	16.7607
11.3624	799.766	16.7803
11.3653	816.377	16.7998
11.3665	816.079	16.8193
11.3696	806.516	16.8389
11.3701	810.629	16.8584
11.3722	824.608	16.87793
11.37283	811.455	16.8975
11.3746	815.135	16.917
11.3755	822.197	16.9365
11.378	816.576	16.9561
11.38	812.1759	16.9756
11.3811	828.34	16.9951
11.3823	821.786	17.0146
11.3846	813.948	17.03418
11.3865	827.4375	17.0537
11.3883	828.573	17.0732
11.3887	814.384	17.0928
11.3917	828.0224	17.1123
11.3931	834.454	17.1318
11.3948	820.605	17.1514
11.395	826.315	17.1709
11.3982	836.03	17.19043
11.3998	823.157	17.21
11.40083	826.862	17.2295
11.4023	841.593	17.249
11.4035	826.852	17.2686
11.4052	826.5874	17.2881
11.4079	841.741	17.3076
11.4081	836.279	17.3271
11.4097	828.148	17.34668
11.4117	845.109	17.3662
11.41404	837.966	17.3857
11.4165	832.036	17.4053
11.4171	840.977	17.4248
11.4195	847.785	17.4443
11.4198	832.482	17.4639
11.4212	843.76	17.4834
11.4237	850.46	17.50293
11.4256	839.148	17.5225
11.4263	840.422	17.542
11.4278	855.932	17.5615
11.4301	846.428	17.5811
11.4313	843.886	17.6006
11.4335	854.106	17.6201
11.4345	851.317	17.6396
11.43725	842.964	17.65918
11.43749	857.799	17.6787
11.4398	856.491	17.6982
11.4427	845.153	17.7178
11.4423	856.095	17.7373
11.4443	862.504	17.7568
11.4466	848.0545	17.7764
11.44759	855.546	17.7959
11.4501	866.495	17.81543
11.4513	853.013	17.835
11.4524	855.957	17.8545
11.4549	867.625	17.874
11.456	859.37	17.8936
11.4574	856.363	17.9131
11.4594	873.989	17.9326
11.4607	861.9267	17.9521
11.4629	858.137	17.97168
11.4645	870.883	17.9912
11.4657	871.303	18.0107
11.4674	859.347	18.0303
11.4687	872.565	18.0498
11.4711	873.317	18.0693
11.4716	863.877	18.0889
11.474	869.582	18.1084
11.47535	878.134	18.12793
11.4773	867.334	18.1475
11.4786	871.84	18.167
11.4798	881.089	18.1865
11.4817	873.565	18.2061
11.4831	868.054	18.2256
11.4864	884.0965	18.2451
11.486	880.729	18.2646
11.4888	872.871	18.28418
11.48996	882.221	18.3037
11.4913	882.49	18.3232
11.4933	873.846	18.3428
11.4949	884.887	18.3623
11.4971	889.986	18.3818
11.4981	874.913	18.4014
11.50014	884.837	18.4209
11.5013	893.748	18.44043
11.5025	881.326	18.46
11.5048	883.304	18.4795
11.5055	896.3288	18.499
11.5083	885.219	18.5186
11.5096	886.1991	18.5381
11.5113	897.056	18.5576
11.5123	891.731	18.5771
11.5139	887.602	18.59668
11.5162	900.935	18.6162
11.51801	895.422	18.6357
11.5201	888.13	18.6553
11.5201	896.903	18.6748
11.5221	902.13	18.6943
11.5251	890.1731	18.7139
11.5257	899.549	18.7334
11.5283	902.372	18.75293
11.528	895.856	18.7725
11.5307	896.458	18.792
11.5328	908.346	18.8115
11.5342	898.553	18.8311
11.5363	896.812	18.8506
11.5379	910.49	18.8701
11.5396	905.9549	18.8896
11.542	896.442	18.90918
11.5421	909.807	18.9287
11.5439	910.999	18.9482
11.5463	899.896	18.9678
11.5471	909.038	18.9873
11.549	913.259	19.0068
11.55083	902.786	19.0264
11.5524	910.05	19.0459
11.5538	921.432	19.06543
11.5552	904.045	19.085
11.5572	910.132	19.1045
11.5595	920.985	19.124
11.5605	912.541	19.1436
11.56167	911.143	19.1631
11.5623	925.891	19.1826
11.5646	914.057	19.2021
11.5667	912.711	19.22168
11.5683	922.109	19.2412
11.5704	921.284	19.2607
11.5722	912.001	19.2803
11.5732	924.224	19.2998
11.5743	925.281	19.3193
11.5767	915.783	19.3389
11.5777	921.192	19.3584
11.58005	931.005	19.37793
11.5817	920.575	19.3975
11.5837	921.933	19.417
11.5848	930.351	19.4365
11.5861	924.149	19.4561
11.5888	922.7829	19.4756
11.5899	934.547	19.4951
11.5901	928.254	19.5146
11.5932	921.044	19.53418
11.5957	934.682	19.5537
11.5954	933.3559	19.5732
11.5965	923.4176	19.5928
11.5993	933.207	19.6123
11.6011	938.417	19.6318
11.6016	925.519	19.6514
11.6045	934.645	19.6709
11.6057	940.032	19.69043
11.6085	929.311	19.71
11.6099	932.91	19.7295
11.6114	946.409	19.749
11.6125	931.8866	19.7686
11.6145	933.362	19.7881
11.61572	944.764	19.8076
11.6169	941.387	19.8271
11.6191	934.8949	19.84668
11.6205	947.619	19.8662
11.6219	942.476	19.8857
11.62381	937.537	19.9053
11.6251	944.752	19.9248
11.6274	948.241	19.9443
11.629	937.326	19.9639
11.6302	944.7428	19.9834
11.6316	950.762	20.00293
11.6331	946.462	20.0127

Data Header:			0.254_solid_dimension_typei_090_r0			Time:	40.0195	s	4/15/2019 2:27:06 PM
Data Acquisition:	Timed
Station Name:	ft40.cfg
Test File Name:	monotonic_0.2540_typei_solid_090_dimension.tst
Displacement	Force	Running Time
mm	N	s
11.63414	941.335	20.0225
11.6349	941.789	20.042
11.6366	954.9212	20.0615
11.63785	946.161	20.0811
11.6399	942.831	20.1006
11.6418	955.721	20.1201
11.6435	949.3	20.1396
11.64485	943.462	20.15918
11.6472	956.2171	20.1787
11.647	956.0025	20.1982
11.6496	943.501	20.2178
11.6511	955.353	20.2373
11.6521	958.6618	20.2568
11.6553	946.953	20.2764
11.6561	953.407	20.2959
11.6574	965.86	20.31543
11.6597	950.465	20.335
11.6611	956.323	20.3545
11.6624	962.788	20.374
11.6644	955.321	20.3936
11.6672	953.823	20.4131
11.6678	968.214	20.4326
11.6687	956.723	20.4521
11.6718	954.511	20.47168
11.67213	964.8399	20.4912
11.6742	965.2334	20.5107
11.6766	956.588	20.5303
11.6773	964.1546	20.5498
11.6784	966.887	20.5693
11.6815	957.959	20.5889
11.68184	964.025	20.6084
11.6849	970.394	20.62793
11.6859	961.052	20.6475
11.6878	963.716	20.667
11.6886	971.989	20.6865
11.6904	963.969	20.7061
11.6928	960.256	20.7256
11.6941	973.992	20.7451
11.6945	971.029	20.7646
11.6968	962.835	20.78418
11.6986	972.3924	20.8037
11.6996	972.123	20.8232
11.7014	965.338	20.8428
11.7036	975.197	20.8623
11.7046	980.0166	20.8818
11.708	962.263	20.9014
11.7093	974.367	20.9209
11.71	978.91	20.94043
11.7108	969.311	20.96
11.7132	971.8703	20.9795
11.7146	984.2821	20.999
11.7161	968.812	21.0186
11.7185	973.036	21.0381
11.7199	981.801	21.0576
11.7208	976.19	21.0771
11.7228	970.007	21.09668
11.725	984.857	21.1162
11.7268	977.326	21.1357
11.729	970.324	21.1553
11.7292	980.894	21.1748
11.73167	986.112	21.1943
11.7329	974.5365	21.2139
11.734	980.474	21.2334
11.7359	984.434	21.25293
11.7376	976.7431	21.2725
11.7389	978.781	21.292
11.7399	988.375	21.3115
11.7423	979.367	21.3311
11.744	975.883	21.3506
11.7458	989.877	21.3701
11.7479	982.9679	21.3896
11.74896	977.6933	21.40918
11.7512	988.173	21.4287
11.7521	988.0329	21.4482
11.75283	978.0899	21.4678
11.7552	988.712	21.4873
11.7573	990.27	21.5068
11.7593	980.743	21.5264
11.7604	987.9137	21.5459
11.7614	996.115	21.56543
11.7635	979.4043	21.585
11.7656	986.017	21.6045
11.7674	994.759	21.624
11.7693	986.246	21.6436
11.7702	982.223	21.6631
11.7712	997.455	21.6826
11.7735	986.044	21.7021
11.7749	985.3139	21.72168
11.7769	993.524	21.7412
11.7785	991.054	21.7607
11.7794	983.106	21.7803
11.781	997.513	21.7998
11.7833	994.58	21.8193
11.7841	985.076	21.8389
11.7857	989.268	21.8584
11.7883	998.92	21.87793
11.7896	990.493	21.8975
11.7918	991.691	21.917
11.7928	998.873	21.9365
11.7951	990.761	21.9561
11.797	989.056	21.9756
11.7979	1001.52	21.9951
11.7993	994.865	22.0146
11.8011	987.316	22.03418
11.8025	1000.78	22.0537
11.8047	998.379	22.0732
11.8055	987.895	22.0928
11.8079	998.616	22.1123
11.8097	1001.89	22.1318
11.8118	988.228	22.1514
11.8121	998.937	22.1709
11.8133	1001.827	22.19043
11.8167	991.402	22.21
11.81863	996.096	22.2295
11.81852	1007.63	22.249
11.82	990.631	22.2686
11.8227	994.843	22.2881
11.8233	1003.8	22.3076
11.8259	1000.35	22.3271
11.8275	993.454	22.34668
11.8288	1004.36	22.3662
11.8303	1000.04	22.3857
11.8309	994.071	22.4053
11.8336	1002.04	22.4248
11.8351	1004.31	22.4443
11.8363	994.198	22.4639
11.8386	1001.46	22.4834
11.8407	1006.72	22.50293
11.8418	996.438	22.5225
11.8441	997	22.542
11.8442	1007.02	22.5615
11.84733	1000.32	22.5811
11.84915	996.538	22.6006
11.8503	1007.17	22.6201
11.8526	1001.74	22.6396
11.8535	997.737	22.65918
11.8549	1007.05	22.6787
11.8571	1007.88	22.6982
11.85816	992.689	22.7178
11.8604	1006.95	22.7373
11.86132	1008.54	22.7568
11.8638	998.169	22.7764
11.8651	1004.56	22.7959
11.8664	1012.59	22.81543
11.8687	998.155	22.835
11.8692	1005.13	22.8545
11.8709	1010.504	22.874
11.872	1001.3	22.8936
11.8741	1001.37	22.9131
11.8761	1015.73	22.9326
11.8774	1003.631	22.9521
11.8795	999.713	22.97168
11.8809	1009.96	22.9912
11.8836	1008.93	23.0107
11.8845	999.791	23.0303
11.8861	1008.48	23.0498
11.8872	1007.63	23.0693
11.8881	1000.37	23.0889
11.8902	1006.69	23.1084
11.8916	1011.26	23.12793
11.8939	1001.999	23.1475
11.8955	1003.13	23.167
11.897	1013.55	23.1865
11.8987	1003.75	23.2061
11.90034	1003.24	23.2256
11.9021	1012.36	23.2451
11.904	1009.25	23.2646
11.9051	999.24	23.28418
11.9068	1013.11	23.3037
11.9086	1009.17	23.3232
11.9108	1000.82	23.3428
11.9121	1012.03	23.3623
11.9129	1015.76	23.3818
11.9139	997.952	23.4014
11.9168	1010.36	23.4209
11.9185	1015.07	23.44043
11.9196	1004.182	23.46
11.9218	1006.58	23.4795
11.9236	1015.12	23.499
11.9236	1002.2	23.5186
11.9258	1007.01	23.5381
11.9287	1012.57	23.5576
11.9298	1007.62	23.5771
11.9318	1001.84	23.59668
11.9316	1015.84	23.6162
11.934	1008.89	23.6357
11.93742	1002.43	23.6553
11.9376	1010.25	23.6748
11.9387	1013.71	23.6943
11.94046	1006.1	23.7139
11.9433	1009.26	23.7334
11.9439	1012.86	23.75293
11.9466	1003.65	23.7725
11.9474	1008.92	23.792
11.9497	1015.82	23.8115
11.9517	1007.11	23.8311
11.9519	1002.9	23.8506
11.9534	1017.91	23.8701
11.9563	1007.79	23.8896
11.9564	1001.32	23.90918
11.9586	1013.74	23.9287
11.9611	1014.33	23.9482
11.9623	1000.75	23.9678
11.964	1013.01	23.9873
11.9659	1012.502	24.0068
11.9669	1002.39	24.0264
11.9692	1010.43	24.0459
11.9708	1019.16	24.06543
11.972	1000.78	24.085
11.9748	1007.94	24.1045
11.9753	1014.92	24.124
11.9764	1007.05	24.1436
11.9784	1005.31	24.1631
11.9809	1016.19	24.1826
11.982	1006.94	24.2021
11.9833	1005.04	24.22168
11.9853	1014.19	24.2412
11.9863	1010.88	24.2607
11.9878	1003.95	24.2803
11.99	1013.2	24.2998
11.9917	1014.11	24.3193
11.993	1002.71	24.3389
11.99478	1009.95	24.3584
11.997	1013.12	24.37793
11.9976	1007.36	24.3975
11.9999	1006.724	24.417
12.0002	1016.41	24.4365
12.003	1005.31	24.4561
12.005	1004.16	24.4756
12.0057	1014.788	24.4951
12.0076	1009.23	24.5146
12.00915	1000.447	24.53418
12.0109	1015.53	24.5537
12.0129	1010.88	24.5732
12.0147	1001.68	24.5928
12.0154	1010.98	24.6123
12.0173	1015.54	24.6318
12.01889	999.89	24.6514
12.0212	1011.35	24.6709
12.0225	1013.4	24.69043
12.0238	1003.72	24.71
12.0256	1007.06	24.7295
12.0269	1018.27	24.749
12.0294	1003.13	24.7686
12.02995	1004.23	24.7881
12.0325	1014.23	24.8076
12.0345	1010.12	24.8271
12.0353	1004.25	24.84668
12.0363	1013.65	24.8662
12.0391	1007.87	24.8857
12.0408	1003.35	24.9053
12.0425	1010.8	24.9248
12.0437	1011.61	24.9443
12.045	1002.15	24.9639
12.0465	1007.64	24.9834
12.0492	1014.88	25.00293
12.0505	1003.94	25.0225
12.051	1004.049	25.042
12.05299	1013.04	25.0615
12.0558	1007.32	25.0811
12.0564	1003.65	25.1006
12.058	1014.22	25.1201
12.0597	1006.494	25.1396
12.06134	1002.43	25.15918
12.0627	1013.93	25.1787
12.065	1012.16	25.1982
12.0664	998.086	25.2178
12.0679	1012.19	25.2373
12.0698	1011.187	25.2568
12.0712	1000.86	25.2764
12.0734	1009.402	25.2959
12.0752	1011.92	25.31543
12.0759	999.51	25.335
12.0787	1007.63	25.3545
12.07915	1010.76	25.374
12.0817	1003.22	25.3936
12.0825	1002.17	25.4131
12.0851	1013.12	25.4326
12.0864	1004.24	25.4521
12.0883	1000.72	25.47168
12.0902	1009.82	25.4912
12.0909	1008.25	25.5107
12.0921	1001.01	25.5303
12.0937	1009.2	25.5498
12.0966	1007.51	25.5693
12.0973	999.338	25.5889
12.0987	1005.76	25.6084
12.1012	1012	25.62793
12.10244	1000.71	25.6475
12.1045	1000.74	25.667
12.1054	1012.75	25.6865
12.1063	1003.46	25.7061
12.1088	1001.13	25.7256
12.1096	1010.88	25.7451
12.1116	1007.07	25.7646
12.1146	997.793	25.78418
12.1148	1012.24	25.8037
12.1164	1005.642	25.8232
12.11804	998.67	25.8428
12.1205	1010.85	25.8623
12.1215	1010.87	25.8818
12.1232	994.612	25.9014
12.126	1005.46	25.9209
12.1267	1011.301	25.94043
12.1282	1001.014	25.96
12.1303	1002.8	25.9795
12.1316	1010.75	25.999
12.1339	996.596	26.0186
12.13443	1001.17	26.0381
12.1351	1010.37	26.0576
12.1375	1001.53	26.0771
12.1397	998.978	26.09668
12.1409	1008.67	26.1162
12.1438	1005.58	26.1357
12.1438	996.27	26.1553
12.1466	1003.98	26.1748
12.1485	1006.21	26.1943
12.1491	997.081	26.2139
12.151	1001.86	26.2334
12.1532	1007.48	26.25293
12.1547	996.531	26.2725
12.1559	1001.9	26.292
12.1576	1010.14	26.3115
12.15912	1000.85	26.3311
12.1612	993.855	26.3506
12.16222	1010.03	26.3701
12.1646	1002.16	26.3896
12.1662	996.362	26.40918
12.167	1007.27	26.4287
12.1684	1007.39	26.4482
12.1713	993.617	26.4678
12.1718	1007.25	26.4873
12.1735	1003.91	26.5068
12.1765	995.402	26.5264
12.1774	1001.74	26.5459
12.1788	1008.43	26.56543
12.1803	992.799	26.585
12.1815	999.369	26.6045
12.1826	1008.05	26.624
12.1858	999.176	26.6436
12.1865	997.502	26.6631
12.1894	1008.16	26.6826
12.1896	997.073	26.7021
12.19122	996.026	26.72168
12.19328	1006.042	26.7412
12.1947	1000.41	26.7607
12.1961	993.5061	26.7803
12.1985	1003.8	26.7998
12.1999	1006.12	26.8193
12.201	993.3266	26.8389
12.2025	999.517	26.8584
12.2055	1005.71	26.87793
12.206	998.468	26.8975
12.2083	997.143	26.917
12.2104	1006.84	26.9365
12.2122	994.983	26.9561
12.2139	996.774	26.9756
12.2149	1006.32	26.9951
12.21686	999.954	27.0146
12.2181	990.297	27.03418
12.2192	1005.46	27.0537
12.2204	1000.75	27.0732
12.2219	993.071	27.0928
12.2238	1001.28	27.1123
12.2259	1003.68	27.1318
12.2284	988.611	27.1514
12.2294	1001.21	27.1709
12.2299	1003.283	27.19043
12.2319	992.675	27.21
12.2336	997.281	27.2295
12.2351	1005.38	27.249
12.2374	992.48	27.2686
12.2393	994.692	27.2881
12.2408	1003.07	27.3076
12.2429	996.297	27.3271
12.2437	993.17	27.34668
12.245	1002.62	27.3662
12.2478	997.324	27.3857
12.2483	991.819	27.4053
12.2509	999.58	27.4248
12.25219	1000.06	27.4443
12.2534	992.424	27.4639
12.2549	997.326	27.4834
12.25749	1004.84	27.50293
12.2588	991.143	27.5225
12.26	993.247	27.542
12.2618	1003.92	27.5615
12.2629	995.934	27.5811
12.2643	991.371	27.6006
12.2665	1004.29	27.6201
12.2681	993.577	27.6396
12.2702	991.679	27.65918
12.2712	1001.66	27.6787
12.2737	1000.03	27.6982
12.2742	984.932	27.7178
12.2764	1000.22	27.7373
12.2774	999.707	27.7568
12.27953	989.62	27.7764
12.2808	995.506	27.7959
12.2826	1002.34	27.81543
12.2845	988.076	27.835
12.2865	995.56	27.8545
12.2875	1001.23	27.874
12.2897	990.528	27.8936
12.2912	992.206	27.9131
12.2936	1002.54	27.9326
12.2958	992.987	27.9521
12.2964	989.842	27.97168
12.2981	997.629	27.9912
12.2986	998.546	28.0107
12.3007	990.58	28.0303
12.3019	996.69	28.0498
12.30446	997.003	28.0693
12.305	988.1	28.0889
12.3078	994.059	28.1084
12.3082	999.634	28.12793
12.3107	989.707	28.1475
12.3122	988.058	28.167
12.3139	1002.36	28.1865
12.3158	991.295	28.2061
12.3169	989.124	28.2256
12.3181	1001.24	28.2451
12.3201	994.14	28.2646
12.3217	986.411	28.28418
12.3232	1001.65	28.3037
12.3254	993.7193	28.3232
12.3274	986.921	28.3428
12.3283	998.171	28.3623
12.3297	1000.72	28.3818
12.3314	984.333	28.4014
12.333	995.142	28.4209
12.33501	998.671	28.44043
12.3374	989.095	28.46
12.3377	991.888	28.4795
12.3398	1000	28.499
12.3414	985.942	28.5186
12.3443	991.257	28.5381
12.3446	999.262	28.5576
12.3469	989.63	28.5771
12.3485	987.77	28.59668
12.349	997.481	28.6162
12.351	993.824	28.6357
12.3529	986.677	28.6553
12.3535	996.203	28.6748
12.356	995.286	28.6943
12.3586	988.754	28.7139
12.3596	990.509	28.7334
12.3615	998.068	28.75293
12.3614	985.292	28.7725
12.3643	989.893	28.792
12.365	1000.1	28.8115
12.3676	990.474	28.8311
12.3679	983.536	28.8506
12.3697	999.065	28.8701
12.3717	990.673	28.8896
12.3746	987.155	28.90918
12.37598	996.977	28.9287
12.3768	995.61	28.9482
12.3785	981.8891	28.9678
12.38	997.139	28.9873
12.382	994.547	29.0068
12.3837	985.514	29.0264
12.3856	994.443	29.0459
12.386	998.5495	29.06543
12.3873	983.505	29.085
12.3891	989.052	29.1045
12.3913	996.635	29.124
12.3924	987.166	29.1436
12.3942	987.382	29.1631
12.3962	995.356	29.1826
12.3975	987.603	29.2021
12.4004	986.482	29.22168
12.4005	996.553	29.2412
12.4033	990.0744	29.2607
12.404	984.003	29.2803
12.4055	992.219	29.2998
12.4076	994.2843	29.3193
12.4093	982.883	29.3389
12.4114	989.6748	29.3584
12.4127	994.381	29.37793
12.414	988.206	29.3975
12.4146	986.412	29.417
12.4166	997.441	29.4365
12.4198	985.693	29.4561
12.4203	986.199	29.4756
12.4226	997.536	29.4951
12.4241	992.236	29.5146
12.4261	980.355	29.53418
12.4264	996.694	29.5537
12.4292	991.966	29.5732
12.4304	983.685	29.5928
12.4326	993.0274	29.6123
12.4341	994.563	29.6318
12.4362	980.851	29.6514
12.4373	992.219	29.6709
12.4384	993.683	29.69043
12.4409	983.12	29.71
12.442	986.767	29.7295
12.4425	997.705	29.749
12.4451	984.59	29.7686
12.4464	985.732	29.7881
12.4485	994.426	29.8076
12.4494	988.712	29.8271
12.4515	985.945	29.84668
12.4526	991.979	29.8662
12.455	989.004	29.8857
12.4573	982.039	29.9053
12.4583	992.17	29.9248
12.4598	991.488	29.9443
12.4612	982.604	29.9639
12.4622	987.397	29.9834
12.4639	995.752	30.00293
12.4659	983.6972	30.0225
12.4687	987.6543	30.042
12.4697	994.849	30.0615
12.4703	988.88	30.0811
12.4732	981.944	30.1006
12.4744	996.75	30.1201
12.4761	986.0791	30.1396
12.4777	982.7757	30.15918
12.4793	994.801	30.1787
12.4812	994.076	30.1982
12.4828	979.092	30.2178
12.4846	992.278	30.2373
12.4869	992.31	30.2568
12.4868	983.588	30.2764
12.4886	990.0202	30.2959
12.4905	995.2558	30.31543
12.4928	981.811	30.335
12.4947	987.374	30.3545
12.4952	994.607	30.374
12.4973	983.51	30.3936
12.4992	984.373	30.4131
12.5003	994.349	30.4326
12.5019	985.701	30.4521
12.5036	981.444	30.47168
12.5049	991.434	30.4912
12.50642	990.143	30.5107
12.5085	983.954	30.5303
12.5099	989.137	30.5498
12.5113	990.248	30.5693
12.5127	980.206	30.5889
12.5155	989.338	30.6084
12.5173	994.122	30.62793
12.5189	982.748	30.6475
12.51967	982.888	30.667
12.5211	995.34	30.6865
12.5236	984.203	30.7061
12.5243	983.07	30.7256
12.5261	995.003	30.7451
12.5273	988.921	30.7646
12.5302	979.18	30.78418
12.5306	993.406	30.8037
12.5337	988.463	30.8232
12.5335	980.65	30.8428
12.5361	992.787	30.8623
12.5381	993.828	30.8818
12.5397	979.712	30.9014
12.5401	988.562	30.9209
12.543	992.824	30.94043
12.5436	983.597	30.96
12.5459	985.929	30.9795
12.5475	993.427	30.999
12.5495	983.494	31.0186
12.5515	984.142	31.0381
12.552	994.151	31.0576
12.5532	983.974	31.0771
12.5549	981.818	31.09668
12.5569	991.496	31.1162
12.5584	990.1098	31.1357
12.56041	980.889	31.1553
12.5616	988.552	31.1748
12.5647	990.433	31.1943
12.5652	983.61	31.2139
12.5666	985.922	31.2334
12.5694	994.111	31.25293
12.5703	979.552	31.2725
12.5726	985.201	31.292
12.5728	993.798	31.3115
12.5747	984.888	31.3311
12.5775	978.557	31.3506
12.5787	993.135	31.3701
12.581	985.105	31.3896
12.5814	982.796	31.40918
12.5838	991.5152	31.4287
12.5843	988.9433	31.4482
12.5875	976.98	31.4678
12.5879	991.681	31.4873
12.58975	987.597	31.5068
12.5919	980.817	31.5264
12.5937	987.972	31.5459
12.59405	994.7	31.56543
12.5959	980.343	31.585
12.5984	986.105	31.6045
12.5993	993.316	31.624
12.6009	983.23	31.6436
12.6031	985.154	31.6631
12.6052	991.147	31.6826
12.606	983.4469	31.7021
12.607	981.302	31.72168
12.61	992.506	31.7412
12.6108	988.071	31.7607
12.6128	982	31.7803
12.6133	987.943	31.7998
12.6152	991.727	31.8193
12.6175	979.318	31.8389
12.6197	987.225	31.8584
12.6214	990.661	31.87793
12.62204	983.363	31.8975
12.6244	983.914	31.917
12.625	995.049	31.9365
12.6275	980.311	31.9561
12.6278	982.463	31.9756
12.63153	994.908	31.9951
12.632	987.614	32.0146
12.6316	978.424	32.03418
12.6355	992.161	32.0537
12.6373	988.148	32.0732
12.63901	981.291	32.0928
12.6409	988.232	32.1123
12.6422	989.507	32.1318
12.6428	977.784	32.1514
12.6451	989.409	32.1709
12.64701	993.216	32.19043
12.6487	979.996	32.21
12.65	983.441	32.2295
12.6516	993.606	32.249
12.6534	982.235	32.2686
12.6549	981.179	32.2881
12.6574	990.997	32.3076
12.6591	984.147	32.3271
12.6604	982.633	32.34668
12.6619	989.101	32.3662
12.663	986.469	32.3857
12.66549	976.4198	32.4053
12.6661	988.8736	32.4248
12.6673	989.541	32.4443
12.67	980.457	32.4639
12.6709	982.497	32.4834
12.67324	991.455	32.50293
12.6738	978.835	32.5225
12.6763	983.063	32.542
12.6774	990.966	32.5615
12.6792	982.031	32.5811
12.6803	980.045	32.6006
12.6831	993.047	32.6201
12.6845	982.95	32.6396
12.68566	979.299	32.65918
12.6876	991.585	32.6787
12.68966	989.405	32.6982
12.6912	975.677	32.7178
12.6936	988.995	32.7373
12.6938	987.969	32.7568
12.69614	980.185	32.7764
12.6969	985.82	32.7959
12.6993	990.488	32.81543
12.7008	977.745	32.835
12.7014	984.117	32.8545
12.7041	990.143	32.874
12.7046	980.412	32.8936
12.7063	980.0509	32.9131
12.7091	988.9223	32.9326
12.7104	984.279	32.9521
12.7112	978.372	32.97168
12.7134	987.471	32.9912
12.7157	986.052	33.0107
12.7161	979.4563	33.0303
12.7185	986.319	33.0498
12.7201	987.771	33.0693
12.72137	977.738	33.0889
12.724	984.582	33.1084
12.7242	992.051	33.12793
12.7264	981.97	33.1475
12.7281	979.859	33.167
12.73	993.245	33.1865
12.7315	980.558	33.2061
12.7334	981.53	33.2256
12.7342	990.203	33.2451
12.7359	984.808	33.2646
12.739	976.0567	33.28418
12.7401	991.95	33.3037
12.7413	983.893	33.3232
12.7428	975.937	33.3428
12.7449	987.977	33.3623
12.746	989.769	33.3818
12.7472	976.369	33.4014
12.7499	986.265	33.4209
12.7505	989.672	33.44043
12.7523	979.923	33.46
12.7532	985.552	33.4795
12.7563	989.512	33.499
12.7584	979.176	33.5186
12.7586	980.894	33.5381
12.7609	990.09	33.5576
12.7627	981.635	33.5771
12.7644	980.278	33.59668
12.7661	986.341	33.6162
12.7671	987.722	33.6357
12.7689	977.062	33.6553
12.7702	987.831	33.6748
12.7717	987.3103	33.6943
12.7736	980.139	33.7139
12.77559	982.7356	33.7334
12.7771	990.906	33.75293
12.7791	976.929	33.7725
12.7804	982.96	33.792
12.7826	990.194	33.8115
12.7833	981.094	33.8311
12.7849	975.124	33.8506
12.786	990.615	33.8701
12.7892	982.203	33.8896
12.7901	978.573	33.90918
12.79213	987.6228	33.9287
12.7935	984.1972	33.9482
12.79481	975.073	33.9678
12.7954	986.915	33.9873
12.7982	986.147	34.0068
12.7989	976.175	34.0264
12.8008	983.4975	34.0459
12.8038	989.57	34.06543
12.80441	975.438	34.085
12.8064	979.473	34.1045
12.8082	989.778	34.124
12.8096	980.052	34.1436
12.8102	982.789	34.1631
12.8137	987.214	34.1826
12.8139	981.05	34.2021
12.8164	976.51	34.22168
12.8181	988.926	34.2412
12.81916	983.185	34.2607
12.8208	978.76	34.2803
12.8237	982.418	34.2998
12.8244	989.723	34.3193
12.8252	977.157	34.3389
12.8267	984.722	34.3584
12.8286	987.281	34.37793
12.8311	980.007	34.3975
12.834	979.4472	34.417
12.8341	990.474	34.4365
12.8354	978.079	34.4561
12.8372	979.122	34.4756
12.8391	990.921	34.4951
12.8415	984.529	34.5146
12.8426	973.627	34.53418
12.845	989.051	34.5537
12.8455	983.868	34.5732
12.8482	977.595	34.5928
12.8476	986.217	34.6123
12.8497	985.906	34.6318
12.8518	974.132	34.6514
12.8535	983.74	34.6709
12.855	988.758	34.69043
12.8578	975.507	34.71
12.8581	982.056	34.7295
12.8597	987.767	34.749
12.861	979.804	34.7686
12.8631	978.211	34.7881
12.8636	987.9873	34.8076
12.8666	981.095	34.8271
12.8689	980.148	34.84668
12.8692	985.076	34.8662
12.8714	983.617	34.8857
12.8732	975.361	34.9053
12.8741	986.969	34.9248
12.8763	987.891	34.9443
12.8773	978.291	34.9639
12.8811	979.628	34.9834
12.8807	989.718	35.00293
12.8826	976.983	35.0225
12.8845	982.206	35.042
12.8853	988.809	35.0615
12.8883	981.0448	35.0811
12.8889	977.906	35.1006
12.8912	992.237	35.1201
12.8934	981.406	35.1396
12.8943	977.152	35.15918
12.8953	988.406	35.1787
12.8973	985.483	35.1982
12.8988	974.486	35.2178
12.9013	985.5387	35.2373
12.9026	987.6875	35.2568
12.9029	977.038	35.2764
12.9043	985.491	35.2959
12.90805	987.98	35.31543
12.909	976.579	35.335
12.9104	980.96	35.3545
12.9122	989.427	35.374
12.9142	979.218	35.3936
12.91545	979.468	35.4131
12.9159	987.241	35.4326
12.9186	982.66	35.4521
12.9203	976.347	35.47168
12.9203	987.213	35.4912
12.9232	983.511	35.5107
12.925	978.351	35.5303
12.9274	984.7973	35.5498
12.9276	989.937	35.5693
12.9302	973.941	35.5889
12.9328	983.961	35.6084
12.9332	990.43	35.62793
12.9346	980.231	35.6475
12.9372	977.8847	35.667
12.938	989.855	35.6865
12.9396	978.619	35.7061
12.9408	981.1189	35.7256
12.9431	989.422	35.7451
12.94407	983.474	35.7646
12.9458	975.027	35.78418
12.9474	989.831	35.8037
12.9494	983.937	35.8232
12.9509	974.484	35.8428
12.9536	985.217	35.8623
12.9544	988.023	35.8818
12.9555	975.548	35.9014
12.9583	982.239	35.9209
12.9604	986.8241	35.94043
12.962	977.02	35.96
12.9631	982.334	35.9795
12.9635	986.632	35.999
12.9653	976.289	36.0186
12.96682	977.607	36.0381
12.9702	989.492	36.0576
12.9708	981.193	36.0771
12.9731	977.498	36.09668
12.9736	983.962	36.1162
12.976	984.788	36.1357
12.9768	975.72	36.1553
12.9785	984.561	36.1748
12.98	985.874	36.1943
12.9822	979.293	36.2139
12.9828	982.015	36.2334
12.98477	989.443	36.25293
12.9869	974.232	36.2725
12.9896	980.759	36.292
12.9916	990.451	36.3115
12.992	981.338	36.3311
12.9929	974.445	36.3506
12.9948	987.833	36.3701
12.99768	980.4845	36.3896
12.9984	976.58	36.40918
12.9999	988.7926	36.4287
13.0015	982.143	36.4482
13.00285	974.5625	36.4678
13.0043	986.59	36.4873
13.0072	984.912	36.5068
13.0089	974.977	36.5264
13.0104	982.446	36.5459
13.0116	987.04	36.56543
13.0131	976.135	36.585
13.014	980.384	36.6045
13.0167	988.409	36.624
13.0176	977.123	36.6436
13.01978	980.65	36.6631
13.0224	985.408	36.6826
13.0239	980.326	36.7021
13.0244	975.364	36.72168
13.0253	987.124	36.7412
13.02824	983.742	36.7607
13.0298	977.507	36.7803
13.031	981.21	36.7998
13.0328	988.276	36.8193
13.0348	975.115	36.8389
13.0353	982.052	36.8584
13.0375	987.761	36.87793
13.0393	978.427	36.8975
13.04031	978.5069	36.917
13.0415	988.668	36.9365
13.0437	976.984	36.9561
13.0441	977.107	36.9756
13.0482	988.165	36.9951
13.04908	982.582	37.0146
13.0501	973.4549	37.03418
13.05225	986.058	37.0537
13.0542	981.831	37.0732
13.0556	974.372	37.0928
13.0568	986.403	37.1123
13.0594	983.685	37.1318
13.0602	972.782	37.1514
13.0628	982.2359	37.1709
13.06286	988.656	37.19043
13.06478	975.448	37.21
13.0677	980.025	37.2295
13.0687	986.155	37.249
13.0709	978.094	37.2686
13.0713	975.835	37.2881
13.0732	987.497	37.3076
13.0745	978.3894	37.3271
13.07632	979.168	37.34668
13.0789	984.526	37.3662
13.0788	983.108	37.3857
13.08063	973.209	37.4053
13.0834	985.485	37.4248
13.085	986.296	37.4443
13.0863	975.972	37.4639
13.0876	978.753	37.4834
13.0914	989.338	37.50293
13.0903	975.043	37.5225
13.0934	979.029	37.542
13.095	987.643	37.5615
13.0953	977.64	37.5811
13.0973	975.564	37.6006
13.0993	988.83	37.6201
13.0998	979.05	37.6396
13.1036	972.583	37.65918
13.1045	986.997	37.6787
13.1066	983.501	37.6982
13.1077	973.201	37.7178
13.1096	983.969	37.7373
13.11107	984.1178	37.7568
13.1125	974.243	37.7764
13.1137	984.685	37.7959
13.1162	985.38	37.81543
13.1175	976.567	37.835
13.1197	978.191	37.8545
13.1199	988.454	37.874
13.1216	977.045	37.8936
13.1239	978.53	37.9131
13.1254	983.645	37.9326
13.1279	982.134	37.9521
13.1281	974.06	37.97168
13.1305	986.585	37.9912
13.132	981.741	38.0107
13.1338	977.193	38.0303
13.13506	981.563	38.0498
13.1369	986.896	38.0693
13.1379	972.444	38.0889
13.1398	982.477	38.1084
13.1413	986.748	38.12793
13.1435	977.274	38.1475
13.1442	974.407	38.167
13.1464	988.334	38.1865
13.1499	976.745	38.2061
13.1501	977.708	38.2256
13.1512	988.476	38.2451
13.1532	978.314	38.2646
13.1551	972.352	38.28418
13.1559	987.174	38.3037
13.1585	983.067	38.3232
13.1588	971.716	38.3428
13.161	983.399	38.3623
13.1622	983.987	38.3818
13.1648	974.88	38.4014
13.1669	978.473	38.4209
13.1671	984.2785	38.44043
13.1702	976.09	38.46
13.1712	981.0448	38.4795
13.1717	984.367	38.499
13.1739	978.438	38.5186
13.1758	975.4184	38.5381
13.1778	986.798	38.5576
13.1799	980.209	38.5771
13.1806	975.424	38.59668
13.1821	982.65	38.6162
13.1853	984.13	38.6357
13.1859	972.85	38.6553
13.188	982.737	38.6748
13.1887	983.617	38.6943
13.1908	975.794	38.7139
13.1916	978.183	38.7334
13.1937	986.907	38.75293
13.1959	974.376	38.7725
13.1982	978.594	38.792
13.199	987.587	38.8115
13.2004	978.988	38.8311
13.2022	974.344	38.8506
13.204	985.579	38.8701
13.2052	978.772	38.8896
13.2074	975.0686	38.90918
13.2075	984.834	38.9287
13.2103	978.8822	38.9482
13.2115	971.767	38.9678
13.2133	981.302	38.9873
13.2138	982.661	39.0068
13.21587	972.754	39.0264
13.2179	980.768	39.0459
13.2203	981.888	39.06543
13.2212	974.55	39.085
13.2235	976.959	39.1045
13.2242	983.624	39.124
13.2265	974.919	39.1436
13.2277	977.992	39.1631
13.2295	982.437	39.1826
13.2309	980.088	39.2021
13.2326	971.589	39.22168
13.2343	983.62	39.2412
13.236	981.717	39.2607
13.237	974.825	39.2803
13.23888	978.08	39.2998
13.2404	984.65	39.3193
13.2428	971.306	39.3389
13.24376	979.865	39.3584
13.2466	984.72	39.37793
13.2471	974.084	39.3975
13.2492	975.427	39.417
13.2502	987.656	39.4365
13.252	974.273	39.4561
13.2546	973.22	39.4756
13.2571	985.704	39.4951
13.2567	977.711	39.5146
13.2588	971.065	39.53418
13.2612	982.956	39.5537
13.2624	980.124	39.5732
13.2638	969.894	39.5928
13.2653	981.991	39.6123
13.2673	981.699	39.6318
13.2678	969.932	39.6514
13.2707	978.791	39.6709
13.2723	984.829	39.69043
13.2736	972.9303	39.71
13.2752	977.106	39.7295
13.2762	980.521	39.749
13.2783	975.565	39.7686
13.2802	973.868	39.7881
13.2819	984.308	39.8076
13.2831	976.107	39.8271
13.2854	974.737	39.84668
13.286	979.981	39.8662
13.2878	980.933	39.8857
13.2894	968.7287	39.9053
13.292	978.486	39.9248
13.2933	981.7511	39.9443
13.2948	971.817	39.9639
13.2958	973.906	39.9834
13.2983	983.767	40.00293
13.2994	978.823	40.0127

Data Header:			0.254_solid_dimension_typei_090_r0			Time:	42.6653	s	4/15/2019 2:27:09 PM
Data Acquisition:	Timed
Station Name:	ft40.cfg
Test File Name:	monotonic_0.2540_typei_solid_090_dimension.tst
Displacement	Force	Running Time
mm	N	s
13.2993	972.547	40.0225
13.3001	967.671	40.0322
13.3007	975.7276	40.042
13.3031	981.9826	40.0518
13.3033	981.975	40.0615
13.3033	977.0274	40.0713
13.3046	972.466	40.0811
13.3049	971.797	40.09082
13.3063	970.111	40.1006
13.3068	977.797	40.1104
13.3077	984.427	40.1201
13.3087	980.973	40.1299
13.3094	974.259	40.1396
13.30959	968.2002	40.1494
13.3116	968.1297	40.15918
13.31193	977.169	40.1689
13.3123	980.816	40.1787
13.3133	980.326	40.1885
13.31412	976.633	40.1982
13.3153	970.659	40.208
13.3153	969.328	40.2178
13.317	973.419	40.2275
13.3164	975.657	40.2373
13.3186	982.5918	40.24707
13.3184	978.598	40.2568
13.3188	970.7124	40.2666
13.3206	967.416	40.2764
13.32149	971.009	40.2861
13.3224	977.769	40.2959
13.323	978.753	40.3057
13.3238	977.948	40.31543
13.3252	974.855	40.3252
13.3252	969.057	40.335
13.32588	969.667	40.3447
13.3281	969.521	40.3545
13.327	977.297	40.3643
13.329	979.864	40.374
13.3296	972.487	40.3838
13.33109	970.163	40.3936
13.331	966.79	40.40332
13.3319	967.979	40.4131
13.3331	973.215	40.4229
13.33371	973.433	40.4326
13.3351	974.779	40.4424
13.33628	970.789	40.4521
13.3358	965.674	40.4619
13.3373	963.794	40.47168
13.3377	966.729	40.4814
13.339	973.534	40.4912
13.3385	972.963	40.501
13.3406	968.321	40.5107
13.3413	960.211	40.5205
13.3417	958.573	40.5303
13.3448	159.219	40.54
13.35	-35.51387	40.5498
13.3499	-15.4804	40.55957
13.3495	-38.3446	40.5693
13.35	-47.0812	40.5791
13.3494	-53.0781	40.5889
13.3503	-50.4083	40.5986
13.3503	-38.6976	40.6084
13.3511	-38.1504	40.6182
13.3518	-34.92878	40.62793
13.3523	-46.5581	40.6377
13.3535	-45.8171	40.6475
13.355	-49.3728	40.6572
13.3561	-48.4998	40.667
13.35515	-37.8884	40.6768
13.3555	-36.8712	40.6865
13.3574	-38.4764	40.6963
13.3576	-46.8141	40.7061
13.3585	-53.6694	40.71582
13.3596	-45.8194	40.7256
13.35913	-41.80827	40.7354
13.36	-35.4543	40.7451
13.36214	-37.0918	40.7549
13.3623	-45.184	40.7646
13.3629	-47.3431	40.7744
13.3638	-50.1536	40.78418
13.3639	-42.8718	40.7939
13.365	-36.3911	40.8037
13.3665	-36.6861	40.8135
13.3667	-40.93	40.8232
13.3676	-51.6254	40.833
13.368	-50.16777	40.8428
13.37013	-44.7046	40.8525
13.3701	-38.4441	40.8623
13.3713	-36.1819	40.87207
13.3713	-39.0796	40.8818
13.3724	-44.3939	40.8916
13.3739	-46.6214	40.9014
13.3748	-48.0488	40.9111
13.37562	-42.6933	40.9209
13.37599	-35.3101	40.9307
13.3767	-36.3273	40.94043
13.37743	-42.7099	40.9502
13.3791	-48.4067	40.96
13.3801	-48.2166	40.9697
13.3801	-43.1186	40.9795
13.3807	-40.2494	40.9893
13.3815	-38.3401	40.999
13.3825	-40.6216	41.0088
13.3835	-44.4415	41.0186
13.3843	-48.0099	41.02832
13.3854	-48.94817	41.0381
13.3861	-41.70668	41.0479
13.3866	-35.7409	41.0576
13.3877	-39.6565	41.0674
13.3887	-42.7948	41.0771
13.3891	-48.77927	41.0869
13.38959	-46.5373	41.09668
13.3902	-43.1415	41.1064
13.3911	-41.0212	41.1162
13.3928	-36.4095	41.126
13.393	-38.5615	41.1357
13.3937	-46.1007	41.1455
13.3955	-49.9756	41.1553
13.3962	-46.4296	41.165
13.39597	-38.8883	41.1748
13.3974	-36.5478	41.18457
13.3986	-38.66288	41.1943
13.399	-44.39151	41.2041
13.3997	-48.8302	41.2139
13.3986	-48.035	41.2236
13.401	-44.8805	41.2334
13.4019	-38.4361	41.2432
13.40309	-35.6929	41.25293
13.4037	-40.5692	41.2627
13.4043	-49.9619	41.2725
13.4054	-50.6559	41.2822
13.4063	-45.8727	41.292
13.4063	-36.6586	41.3018
13.40761	-36.2223	41.3115
13.4081	-42.3154	41.3213
13.4101	-43.6408	41.3311
13.4097	-49.1762	41.34082
13.4101	-48.8735	41.3506
13.4119	-41.2873	41.3604
13.4137	-37.6848	41.3701
13.41398	-35.7052	41.3799
13.4147	-44.2119	41.3896
13.4152	-51.459	41.3994
13.4159	-49.2299	41.40918
13.4176	-42.7217	41.4189
13.4173	-37.41732	41.4287
13.4176	-38.4221	41.4385
13.4194	-42.0377	41.4482
13.4195	-48.047	41.458
13.4206	-51.6514	41.4678
13.4215	-45.757	41.4775
13.4227	-40.6658	41.4873
13.4227	-36.1232	41.49707
13.4242	-36.84993	41.5068
13.4246	-48.8989	41.5166
13.4249	-50.1071	41.5264
13.426	-46.5689	41.5361
13.4262	-42.2589	41.5459
13.4282	-39.012	41.5557
13.4279	-39.81216	41.56543
13.4295	-43.5144	41.5752
13.4294	-45.9229	41.585
13.43037	-49.4256	41.5947
13.4321	-45.1353	41.6045
13.4329	-39.4844	41.6143
13.4341	-38.113	41.624
13.4339	-40.7308	41.6338
13.4342	-46.4892	41.6436
13.4365	-49.6337	41.65332
13.436	-45.6472	41.6631
13.4378	-42.998	41.6729
13.438	-37.06842	41.6826
13.4391	-39.9767	41.6924
13.441	-42.2918	41.7021
13.4413	-45.9903	41.7119
13.4425	-50.8805	41.72168
13.4424	-43.336	41.7314
13.4435	-38.4239	41.7412
13.4453	-38.26231	41.751
13.445	-40.1606	41.7607
13.4453	-49.505	41.7705
13.4468	-48.6369	41.7803
13.4473	-46.8109	41.79
13.4474	-43.0857	41.7998
13.4484	-36.3502	41.80957
13.4498	-37.0921	41.8193
13.4505	-41.6576	41.8291
13.4516	-50.266	41.8389
13.4513	-50.4853	41.8486
13.4538	-43.348	41.8584
13.4543	-36.3209	41.8682
13.4541	-37.4986	41.87793
13.4549	-43.0131	41.8877
13.4561	-48.6908	41.8975
13.456	-49.184	41.9072
13.4595	-48.187	41.917
13.4583	-40.3295	41.9268
13.4591	-36.2539	41.9365
13.4611	-38.5346	41.9463
13.461	-46.1587	41.9561
13.4627	-51.7538	41.96582
13.4634	-48.448	41.9756
13.4641	-40.10741	41.9854
13.465	-36.4768	41.9951
13.4657	-40.115	42.0049
13.4653	-43.9222	42.0146
13.4668	-49.4696	42.0244
13.4674	-49.6399	42.03418
13.4679	-43.8412	42.0439
13.469	-39.6829	42.0537
13.47	-34.0554	42.0635
13.4719	-40.2391	42.0732
13.4719	-49.7422	42.083
13.4719	-49.3677	42.0928
13.4721	-45.3752	42.1025
13.4743	-36.93232	42.1123
13.4747	-37.7586	42.12207
13.4761	-39.5265	42.1318
13.4765	-45.2546	42.1416
13.4772	-50.57822	42.1514
13.4779	-46.2948	42.1611
13.4786	-44.6866	42.1709
13.4793	-38.5739	42.1807
13.4811	-36.91869	42.19043
13.4811	-47.007	42.2002
13.4828	-48.1374	42.21
13.4836	-48.78706	42.2197
13.4833	-43.5716	42.2295
13.485	-39.09465	42.2393
13.4857	-40.2251	42.249
13.4861	-39.87318	42.2588
13.4875	-44.6005	42.2686
13.4881	-49.201	42.27832
13.489	-47.3614	42.2881
13.4891	-43.4614	42.2979
13.4904	-37.48064	42.3076
13.4914	-39.0139	42.3174
13.4918	-43.73177	42.3271
13.492	-48.198	42.3369
13.49437	-46.4978	42.34668
13.4934	-45.2124	42.3564
13.4952	-41.0736	42.3662
13.4957	-38.7802	42.376
13.4954	-39.2941	42.3857
13.4985	-45.3707	42.3955
13.4987	-51.36945	42.4053
13.4995	-47.2179	42.415
13.4991	-41.081	42.4248
13.5005	-35.5674	42.43457
13.5014	-37.2495	42.4443
13.5024	-47.6969	42.4541
13.5025	-48.0461	42.4639
13.5042	-48.1527	42.4736
13.5056	-45.2289	42.4834
13.5051	-36.7072	42.4932
13.5078	-37.5625	42.50293
13.5073	-41.2154	42.5127
13.5084	-48.8001	42.5225
13.5095	-51.91605	42.5322
13.50995	-44.6099	42.542
13.5106	-39.072	42.5518
13.512	-35.6686	42.5615
13.51316	-41.3331	42.5713
13.51273	-47.5779	42.5811
13.5137	-47.6726	42.59082
13.5153	-48.46521	42.6006
13.5153	-41.8228	42.6104
13.517	-36.1246	42.6201
13.5171	-38.7036	42.6299
13.518	-43.4719	42.6396
13.5191	-51.9564	42.6494
13.5191	-50.4814	42.65918