File: data/processed_data_files/tensile/0.254_solid_uprint_typeiv_090_r(7).dat
MTS793|BTW|ENU|1|2|.|/|:|1|0|0|A

Data Header:			0.254_solid_uprint_typeiv_090_r0			Time:	20.0173	s	4/14/2019 1:14:07 AM
Data Acquisition:	Timed
Station Name:	ft40.cfg
Test File Name:	monotonic_0.2540_typeiv_solid_090_uprint.tst
Displacement	Force	Running Time
mm	N	s
-40.0408	-30.5304	0.0222168
-40.0414	-23.6878	0.041748
-40.0414	-26.3499	0.0612793
-40.0414	-27.227	0.0808105
-40.0403	-24.6097	0.1003418
-40.0387	-20.3005	0.119873
-40.03656	-28.0426	0.1394043
-40.0348	-24.1626	0.158936
-40.0331	-19.7558	0.1784668
-40.0328	-18.68075	0.197998
-40.0313	-20.4163	0.2175293
-40.029	-16.1546	0.237061
-40.028	-19.8095	0.2565918
-40.0252	-18.0253	0.276123
-40.0243	-14.6338	0.2956543
-40.0221	-12.33	0.315186
-40.01992	-15.5311	0.3347168
-40.0201	-10.0051	0.354248
-40.0184	-9.51542	0.3737793
-40.0156	-12.6882	0.393311
-40.0138	-11.3838	0.4128418
-40.0136	-5.13887	0.432373
-40.0115	-6.534194	0.4519043
-40.0099	-9.912776	0.471436
-40.0073	-3.2494	0.4909668
-40.0055	-4.48748	0.510498
-40.0042	-5.65422	0.5300293
-40.0035	-0.0718474	0.549561
-40.0009	0.109407	0.5690918
-40.0001	-4.89429	0.588623
-39.9981	3.1906	0.6081543
-39.9958	3.52698	0.627686
-39.9937	-0.833271	0.6472168
-39.9927	3.31804	0.666748
-39.99144	9.07001	0.6862793
-39.9901	1.16959	0.705811
-39.9871	5.7741	0.7253418
-39.9863	9.20598	0.744873
-39.9854	8.52444	0.7644043
-39.9821	9.29711	0.783936
-39.9818	14.6239	0.8034668
-39.9805	7.39491	0.822998
-39.9781	11.0395	0.8425293
-39.977	16.396	0.862061
-39.9748	16.489	0.8815918
-39.9747	12.512	0.901123
-39.9717	17.9325	0.9206543
-39.9705	17.5025	0.940186
-39.9679	16.7708	0.9597168
-39.966	21.5614	0.979248
-39.9652	22.3597	0.9987793
-39.9644	20.5466	1.01831
-39.9623	20.1682	1.03784
-39.9602	25.8403	1.057373
-39.9589	21.3364	1.0769
-39.9575	22.5005	1.09644
-39.956	29.3758	1.11597
-39.954	29.5426	1.135498
-39.9532	23.5848	1.15503
-39.9509	33.6443	1.17456
-39.9493	32.34	1.19409
-39.9468	30.9107	1.213623
-39.9455	34.44582	1.23315
-39.9446	36.6845	1.25269
-39.9423	27.7538	1.27222
-39.941	40.2035	1.291748
-39.9391	39.2894	1.31128
-39.937	35.1753	1.33081
-39.9357	39.4756	1.35034
-39.9345	44.0146	1.369873
-39.9317	38.1559	1.3894
-39.9313	41.3396	1.40894
-39.9291	43.6969	1.42847
-39.9274	42.1138	1.447998
-39.9268	43.4569	1.46753
-39.924	49.4661	1.48706
-39.9235	44.9622	1.50659
-39.9213	45.771	1.526123
-39.9196	51.132	1.54565
-39.9178	51.9115	1.56519
-39.9167	47.6888	1.58472
-39.9142	50.6379	1.604248
-39.9125	54.6543	1.62378
-39.9125	51.1735	1.64331
-39.9102	54.04097	1.66284
-39.9086	57.1876	1.682373
-39.9061	57.5669	1.7019
-39.9062	54.691	1.72144
-39.9034	62.0759	1.74097
-39.9019	56.7469	1.760498
-39.8992	58.1963	1.78003
-39.8985	64.6272	1.79956
-39.8974	65.3481	1.81909
-39.89679	58.3299	1.838623
-39.8951	66.6669	1.85815
-39.8924	67.4779	1.87769
-39.8893	64.079	1.89722
-39.8892	68.4618	1.916748
-39.8865	72.6937	1.93628
-39.885	63.5043	1.95581
-39.884	72.2451	1.97534
-39.8822	73.4207	1.994873
-39.8793	69.9431	2.0144
-39.8783	72.3696	2.03394
-39.8773	77.6759	2.05347
-39.8752	73.2556	2.072998
-39.8745	73.0294	2.09253
-39.8723	78.9536	2.11206
-39.8704	78.4789	2.13159
-39.8689	76.7403	2.151123
-39.8678	80.1932	2.17065
-39.8666	80.2321	2.19019
-39.8638	78.0038	2.20972
-39.863	83.896	2.229248
-39.8615	85.6954	2.24878
-39.8606	82.9662	2.26831
-39.8581	82.2782	2.28784
-39.8559	91.3561	2.307373
-39.8545	86.52401	2.3269
-39.8542	86.8009	2.34644
-39.85178	93.1359	2.36597
-39.85	90.4484	2.385498
-39.8483	87.1682	2.40503
-39.8459	96.8951	2.42456
-39.8444	91.0771	2.44409
-39.8432	92.2839	2.463623
-39.8427	98.4363	2.48315
-39.8391	98.80172	2.50269
-39.83791	91.2482	2.52222
-39.8373	99.2769	2.541748
-39.8352	101.696	2.56128
-39.8324	99.0447	2.58081
-39.8318	100.787	2.60034
-39.8299	105.421	2.619873
-39.8297	99.599	2.6394
-39.8268	104.111	2.65894
-39.8249	108.758	2.67847
-39.8241	103.909	2.697998
-39.8218	104.634	2.71753
-39.8206	109.397	2.73706
-39.8189	109.017	2.75659
-39.8175	106.064	2.776123
-39.8152	112.833	2.79565
-39.8132	112.6393	2.81519
-39.8124	111.401	2.83472
-39.8107	112.99	2.854248
-39.8099	117.68	2.87378
-39.8069	112.529	2.89331
-39.8064	117.055	2.91284
-39.803	121.629	2.932373
-39.8019	118.801	2.9519
-39.8006	114.437	2.97144
-39.7995	127.045	2.99097
-39.79755	119.766	3.010498
-39.7962	121.094	3.03003
-39.7939	127.03	3.04956
-39.7929	126.978	3.06909
-39.7914	119.562	3.088623
-39.7895	129.191	3.10815
-39.78754	127.605	3.12769
-39.7865	124.745	3.14722
-39.7834	130.583	3.166748
-39.7834	132.617	3.18628
-39.7814	125.184	3.20581
-39.7792	130.798	3.22534
-39.7776	136.026	3.244873
-39.7761	131.743	3.2644
-39.774	132.881	3.28394
-39.7731	138.013	3.30347
-39.771	134.993	3.322998
-39.7694	136.635	3.34253
-39.7683	141.329	3.36206
-39.7665	138.905	3.38159
-39.7658	138.248	3.401123
-39.764	141.807	3.42065
-39.7618	144.709	3.44019
-39.76025	139.811	3.45972
-39.7591	143.693	3.479248
-39.7564	147.704	3.49878
-39.7556	145.339	3.51831
-39.753	143.125	3.53784
-39.7516	152.168	3.557373
-39.7507	145.638	3.5769
-39.7484	148.336	3.59644
-39.7481	154.09	3.61597
-39.7451	151.39	3.635498
-39.7445	146.424	3.65503
-39.7424	159.0863	3.67456
-39.74086	155.493	3.69409
-39.7398	151.5899	3.713623
-39.7377	157.761	3.73315
-39.7355	159.903	3.75269
-39.7353	153.576	3.77222
-39.7319	160.7998	3.791748
-39.7317	162.373	3.81128
-39.7295	157.592	3.83081
-39.7271	162.278	3.85034
-39.7266	165.2373	3.869873
-39.7244	159.638	3.8894
-39.7234	162.986	3.90894
-39.7219	169.235	3.92847
-39.71891	166.427	3.947998
-39.718	167.363	3.96753
-39.716	167.445	3.98706
-39.7146	170.904	4.00659
-39.7132	167.299	4.026123
-39.7112	174.395	4.04565
-39.7096	174.21	4.06519
-39.708	170.83	4.08472
-39.7064	172.346	4.104248
-39.7046	179.094	4.12378
-39.7038	172.445	4.14331
-39.70293	174.191	4.16284
-39.6997	182.0042	4.182373
-39.6982	178.393	4.2019
-39.69619	174.351	4.22144
-39.6966	185.612	4.24097
-39.6941	179.365	4.260498
-39.6929	181.063	4.28003
-39.69	186.387	4.29956
-39.6884	184.486	4.31909
-39.6882	178.837	4.338623
-39.6852	190.435	4.35815
-39.6848	188.689	4.37769
-39.6817	183.113	4.39722
-39.6805	189.221	4.416748
-39.6795	191.455	4.43628
-39.6774	187.549	4.45581
-39.6752	191.034	4.47534
-39.6751	195.527	4.494873
-39.67292	190.203	4.5144
-39.6712	195.335	4.53394
-39.6688	197.011	4.55347
-39.6675	196.466	4.572998
-39.666	191.904	4.59253
-39.6637	200.8484	4.61206
-39.66161	200.589	4.63159
-39.661	197.576	4.651123
-39.6593	199.651	4.67065
-39.6579	204.82	4.69019
-39.6562	198.52	4.70972
-39.6555	204.029	4.729248
-39.6528	208.005	4.74878
-39.6512	203.947	4.76831
-39.6492	204.658	4.78784
-39.6479	212.785	4.807373
-39.6463	204.414	4.8269
-39.6442	206.66	4.84644
-39.6421	213.737	4.86597
-39.64159	210.894	4.885498
-39.6404	205.764	4.90503
-39.63747	216.2527	4.92456
-39.63599	213.151	4.94409
-39.635	211.104	4.963623
-39.6334	218.373	4.98315
-39.6312	215.881	5.00269
-39.6303	210.858	5.02222
-39.6283	218.04	5.041748
-39.6268	220.95	5.06128
-39.6254	214.605	5.08081
-39.6233	220.335	5.10034
-39.6228	224.144	5.119873
-39.6203	221.672	5.1394
-39.6185	221.449	5.15894
-39.6169	224.971	5.17847
-39.6147	223.968	5.197998
-39.6133	224.189	5.21753
-39.6116	227.1539	5.23706
-39.6101	228.853	5.25659
-39.6088	223.1586	5.276123
-39.6074	234.012	5.29565
-39.6055	235.04	5.31519
-39.6039	228.288	5.33472
-39.6019	229.285	5.354248
-39.6015	236.69	5.37378
-39.59911	230.264	5.39331
-39.5974	234.138	5.41284
-39.596	239.537	5.432373
-39.59428	233.584	5.4519
-39.59235	233.739	5.47144
-39.5912	242.956	5.49097
-39.589	237.456	5.510498
-39.588	235.617	5.53003
-39.5856	244.9	5.54956
-39.585	240.699	5.56909
-39.5835	238.722	5.588623
-39.5816	244.3812	5.60815
-39.5793	246.438	5.62769
-39.57793	242.2686	5.64722
-39.5754	248.775	5.666748
-39.5755	247.501	5.68628
-39.57365	245.401	5.70581
-39.5721	247.001	5.72534
-39.57	254.291	5.744873
-39.5691	249.0903	5.7644
-39.5668	250.618	5.78394
-39.5648	252.651	5.80347
-39.5624	255.408	5.822998
-39.5611	249.579	5.84253
-39.5598	256.775	5.86206
-39.5598	258.785	5.88159
-39.5575	255.571	5.901123
-39.55505	259.561	5.92065
-39.5538	261.295	5.94019
-39.55164	254.398	5.95972
-39.5495	261.115	5.979248
-39.5484	265.156	5.99878
-39.5474	257.772	6.01831
-39.545	259.643	6.03784
-39.545	266.7052	6.057373
-39.5411	263.959	6.0769
-39.5404	262.101	6.09644
-39.5387	269.712	6.11597
-39.53759	266.329	6.135498
-39.5352	265.258	6.15503
-39.5342	271.383	6.17456
-39.5315	270.269	6.19409
-39.5307	265.506	6.213623
-39.5288	274.733	6.23315
-39.5286	272.993	6.25269
-39.5264	268.686	6.27222
-39.5248	272.662	6.291748
-39.5233	278.47	6.31128
-39.521	274.7222	6.33081
-39.5186	277.775	6.35034
-39.5178	279.161	6.369873
-39.516	277.85	6.3894
-39.5141	277.391	6.40894
-39.5138	284.387	6.42847
-39.5099	280.749	6.447998
-39.50951	279.993	6.46753
-39.5084	282.806	6.48706
-39.5064	287.505	6.50659
-39.5049	279.631	6.526123
-39.5024	285.92	6.54565
-39.501	287.82	6.56519
-39.49968	284.349	6.58472
-39.49897	287.46	6.604248
-39.4964	291.39	6.62378
-39.49556	284.023	6.64331
-39.4941	288.394	6.66284
-39.49173	296.867	6.682373
-39.4905	287.774	6.7019
-39.489	288.903	6.72144
-39.4867	297.758	6.74097
-39.4854	293.967	6.760498
-39.4835	291.856	6.78003
-39.4823	299.761	6.79956
-39.4804	295.072	6.81909
-39.4786	294.2438	6.838623
-39.4775	298.4808	6.85815
-39.4764	301.07	6.87769
-39.4747	295.705	6.89722
-39.4724	303.7243	6.916748
-39.47089	301.615	6.93628
-39.4689	300.9668	6.95581
-39.4676	300.403	6.97534
-39.4666	307.686	6.994873
-39.46381	304.537	7.0144
-39.4633	304.932	7.03394
-39.4612	306.559	7.05347
-39.4599	307.092	7.072998
-39.45715	303.728	7.09253
-39.45586	312.04	7.11206
-39.4555	311.288	7.13159
-39.4534	307.8902	7.151123
-39.4514	310.483	7.17065
-39.4495	314.06	7.19019
-39.4486	308.4549	7.20972
-39.4456	312.001	7.229248
-39.4449	318.71	7.24878
-39.44244	312.664	7.26831
-39.4412	313.174	7.28784
-39.4406	319.663	7.307373
-39.4377	314.715	7.3269
-39.4358	316.313	7.34644
-39.4345	323.0983	7.36597
-39.4328	317.347	7.385498
-39.4315	318.149	7.40503
-39.4297	323.391	7.42456
-39.4276	323.839	7.44409
-39.4267	320.996	7.463623
-39.4247	325.205	7.48315
-39.4231	323.926	7.50269
-39.4222	325.572	7.52222
-39.4201	326.034	7.541748
-39.41851	329.843	7.56128
-39.4168	325.146	7.58081
-39.41571	329.665	7.60034
-39.413	330.78	7.619873
-39.4124	330.05	7.6394
-39.4098	327.549	7.65894
-39.4077	335.544	7.67847
-39.4086	333.024	7.697998
-39.40517	331.633	7.71753
-39.4041	334.909	7.73706
-39.40205	336.0282	7.75659
-39.4009	332.3764	7.776123
-39.3991	338.595	7.79565
-39.3966	341.537	7.81519
-39.396	333.96	7.83472
-39.3942	339.592	7.854248
-39.3919	343.7428	7.87378
-39.3909	336.7984	7.89331
-39.3897	339.2262	7.91284
-39.38797	347.812	7.932373
-39.3847	338.241	7.9519
-39.3835	343.181	7.97144
-39.38311	347.7803	7.99097
-39.3815	344.588	8.010498
-39.3793	343.3501	8.03003
-39.3786	350.571	8.04956
-39.3764	344.866	8.06909
-39.3737	346.906	8.088623
-39.3741	350.389	8.10815
-39.3719	352.281	8.12769
-39.3699	346.912	8.14722
-39.3685	352.568	8.166748
-39.366	351.846	8.18628
-39.3642	351.112	8.20581
-39.3637	351.052	8.22534
-39.3612	357.1575	8.244873
-39.3607	353.666	8.2644
-39.3582	353.2337	8.28394
-39.3558	357.4	8.30347
-39.3563	357.935	8.322998
-39.3533	354.802	8.34253
-39.35133	359.775	8.36206
-39.3507	361.745	8.38159
-39.3487	355.786	8.401123
-39.3467	361.37	8.42065
-39.3457	362.564	8.44019
-39.3434	358.6788	8.45972
-39.3426	363.383	8.479248
-39.3404	367.113	8.49878
-39.3398	358.6608	8.51831
-39.3379	364.684	8.53784
-39.3355	367.126	8.557373
-39.3334	363.865	8.5769
-39.3324	362.584	8.59644
-39.33054	372.397	8.61597
-39.3302	365.921	8.635498
-39.32803	367.0665	8.65503
-39.3258	369.3374	8.67456
-39.3248	371.124	8.69409
-39.3244	368.248	8.713623
-39.3204	377.1474	8.73315
-39.3197	371.993	8.75269
-39.3186	371.662	8.77222
-39.3164	374.331	8.791748
-39.3145	378.369	8.81128
-39.3128	373.2	8.83081
-39.31068	374.603	8.85034
-39.30938	377.7085	8.869873
-39.308	377.189	8.8894
-39.30508	375.652	8.90894
-39.3052	379.796	8.92847
-39.3036	378.909	8.947998
-39.302	376.346	8.96753
-39.2995	382.906	8.98706
-39.2989	382.5249	9.00659
-39.2969	378.084	9.026123
-39.2942	383.418	9.04565
-39.2931	387.474	9.06519
-39.2925	378.571	9.08472
-39.2897	386.197	9.104248
-39.2892	387.641	9.12378
-39.2861	385.026	9.14331
-39.2854	387.254	9.16284
-39.2826	391.572	9.182373
-39.2832	383.967	9.2019
-39.2799	389.686	9.22144
-39.2783	392.073	9.24097
-39.2767	390.732	9.260498
-39.276	388.581	9.28003
-39.2732	396.327	9.29956
-39.2723	390.384	9.31909
-39.2705	391.912	9.338623
-39.2678	393.585	9.35815
-39.2675	396.554	9.37769
-39.264	392.115	9.39722
-39.2643	394.729	9.416748
-39.2628	396.228	9.43628
-39.2611	394.0119	9.45581
-39.2584	396.064	9.47534
-39.2571	401.861	9.494873
-39.25528	398.2652	9.5144
-39.25457	395.408	9.53394
-39.2536	401.11	9.55347
-39.2498	399.326	9.572998
-39.2483	396.9	9.59253
-39.2466	402.5535	9.61206
-39.2458	403.992	9.63159
-39.2447	396.744	9.651123
-39.24181	407.2135	9.67065
-39.241	406.815	9.69019
-39.2387	400.953	9.70972
-39.2378	405.395	9.729248
-39.2365	409.525	9.74878
-39.2349	400.586	9.76831
-39.2331	407.691	9.78784
-39.23138	408.768	9.807373
-39.2292	406.839	9.8269
-39.2267	405.293	9.84644
-39.226	413.316	9.86597
-39.22398	405.3204	9.885498
-39.2223	408.069	9.90503
-39.2211	413.097	9.92456
-39.2189	411.034	9.94409
-39.2187	409.214	9.963623
-39.2172	414.04	9.98315
-39.2161	412.411	10.0027
-39.2127	411.455	10.0222
-39.2125	412.655	10.0417
-39.2107	415.365	10.0613
-39.2098	412.931	10.0808
-39.2055	414.626	10.1003
-39.2058	417.8493	10.1199
-39.2047	413.551	10.1394
-39.2018	414.507	10.1589
-39.2003	420.011	10.1785
-39.1985	417.447	10.198
-39.1976	413.1785	10.2175
-39.1954	421.398	10.2371
-39.1935	418.7204	10.2566
-39.1924	417.1022	10.2761
-39.191	420.293	10.2957
-39.19	423.844	10.3152
-39.1883	414.947	10.3347
-39.1857	423.839	10.3542
-39.1839	422.072	10.3738
-39.1825	418.877	10.3933
-39.1813	423.903	10.4128
-39.1791	427.349	10.4324
-39.1774	419.163	10.4519
-39.1758	423.748	10.4714
-39.1748	425.476	10.491
-39.1711	423.44	10.5105
-39.1708	421.778	10.53
-39.1689	426.5741	10.5496
-39.1665	424.873	10.5691
-39.1661	423.82	10.5886
-39.1648	429.993	10.6082
-39.1636	427.322	10.6277
-39.1619	423.013	10.6472
-39.1599	426.794	10.6667
-39.1581	430.837	10.6863
-39.1571	425.937	10.7058
-39.1555	425.953	10.7253
-39.1529	430.0386	10.7449
-39.151	429.184	10.7644
-39.1501	425.878	10.7839
-39.14843	434.213	10.8035
-39.1469	428.405	10.823
-39.1463	427.238	10.8425
-39.1424	432.272	10.8621
-39.14172	432.76	10.8816
-39.14006	425.0101	10.9011
-39.1389	434.428	10.9207
-39.138	431.852	10.9402
-39.1351	429.318	10.9597
-39.1333	433.518	10.9792
-39.1316	435.49	10.9988
-39.13	427.3967	11.0183
-39.1288	433.947	11.0378
-39.1271	433.852	11.0574
-39.1257	430.098	11.0769
-39.1235	432.571	11.0964
-39.1232	438.108	11.116
-39.1204	430.962	11.1355
-39.1194	431.434	11.155
-39.1174	436.207	11.1746
-39.116	435.744	11.1941
-39.1138	430.72	11.2136
-39.11343	434.398	11.2332
-39.112	434.108	11.2527
-39.1096	432.896	11.2722
-39.1082	436.281	11.2917
-39.1062	437.302	11.3113
-39.1041	432.86	11.3308
-39.1031	434.075	11.3503
-39.1009	440.765	11.3699
-39.0993	432.74	11.3894
-39.09861	433.667	11.4089
-39.0964	439.468	11.4285
-39.09494	437.118	11.448
-39.093	431.181	11.4675
-39.0914	439.535	11.4871
-39.0896	434.6004	11.5066
-39.0875	433.559	11.5261
-39.08625	439.8136	11.5457
-39.084	440.367	11.5652
-39.0832	429.946	11.5847
-39.081	440.3316	11.6042
-39.08	439.786	11.6238
-39.0787	434.586	11.6433
-39.0772	436.968	11.6628
-39.0745	441.649	11.6824
-39.0724	433.593	11.7019
-39.0717	437.276	11.7214
-39.0695	439.254	11.741
-39.06934	434.153	11.7605
-39.0685	436.704	11.78
-39.066	441.78	11.7996
-39.064	437.248	11.8191
-39.061	433.422	11.8386
-39.061	441.209	11.8582
-39.0586	439.049	11.8777
-39.05727	436.705	11.8972
-39.0557	436.081	11.9167
-39.05407	441.939	11.9363
-39.0517	436.261	11.9558
-39.0494	438.262	11.9753
-39.0489	442.444	11.9949
-39.0478	437.839	12.0144
-39.0456	434.331	12.0339
-39.0441	444.71	12.0535
-39.0422	438.619	12.073
-39.0411	435.533	12.0925
-39.04	441.035	12.1121
-39.0369	442.364	12.1316
-39.03503	433.854	12.1511
-39.03339	440.998	12.1707
-39.0321	438.2356	12.1902
-39.032	435.478	12.2097
-39.0299	440.798	12.2292
-39.0276	442.719	12.2488
-39.0264	432.983	12.2683
-39.0248	437.362	12.2878
-39.0239	441.927	12.3074
-39.0211	437.836	12.3269
-39.0184	435.732	12.3464
-39.018	440.56	12.366
-39.0154	436.566	12.3855
-39.0154	436.1629	12.405
-39.0134	438.841	12.4246
-39.0131	438.028	12.4441
-39.011	437.108	12.4636
-39.0084	440.05	12.4832
-39.00684	440.749	12.5027
-39.0043	434.165	12.5222
-39.0038	438.566	12.5417
-39.003	440.7056	12.5613
-39.0005	437.137	12.5808
-38.9981	435.146	12.6003
-38.99715	442.671	12.6199
-38.99577	435.4393	12.6394
-38.9932	437.386	12.6589
-38.9921	442.185	12.6785
-38.9905	439.428	12.698
-38.9886	433.046	12.7175
-38.9861	442.579	12.7371
-38.9861	437.795	12.7566
-38.9844	433.066	12.7761
-38.9822	440.306	12.7957
-38.9804	440.091	12.8152
-38.9783	431.706	12.8347
-38.978	439.188	12.8542
-38.9758	440.144	12.8738
-38.9741	434.381	12.8933
-38.9735	438.74	12.9128
-38.9707	440.527	12.9324
-38.9694	433.57	12.9519
-38.9673	434.668	12.9714
-38.96587	442.118	12.991
-38.9641	435.702	13.0105
-38.9624	434.559	13.03
-38.9615	436.856	13.0496
-38.9594	437.645	13.0691
-38.9572	431.255	13.0886
-38.9567	438.041	13.1082
-38.95459	436.959	13.1277
-38.952	434.363	13.1472
-38.9514	434.016	13.1667
-38.95039	438.469	13.1863
-38.94902	432.261	13.2058
-38.9471	435.618	13.2253
-38.9446	440.71	13.2449
-38.9425	435.604	13.2644
-38.942	430.955	13.2839
-38.9412	439.43	13.3035
-38.93816	434.093	13.323
-38.9366	433.247	13.3425
-38.9349	437.395	13.3621
-38.9335	436.359	13.3816
-38.9332	429.571	13.4011
-38.9306	437.982	13.4207
-38.9285	436.498	13.4402
-38.9274	429.151	13.4597
-38.9261	434.556	13.4792
-38.9231	437.286	13.4988
-38.922	428.912	13.5183
-38.9202	433.039	13.5378
-38.9185	435.752	13.5574
-38.9174	430.051	13.5769
-38.9163	434.386	13.5964
-38.9136	435.988	13.616
-38.9125	432.718	13.6355
-38.91082	429.539	13.655
-38.9096	436.367	13.6746
-38.9076	433.413	13.6941
-38.9057	430.144	13.7136
-38.9045	431.66	13.7332
-38.9028	436.337	13.7527
-38.9006	428.98	13.7722
-38.9002	432.367	13.7917
-38.898	434.921	13.8113
-38.8962	430.9429	13.8308
-38.8936	429.278	13.8503
-38.8918	437.923	13.8699
-38.8909	429.778	13.8894
-38.8892	430.072	13.9089
-38.8878	437.022	13.9285
-38.8861	433.7785	13.948
-38.8844	426.12	13.9675
-38.8825	435.205	13.9871
-38.8814	430.778	14.0066
-38.8796	429.888	14.0261
-38.8787	433.26	14.0457
-38.8762	432.03	14.0652
-38.8745	425.447	14.0847
-38.8726	432	14.1042
-38.8715	431.428	14.1238
-38.8699	425.305	14.1433
-38.8682	430.381	14.1628
-38.8666	434.031	14.1824
-38.86565	428.11	14.2019
-38.8639	427.613	14.2214
-38.8622	431.262	14.241
-38.86021	429.105	14.2605
-38.8587	429.497	14.28
-38.8562	431.02	14.2996
-38.8555	431.927	14.3191
-38.8537	426.087	14.3386
-38.8524	432.338	14.3582
-38.8512	432.239	14.3777
-38.8484	425.972	14.3972
-38.8466	426.444	14.4167
-38.8452	435.054	14.4363
-38.84343	425.63	14.4558
-38.8421	429.013	14.4753
-38.8412	433.045	14.4949
-38.8387	427.04	14.5144
-38.839	425.0033	14.5339
-38.8353	432.752	14.5535
-38.8339	427.172	14.573
-38.8323	425.067	14.5925
-38.8306	433.625	14.6121
-38.8289	430.323	14.6316
-38.8278	422.685	14.6511
-38.8265	431.127	14.6707
-38.8242	430.6	14.6902
-38.8217	424.354	14.7097
-38.8222	429.764	14.7292
-38.8201	429.75	14.7488
-38.81823	423.982	14.7683
-38.8166	427.23	14.7878
-38.8151	431.614	14.8074
-38.8136	426.126	14.8269
-38.8113	426.149	14.8464
-38.80896	429.866	14.866
-38.8091	428.398	14.8855
-38.80574	424.725	14.905
-38.8035	428.669	14.9246
-38.803	427.794	14.9441
-38.8015	426.076	14.9636
-38.7998	426.459	14.9832
-38.7978	430.437	15.0027
-38.7965	421.957	15.0222
-38.7961	428.977	15.0417
-38.7939	431.035	15.0613
-38.7921	423.667	15.0808
-38.7892	422.476	15.1003
-38.7886	432.996	15.1199
-38.7867	425.17	15.1394
-38.7864	425.686	15.1589
-38.7846	430.351	15.1785
-38.7819	425.126	15.198
-38.7807	422.185	15.2175
-38.7795	430.136	15.2371
-38.7768	424.758	15.2566
-38.7749	420.945	15.2761
-38.7733	427.932	15.2957
-38.7727	427.549	15.3152
-38.7714	420.162	15.3347
-38.7679	425.324	15.3542
-38.7674	427.4791	15.3738
-38.7653	421.24	15.3933
-38.7647	426.146	15.4128
-38.7622	427.23	15.4324
-38.7602	424.46	15.4519
-38.759	421.641	15.4714
-38.7569	429.896	15.491
-38.7554	424.575	15.5105
-38.7538	424.115	15.53
-38.75256	426.4303	15.5496
-38.7509	429.103	15.5691
-38.7496	420.785	15.5886
-38.7485	427.267	15.6082
-38.747	425.613	15.6277
-38.7442	423.039	15.6472
-38.74297	423.059	15.6667
-38.7424	429.207	15.6863
-38.7394	420.99	15.7058
-38.7387	424.061	15.7253
-38.7382	428.7247	15.7449
-38.7355	422.721	15.7644
-38.73328	420.281	15.7839
-38.731	428.692	15.8035
-38.73	424.278	15.823
-38.72871	422.1442	15.8425
-38.72691	427.532	15.8621
-38.7254	426.231	15.8816
-38.7234	420.591	15.9011
-38.7219	427.066	15.9207
-38.71965	426.507	15.9402
-38.7179	419.79	15.9597
-38.7168	426.1546	15.9792
-38.7154	426.676	15.9988
-38.71394	422.253	16.0183
-38.7114	423.523	16.0378
-38.7103	427.487	16.0574
-38.70866	421.794	16.0769
-38.7078	422.685	16.0964
-38.7056	425.035	16.116
-38.7038	423.312	16.1355
-38.7027	421.923	16.155
-38.7021	429.044	16.1746
-38.6989	425.9942	16.1941
-38.6972	422.558	16.2136
-38.6958	425.092	16.2332
-38.6943	428.843	16.2527
-38.6929	418.681	16.2722
-38.6912	424.7941	16.2917
-38.6901	428.139	16.3113
-38.6875	424.286	16.3308
-38.6861	420.252	16.3503
-38.68325	428.6676	16.3699
-38.683	421.767	16.3894
-38.6814	420.733	16.4089
-38.6788	429.9772	16.4285
-38.6773	423.553	16.448
-38.677	418.463	16.4675
-38.6752	426.547	16.4871
-38.67384	425.693	16.5066
-38.6715	418.861	16.5261
-38.67	426.067	16.5457
-38.6682	426.041	16.5652
-38.6666	421.4444	16.5847
-38.6662	424.7128	16.6042
-38.6623	425.459	16.6238
-38.662	420.013	16.6433
-38.6618	424.152	16.6628
-38.6583	426.404	16.6824
-38.6567	421.783	16.7019
-38.656	419.319	16.7214
-38.653	427.341	16.741
-38.6523	422.668	16.7605
-38.6502	423.462	16.78
-38.6497	424.234	16.7996
-38.647	425.378	16.8191
-38.6454	420.049	16.8386
-38.6428	426.916	16.8582
-38.6426	426.327	16.8777
-38.641	420.046	16.8972
-38.6387	421.37	16.9167
-38.6364	428.445	16.9363
-38.6361	420.065	16.9558
-38.634	422.828	16.9753
-38.6318	428.024	16.9949
-38.6305	421.107	17.0144
-38.629	418.141	17.0339
-38.6267	426.348	17.0535
-38.62513	421.351	17.073
-38.6238	419.668	17.0925
-38.6226	427.635	17.1121
-38.6202	423.531	17.1316
-38.61898	416.8483	17.1511
-38.6186	425.536	17.1707
-38.6162	424.7023	17.1902
-38.6139	418.607	17.2097
-38.6127	424.0451	17.2292
-38.6118	422.318	17.2488
-38.61	421.8363	17.2683
-38.60741	421.308	17.2878
-38.6063	426.399	17.3074
-38.6049	419.843	17.3269
-38.6021	422.185	17.3464
-38.6017	422.849	17.366
-38.6	423.2453	17.3855
-38.5981	417.732	17.405
-38.5967	425.5517	17.4246
-38.5939	423.469	17.4441
-38.5942	420.826	17.4636
-38.59182	420.596	17.4832
-38.5899	425.721	17.5027
-38.5878	418.256	17.5222
-38.58572	422.735	17.5417
-38.5856	425.494	17.5613
-38.5849	418.895	17.5808
-38.58271	418.995	17.6003
-38.5802	428.915	17.6199
-38.5782	420.886	17.6394
-38.5767	418.182	17.6589
-38.57502	425.5863	17.6785
-38.5743	421.683	17.698
-38.573	418.659	17.7175
-38.5696	425.315	17.7371
-38.569	422.73	17.7566
-38.5675	417.155	17.7761
-38.5654	426.194	17.7957
-38.5643	421.486	17.8152
-38.5625	418.257	17.8347
-38.5612	420.091	17.8542
-38.56	425.639	17.8738
-38.5575	420.104	17.8933
-38.5553	420.646	17.9128
-38.555	423.469	17.9324
-38.55241	421.973	17.9519
-38.5509	418.844	17.9714
-38.549	427.858	17.991
-38.5479	420.146	18.0105
-38.5457	419.185	18.03
-38.5442	422.726	18.0496
-38.5427	425.409	18.0691
-38.5415	416.331	18.0886
-38.5391	422.97	18.1082
-38.5376	425.35	18.1277
-38.5372	419.24	18.1472
-38.5345	420.628	18.1667
-38.5336	424.9014	18.1863
-38.5308	419.414	18.2058
-38.5303	421.142	18.2253
-38.52861	426.141	18.2449
-38.526	419.1113	18.2644
-38.5246	418.867	18.2839
-38.5239	426.2608	18.3035
-38.5218	421.454	18.323
-38.5205	417.844	18.3425
-38.5184	426.098	18.3621
-38.51767	421.769	18.3816
-38.5151	418.059	18.4011
-38.5125	423.02	18.4207
-38.5117	422.19	18.4402
-38.5109	417.857	18.4597
-38.5092	424.543	18.4792
-38.507	423.294	18.4988
-38.5058	420.206	18.5183
-38.50351	418.806	18.5378
-38.5032	426.676	18.5574
-38.5005	419.817	18.5769
-38.4994	419.928	18.5964
-38.49638	421.808	18.616
-38.4953	422.345	18.6355
-38.4941	416.671	18.655
-38.4921	422.613	18.6746
-38.49028	424.297	18.6941
-38.4891	418.79	18.7136
-38.48851	421	18.7332
-38.4861	425.263	18.7527
-38.4838	417.139	18.7722
-38.4825	420.931	18.7917
-38.4815	424.565	18.8113
-38.48	417.057	18.8308
-38.4773	418.548	18.8503
-38.4756	424.2699	18.8699
-38.4752	419.599	18.8894
-38.474	419.266	18.9089
-38.4705	426.347	18.9285
-38.4711	419.284	18.948
-38.4682	418.003	18.9675
-38.4655	423.715	18.9871
-38.4644	421.801	19.0066
-38.46339	417.021	19.0261
-38.461	423.571	19.0457
-38.4605	420.458	19.0652
-38.4578	420.218	19.0847
-38.4562	419.802	19.1042
-38.4561	424.1969	19.1238
-38.4534	418.253	19.1433
-38.4516	423.784	19.1628
-38.44986	421.968	19.1824
-38.4486	419.922	19.2019
-38.4472	416.551	19.2214
-38.4448	427.04	19.241
-38.4432	422.265	19.2605
-38.4421	419.665	19.28
-38.4402	420.314	19.2996
-38.4376	422.407	19.3191
-38.4377	415.331	19.3386
-38.436	422.765	19.3582
-38.4345	422.077	19.3777
-38.4325	418.192	19.3972
-38.4307	420.206	19.4167
-38.4289	424.435	19.4363
-38.4279	415.781	19.4558
-38.4244	417.693	19.4753
-38.4246	425.9299	19.4949
-38.4223	417.722	19.5144
-38.4212	417.128	19.5339
-38.4183	423.685	19.5535
-38.417	421.735	19.573
-38.4156	416.721	19.5925
-38.4153	424.785	19.6121
-38.4109	419.036	19.6316
-38.4115	418.0155	19.6511
-38.4094	423.452	19.6707
-38.4066	425.178	19.6902
-38.4068	418.031	19.7097
-38.4049	422.336	19.7292
-38.4048	422.081	19.7488
-38.40097	420.011	19.7683
-38.3998	417.939	19.7878
-38.3989	423.759	19.8074
-38.3963	419.247	19.8269
-38.3939	420.141	19.8464
-38.3923	420.986	19.866
-38.3918	421.446	19.8855
-38.3907	414.995	19.905
-38.3892	425.309	19.9246
-38.38726	423.206	19.9441
-38.3847	417.638	19.9636
-38.384	421.638	19.9832
-38.3811	423.333	20.0027
-38.3819	421.352	20.0125

Data Header:			0.254_solid_uprint_typeiv_090_r0			Time:	26.1699	s	4/14/2019 1:14:13 AM
Data Acquisition:	Timed
Station Name:	ft40.cfg
Test File Name:	monotonic_0.2540_typeiv_solid_090_uprint.tst
Displacement	Force	Running Time
mm	N	s
-38.37944	416.343	20.0222
-38.37859	413.47	20.032
-38.3782	420.03	20.0417
-38.3773	425.528	20.0515
-38.37524	422.5148	20.0613
-38.3757	420.172	20.071
-38.3752	415.48	20.0808
-38.3747	417.524	20.0906
-38.3741	419.546	20.1003
-38.3727	424.187	20.1101
-38.3717	425.162	20.1199
-38.37077	423.227	20.1296
-38.3707	418.295	20.1394
-38.3697	415.119	20.14917
-38.3679	416.963	20.1589
-38.3688	422.876	20.1687
-38.367	425.444	20.1785
-38.3659	420.345	20.1882
-38.3658	418.8252	20.198
-38.3644	417.641	20.2078
-38.3648	417.566	20.2175
-38.3628	421.02	20.2273
-38.3625	423.43	20.2371
-38.3612	426.827	20.2468
-38.3604	420.59	20.2566
-38.36	415.877	20.2664
-38.35936	415.885	20.2761
-38.3579	420.224	20.2859
-38.358	424.3251	20.2957
-38.35667	424.244	20.30542
-38.3561	420.328	20.3152
-38.3549	419.08	20.325
-38.35397	419.625	20.3347
-38.3535	419.242	20.3445
-38.3519	420.14	20.3542
-38.3524	423.081	20.364
-38.351	424.925	20.3738
-38.3498	419.5701	20.3835
-38.3495	417.376	20.3933
-38.3493	418.842	20.4031
-38.3478	420.036	20.4128
-38.3476	423.614	20.4226
-38.346	421.318	20.4324
-38.3452	420.138	20.4421
-38.3448	421.336	20.4519
-38.3432	417.953	20.46167
-38.3423	415.966	20.4714
-38.3433	419.118	20.4812
-38.341	424.603	20.491
-38.3404	422.891	20.5007
-38.3395	419.231	20.5105
-38.339	414.922	20.5203
-38.33709	418.883	20.53
-38.3376	418.958	20.5398
-38.3351	420.825	20.5496
-38.3355	422.723	20.5593
-38.3352	422.837	20.5691
-38.3335	418.422	20.5789
-38.3325	415.264	20.5886
-38.3309	415.491	20.5984
-38.3313	421.6785	20.6082
-38.3314	424.225	20.61792
-38.3302	425.3924	20.6277
-38.3292	418.097	20.6375
-38.3277	416.266	20.6472
-38.3272	419.13	20.657
-38.3273	417.335	20.6667
-38.3252	423.4216	20.6765
-38.3244	423.354	20.6863
-38.3231	421.85	20.696
-38.3238	417.506	20.7058
-38.3219	413.406	20.7156
-38.3213	416.953	20.7253
-38.3209	422.155	20.7351
-38.3195	423.928	20.7449
-38.3187	421.649	20.7546
-38.319	416.347	20.7644
-38.3176	416.847	20.77417
-38.3159	418.745	20.7839
-38.3163	420.489	20.7937
-38.3139	422.982	20.8035
-38.314	421.6452	20.8132
-38.3135	419.787	20.823
-38.31284	414.7728	20.8328
-38.3116	414.747	20.8425
-38.3109	421.648	20.8523
-38.3102	423.502	20.8621
-38.3088	422.134	20.8718
-38.3091	418.172	20.8816
-38.3069	416.645	20.8914
-38.308	417.544	20.9011
-38.3057	419.717	20.9109
-38.305	420.5274	20.9207
-38.3047	423.453	20.93042
-38.3031	422.197	20.9402
-38.3027	416.483	20.95
-38.3021	417.66	20.9597
-38.30019	416.7117	20.9695
-38.3012	423.078	20.9792
-38.3001	422.524	20.989
-38.2984	421.481	20.9988
-38.2978	418.779	21.0085
-38.2972	418.692	21.0183
-38.296	417.964	21.0281
-38.2956	418.58	21.0378
-38.2951	418.06	21.0476
-38.295	423.342	21.0574
-38.293	419.227	21.0671
-38.2912	417.982	21.0769
-38.29142	414.417	21.08667
-38.2906	417.582	21.0964
-38.2902	421.186	21.1062
-38.2904	420.466	21.116
-38.2878	422.389	21.1257
-38.2879	419.206	21.1355
-38.2869	416.97	21.1453
-38.2862	416.0264	21.155
-38.285	417.082	21.1648
-38.2835	420.815	21.1746
-38.28334	426.362	21.1843
-38.28241	420.603	21.1941
-38.2815	417.636	21.2039
-38.2808	415.339	21.2136
-38.2802	417.8	21.2234
-38.28	419.619	21.2332
-38.2794	423.803	21.24292
-38.2776	422.282	21.2527
-38.276	420.1297	21.2625
-38.2766	415.243	21.2722
-38.2764	413.535	21.282
-38.2733	419.667	21.2917
-38.2736	424.202	21.3015
-38.2726	425.45	21.3113
-38.2718	418.55	21.321
-38.2712	414.229	21.3308
-38.2706	417.889	21.3406
-38.2695	418.219	21.3503
-38.2686	422.516	21.3601
-38.2682	423.413	21.3699
-38.2671	422.057	21.3796
-38.2665	419.433	21.3894
-38.2647	413.078	21.39917
-38.2651	417.153	21.4089
-38.2643	421.581	21.4187
-38.263	424.064	21.4285
-38.2617	422.324	21.4382
-38.2611	416.463	21.448
-38.261	414.952	21.4578
-38.2589	417.774	21.4675
-38.2583	419.5972	21.4773
-38.2569	421.78	21.4871
-38.2575	422.557	21.4968
-38.2562	421.139	21.5066
-38.2552	415.602	21.5164
-38.2545	417.303	21.5261
-38.2541	417.938	21.5359
-38.2534	422.9	21.5457
-38.2525	422.33	21.55542
-38.2516	421.155	21.5652
-38.25021	415.8595	21.575
-38.2499	417.754	21.5847
-38.2488	417.78	21.5945
-38.2479	418.014	21.6042
-38.249	422.8334	21.614
-38.2467	424.476	21.6238
-38.2466	417.584	21.6335
-38.2453	417.621	21.6433
-38.2431	415.3028	21.6531
-38.2445	420.702	21.6628
-38.2418	422.999	21.6726
-38.242	419.429	21.6824
-38.2415	420.279	21.6921
-38.2405	417.965	21.7019
-38.2392	417.55	21.71167
-38.239	415.722	21.7214
-38.2378	418.068	21.7312
-38.2372	423.342	21.741
-38.2351	423.41	21.7507
-38.2361	418.68	21.7605
-38.2348	415.1976	21.7703
-38.2338	414.608	21.78
-38.2347	418.738	21.7898
-38.2314	419.626	21.7996
-38.2314	421.733	21.8093
-38.2296	419.891	21.8191
-38.2291	417.241	21.8289
-38.2286	416.092	21.8386
-38.2297	414.715	21.8484
-38.2263	419.525	21.8582
-38.2269	424.506	21.86792
-38.2243	419.006	21.8777
-38.2243	416.747	21.8875
-38.2235	413.687	21.8972
-38.224	416.714	21.907
-38.2222	419.139	21.9167
-38.2219	422.172	21.9265
-38.2199	421.474	21.9363
-38.2191	420.888	21.946
-38.219	416.061	21.9558
-38.2171	413.242	21.9656
-38.2176	416.0972	21.9753
-38.2165	422.602	21.9851
-38.2161	423.712	21.9949
-38.215	420.2514	22.0046
-38.2144	415.06	22.0144
-38.214	415.27	22.02417
-38.2127	416.377	22.0339
-38.2115	420.426	22.0437
-38.2102	420.633	22.0535
-38.2097	421.329	22.0632
-38.2089	418.511	22.073
-38.20866	412.384	22.0828
-38.2073	415.9566	22.0925
-38.2065	417.901	22.1023
-38.206	421.875	22.1121
-38.2054	421.949	22.1218
-38.2038	417.417	22.1316
-38.2036	414.282	22.1414
-38.2026	417.2948	22.1511
-38.2023	418.098	22.1609
-38.2003	419.487	22.1707
-38.2006	420.427	22.18042
-38.1993	420.717	22.1902
-38.1986	417.3096	22.2
-38.1978	415.846	22.2097
-38.1973	416.038	22.2195
-38.1961	420.904	22.2292
-38.1949	420.724	22.239
-38.194	420.2485	22.2488
-38.1942	417.144	22.2585
-38.1924	417.055	22.2683
-38.193	416.512	22.2781
-38.1917	414.984	22.2878
-38.1909	419.535	22.2976
-38.1898	420.317	22.3074
-38.1887	421.637	22.3171
-38.18943	417.114	22.3269
-38.1867	412.04	22.33667
-38.1867	417.5621	22.3464
-38.1853	419.8176	22.3562
-38.1848	419.557	22.366
-38.1842	421.607	22.3757
-38.1829	418.756	22.3855
-38.1813	417.398	22.3953
-38.1802	414.479	22.405
-38.1807	414.904	22.4148
-38.1806	420.807	22.4246
-38.1786	422.699	22.4343
-38.17831	421.873	22.4441
-38.1769	414.797	22.4539
-38.1769	413.759	22.4636
-38.1757	417.876	22.4734
-38.1761	419.2337	22.4832
-38.1743	423.147	22.49292
-38.1735	421.246	22.5027
-38.1729	418.456	22.5125
-38.1716	416.142	22.5222
-38.17144	413.482	22.532
-38.1698	416.7757	22.5417
-38.1687	422.983	22.5515
-38.1684	422.682	22.5613
-38.1673	417.773	22.571
-38.16721	414.148	22.5808
-38.1659	413.422	22.5906
-38.1658	418.838	22.6003
-38.1635	420.036	22.6101
-38.1634	422.405	22.6199
-38.16383	420.1582	22.6296
-38.1609	416.197	22.6394
-38.1624	412.082	22.64917
-38.1605	416.791	22.6589
-38.1597	419.728	22.6687
-38.1586	423.542	22.6785
-38.1578	418.437	22.6882
-38.1583	414.783	22.698
-38.1563	413.574	22.7078
-38.1558	415.541	22.7175
-38.1551	418.923	22.7273
-38.1531	419.113	22.7371
-38.1532	420.446	22.7468
-38.1519	421.315	22.7566
-38.1507	414.058	22.7664
-38.1502	415.563	22.7761
-38.1503	415.36	22.7859
-38.1473	420.618	22.7957
-38.1489	421.254	22.80542
-38.1476	417.098	22.8152
-38.1457	415.947	22.825
-38.1464	415.568	22.8347
-38.14526	416.375	22.8445
-38.1442	417.871	22.8542
-38.1438	418.866	22.864
-38.14275	421.077	22.8738
-38.1422	418.982	22.8835
-38.1407	414.692	22.8933
-38.1398	413.736	22.9031
-38.1391	416.853	22.9128
-38.1384	420.141	22.9226
-38.138	418.085	22.9324
-38.1375	418.471	22.9421
-38.1353	418.613	22.9519
-38.134	416.263	22.96167
-38.1354	413.818	22.9714
-38.1338	416.049	22.9812
-38.13269	420.242	22.991
-38.1325	422.704	23.0007
-38.1309	417.125	23.0105
-38.1297	412.893	23.0203
-38.1302	414.118	23.03
-38.1281	417.138	23.0398
-38.1279	418.936	23.0496
-38.127	419.821	23.0593
-38.1255	416.897	23.0691
-38.1255	416.367	23.0789
-38.12355	413.682	23.0886
-38.1249	414.372	23.0984
-38.1243	417.444	23.1082
-38.123	420.184	23.11792
-38.1213	420.733	23.1277
-38.1205	413.726	23.1375
-38.119	412.076	23.1472
-38.1193	416.011	23.157
-38.1189	416.7149	23.1667
-38.1163	421.017	23.1765
-38.1159	419.708	23.1863
-38.1153	416.987	23.196
-38.1133	413.696	23.2058
-38.1132	410.979	23.2156
-38.1127	415.967	23.2253
-38.1132	421.955	23.2351
-38.1115	422.246	23.2449
-38.1111	415.794	23.2546
-38.1096	412.797	23.2644
-38.1098	412.371	23.27417
-38.1082	416.52	23.2839
-38.108	417.884	23.2937
-38.1068	419.279	23.3035
-38.1067	419.466	23.3132
-38.1051	416.892	23.323
-38.1037	412.191	23.3328
-38.1037	412.8006	23.3425
-38.10276	415.79	23.3523
-38.1028	422.285	23.3621
-38.1027	419.522	23.3718
-38.1	415.241	23.3816
-38.09948	412.749	23.3914
-38.0986	414.2504	23.4011
-38.0972	415.817	23.4109
-38.0961	417.195	23.4207
-38.0963	417.593	23.43042
-38.09515	418.807	23.4402
-38.095	414.751	23.45
-38.0929	412.646	23.4597
-38.0928	412.34	23.4695
-38.0921	417.216	23.4792
-38.0922	418.311	23.489
-38.0912	416.06	23.4988
-38.0888	416.259	23.5085
-38.0891	413.126	23.5183
-38.08791	414.349	23.5281
-38.08728	414.09	23.5378
-38.0865	415.194	23.5476
-38.0858	418.852	23.5574
-38.08559	420.594	23.5671
-38.084	414.8934	23.5769
-38.0832	411.3941	23.58667
-38.0818	411.285	23.5964
-38.0808	417.459	23.6062
-38.0799	418.09	23.616
-38.0799	418.226	23.6257
-38.08	416.588	23.6355
-38.0782	414.396	23.6453
-38.0779	412.732	23.655
-38.077	411.8793	23.6648
-38.0766	415.215	23.6746
-38.0756	419.6377	23.6843
-38.07341	417.531	23.6941
-38.07262	410.848	23.7039
-38.0729	411.264	23.7136
-38.0713	413.78	23.7234
-38.0713	415.979	23.7332
-38.0709	419.545	23.74292
-38.0695	416.253	23.7527
-38.0691	415.41	23.7625
-38.0674	411.407	23.7722
-38.0676	409.589	23.782
-38.0656	414.062	23.7917
-38.0654	419.886	23.8015
-38.0642	419.887	23.8113
-38.064	415.401	23.821
-38.0627	409.314	23.8308
-38.0629	411.143	23.8406
-38.0617	414.0484	23.8503
-38.0604	418.46	23.8601
-38.0594	415.944	23.8699
-38.0585	414.046	23.8796
-38.0586	414.327	23.8894
-38.0575	409.265	23.89917
-38.0562	412.409	23.9089
-38.05423	417.194	23.9187
-38.0545	417.276	23.9285
-38.0533	417.746	23.9382
-38.0525	410.376	23.948
-38.0517	408.776	23.9578
-38.0518	412.752	23.9675
-38.0506	414.021	23.9773
-38.05	415.972	23.9871
-38.0495	414.85	23.9968
-38.0482	413.427	24.0066
-38.0461	410.023	24.0164
-38.048	410.258	24.0261
-38.0455	410.2702	24.0359
-38.0453	416.283	24.0457
-38.0446	415.931	24.05542
-38.0444	414.4957	24.0652
-38.0431	409.214	24.075
-38.0416	409.037	24.0847
-38.0408	410.913	24.0945
-38.0392	410.844	24.1042
-38.04	414.091	24.114
-38.0384	413.897	24.1238
-38.0375	412.651	24.1335
-38.03714	407.891	24.1433
-38.0363	406.219	24.1531
-38.0354	408.183	24.1628
-38.035	413.543	24.1726
-38.0336	411.136	24.1824
-38.0331	410.864	24.1921
-38.031	407.384	24.2019
-38.03093	405.371	24.21167
-38.0304	403.108	24.2214
-38.0257	17.8776	24.2312
-38.0258	-22.0425	24.241
-38.0247	-38.9677	24.2507
-38.0257	-55.1819	24.2605
-38.0253	-43.5454	24.2703
-38.0246	-43.063	24.28
-38.0242	-42.51125	24.2898
-38.0226	-38.3082	24.2996
-38.0218	-39.8487	24.3093
-38.021	-41.724	24.3191
-38.0205	-43.3908	24.3289
-38.0186	-42.7404	24.3386
-38.018	-44.6112	24.3484
-38.0189	-40.8802	24.3582
-38.0179	-36.6801	24.36792
-38.0164	-38.2607	24.3777
-38.0162	-45.168	24.3875
-38.0151	-47.17915	24.3972
-38.0145	-46.1392	24.407
-38.0134	-40.7361	24.4167
-38.0118	-39.49501	24.4265
-38.0116	-41.4272	24.4363
-38.0108	-40.4047	24.446
-38.0093	-44.2886	24.4558
-38.0098	-47.34771	24.4656
-38.0088	-42.3777	24.4753
-38.0083	-39.9235	24.4851
-38.007	-35.646	24.4949
-38.00589	-40.3279	24.5046
-38.0049	-47.2528	24.5144
-38.0039	-45.2434	24.52417
-38.00362	-42.3466	24.5339
-38.00349	-39.9312	24.5437
-38.0018	-39.6044	24.5535
-38.0015	-41.5541	24.5632
-38.0011	-41.1364	24.573
-37.9995	-47.1833	24.5828
-37.9989	-45.7121	24.5925
-37.9975	-41.6944	24.6023
-37.9977	-39.3954	24.6121
-37.9954	-38.3025	24.6218
-37.9963	-43.9113	24.6316
-37.9952	-45.2903	24.6414
-37.9933	-43.9977	24.6511
-37.99371	-42.7765	24.6609
-37.9923	-41.9289	24.6707
-37.9927	-40.7949	24.68042
-37.9912	-40.4406	24.6902
-37.9908	-42.774	24.7
-37.989	-45.7101	24.7097
-37.98859	-44.7963	24.7195
-37.9875	-40.3229	24.7292
-37.9862	-40.2216	24.739
-37.9858	-39.9925	24.7488
-37.985	-41.6198	24.7585
-37.9839	-45.1031	24.7683
-37.984	-43.1688	24.7781
-37.9815	-44.0127	24.7878
-37.9815	-41.8509	24.7976
-37.9813	-39.2958	24.8074
-37.9806	-38.3865	24.8171
-37.9789	-41.2328	24.8269
-37.9781	-46.4718	24.83667
-37.97823	-44.8015	24.8464
-37.9776	-39.2021	24.8562
-37.9767	-40.98027	24.866
-37.97583	-37.9937	24.8757
-37.97403	-42.8395	24.8855
-37.97377	-45.0546	24.8953
-37.9736	-44.1205	24.905
-37.971	-45.9333	24.9148
-37.9713	-39.6368	24.9246
-37.9705	-36.5091	24.9343
-37.97	-40.0276	24.9441
-37.9683	-43.75267	24.9539
-37.9685	-48.4705	24.9636
-37.9671	-44.1649	24.9734
-37.966	-40.0746	24.9832
-37.9654	-40.5434	24.99292
-37.96526	-40.3686	25.0027
-37.9633	-41.6979	25.0125
-37.9635	-45.21381	25.0222
-37.96236	-45.9013	25.032
-37.9619	-41.6903	25.0417
-37.9614	-37.5299	25.0515
-37.9595	-35.8829	25.0613
-37.95863	-42.4815	25.071
-37.9583	-47.2805	25.0808
-37.9575	-46.8105	25.0906
-37.956	-42.1403	25.1003
-37.9567	-38.6699	25.1101
-37.95422	-40.3953	25.1199
-37.9534	-40.5035	25.1296
-37.9522	-43.1142	25.1394
-37.95174	-45.1406	25.14917
-37.9517	-43.6814	25.1589
-37.9504	-42.90659	25.1687
-37.9505	-37.5345	25.1785
-37.9486	-40.31665	25.1882
-37.9487	-45.2009	25.198
-37.9469	-45.80275	25.2078
-37.94643	-43.7243	25.2175
-37.9463	-41.2196	25.2273
-37.9445	-41.10931	25.2371
-37.9451	-41.9371	25.2468
-37.9437	-38.3867	25.2566
-37.9425	-42.9526	25.2664
-37.942	-44.4848	25.2761
-37.9415	-43.3446	25.2859
-37.9401	-40.65654	25.2957
-37.9397	-38.8245	25.30542
-37.93972	-41.9531	25.3152
-37.9383	-43.8068	25.325
-37.9375	-43.9248	25.3347
-37.9376	-44.0697	25.3445
-37.9366	-42.008	25.3542
-37.9347	-40.8103	25.364
-37.9338	-40.2497	25.3738
-37.9322	-39.3107	25.3835
-37.9319	-43.9951	25.3933
-37.9308	-47.6614	25.4031
-37.931	-45.2695	25.4128
-37.9301	-40.92799	25.4226
-37.9291	-40.5029	25.4324
-37.9279	-40.907	25.4421
-37.9277	-44.3515	25.4519
-37.9276	-43.2444	25.46167
-37.92625	-44.7685	25.4714
-37.9245	-43.402	25.4812
-37.9239	-39.3572	25.491
-37.9239	-38.2244	25.5007
-37.9221	-40.0727	25.5105
-37.9215	-46.6139	25.5203
-37.921	-47.8991	25.53
-37.9199	-42.7521	25.5398
-37.91975	-39.4577	25.5496
-37.9193	-39.1075	25.5593
-37.9181	-42.7291	25.5691
-37.9172	-44.5171	25.5789
-37.9155	-44.7316	25.5886
-37.9145	-46.5744	25.5984
-37.9135	-40.3311	25.6082
-37.9139	-38.30402	25.61792
-37.9125	-38.0692	25.6277
-37.9126	-42.6413	25.6375
-37.91074	-49.3211	25.6472
-37.9103	-46.1388	25.657
-37.90947	-38.95	25.6667
-37.909	-39.7833	25.6765
-37.908	-40.0768	25.6863
-37.9083	-43.6634	25.696
-37.9071	-45.6055	25.7058
-37.9055	-46.6004	25.7156
-37.9054	-43.4441	25.7253
-37.9047	-39.2776	25.7351
-37.9029	-38.3742	25.7449
-37.9026	-39.4524	25.7546
-37.9015	-45.3654	25.7644
-37.9003	-46.7946	25.77417
-37.899	-43.3168	25.7839
-37.8993	-39.778	25.7937
-37.8983	-40.0398	25.8035
-37.8979	-40.5656	25.8132
-37.8961	-43.7674	25.823
-37.896	-45.5773	25.8328
-37.8949	-44.3256	25.8425
-37.8936	-42.9086	25.8523
-37.89352	-37.9736	25.8621
-37.8929	-37.566	25.8718
-37.8911	-44.8985	25.8816
-37.8899	-45.7771	25.8914
-37.8905	-45.0894	25.9011
-37.8892	-42.5318	25.9109
-37.8875	-42.7589	25.9207
-37.888	-42.20649	25.93042
-37.8879	-39.9837	25.9402
-37.8864	-42.5529	25.95
-37.8852	-44.1516	25.9597
-37.8838	-45.6871	25.9695
-37.8828	-43.762	25.9792
-37.88245	-37.9353	25.989
-37.8825	-40.9119	25.9988
-37.8806	-42.748	26.0085
-37.8803	-44.3054	26.0183
-37.8785	-45.4661	26.0281
-37.8801	-43.1125	26.0378
-37.8776	-43.1536	26.0476
-37.87709	-41.1032	26.0574
-37.8753	-38.4662	26.0671
-37.8759	-44.3841	26.0769
-37.8742	-45.8464	26.08667
-37.8736	-44.917	26.0964
-37.8732	-42.1373	26.1062
-37.8719	-38.9228	26.116
-37.8712	-41.1258	26.1257
-37.8706	-43.0196	26.1355
-37.8702	-44.4642	26.1453
-37.86776	-45.2967	26.155
-37.8682	-43.6397	26.1648