File: data/processed_data_files/tensile/0.254_solid_dimension_typei_4545_r(4).dat
MTS793|BTW|ENU|1|2|.|/|:|1|0|0|A

Data Header:			0.254_solid_dimension_typei_4545_r0			Time:	20.0181	s	4/14/2019 4:52:19 AM
Data Acquisition:	Timed
Station Name:	ft40.cfg
Test File Name:	monotonic_0.2540_typei_solid_4545_dimension.tst
Displacement	Force	Running Time
mm	N	s
9.95819	-139.38	0.0227051
9.95755	-136.089	0.0422363
9.95867	-123.386	0.0617676
9.95945	-133.0049	0.0812988
9.9616	-135.825	0.10083
9.96249	-124.629	0.120361
9.96405	-125.156	0.139893
9.96588	-136.3	0.159424
9.96683	-122.651	0.178955
9.96837	-123.387	0.198486
9.97063	-131.378	0.218018
9.97107	-120.6198	0.237549
9.97362	-117.814	0.25708
9.9752	-132.622	0.276611
9.97694	-122.459	0.296143
9.97789	-110.7	0.315674
9.98057	-125.47	0.335205
9.98246	-122.414	0.354736
9.98322	-113.516	0.374268
9.98621	-118.547	0.393799
9.986702	-121.952	0.41333
9.98786	-107.7032	0.432861
9.98916	-113.873	0.452393
9.99138	-118.926	0.471924
9.99404	-108.343	0.491455
9.994091	-107.208	0.510986
9.99608	-119.443	0.530518
9.99719	-107.642	0.550049
9.99974	-100.169	0.56958
10.0009	-111.148	0.589111
10.00247	-111.688	0.608643
10.0045	-96.1732	0.628174
10.0064	-107.56	0.647705
10.0088	-105.411	0.667236
10.0092	-93.8638	0.686768
10.0112	-102.25	0.706299
10.0124	-107.8952	0.72583
10.0141	-90.0775	0.745361
10.0157	-95.4626	0.764893
10.0167	-103.471	0.784424
10.0191	-90.3463	0.803955
10.0212	-89.425	0.823486
10.0218	-103.21	0.843018
10.0242	-90.7365	0.862549
10.0264	-87.0593	0.88208
10.0274	-96.2881	0.901611
10.0282	-89.7611	0.921143
10.0313	-83.7223	0.940674
10.0325	-93.8867	0.960205
10.03273	-91.7524	0.979736
10.036	-76.8523	0.999268
10.037	-85.3964	1.0188
10.0382	-87.6974	1.03833
10.0405	-78.6378	1.05786
10.0419	-79.198	1.07739
10.0441	-87.4757	1.09692
10.0452	-74.4744	1.11646
10.0471	-76.4893	1.13599
10.0485	-82.1862	1.15552
10.0493	-76.0276	1.17505
10.0516	-68.016	1.19458
10.0536	-81.5841	1.21411
10.054	-75.1777	1.23364
10.0557	-63.9049	1.25317
10.0579	-74.2797	1.27271
10.0607	-77.9602	1.29224
10.0606	-60.97525	1.31177
10.0634	-69.913	1.3313
10.064	-72.3186	1.35083
10.0663	-58.8514	1.37036
10.0677	-64.50618	1.38989
10.0694	-73.732	1.40942
10.0707	-57.1233	1.42896
10.0726	-57.7579	1.44849
10.0748	-70.1824	1.46802
10.076	-57.4062	1.48755
10.0779	-53.136	1.50708
10.0801	-64.9233	1.52661
10.0808	-59.0919	1.54614
10.0829	-47.947	1.56567
10.0846	-58.3263	1.58521
10.0862	-56.4293	1.60474
10.0886	-48.5609	1.62427
10.0888	-50.8356	1.6438
10.09047	-56.6262	1.66333
10.0929	-39.44854	1.68286
10.09463	-45.1897	1.70239
10.0963	-53.5127	1.72192
10.0968	-44.4797	1.74146
10.0989	-38.46138	1.76099
10.10061	-50.9615	1.78052
10.1013	-40.2859	1.80005
10.104	-35.3802	1.81958
10.1047	-43.8474	1.83911
10.1066	-42.635	1.85864
10.1079	-29.1977	1.87817
10.1108	-42.9843	1.89771
10.1119	-40.7867	1.91724
10.1127	-25.9651	1.93677
10.1155	-35.8463	1.9563
10.1172	-42.5165	1.97583
10.1191	-25.5302	1.99536
10.1203	-28.9997	2.01489
10.1222	-36.8553	2.03442
10.1227	-23.96859	2.05396
10.1235	-24.9697	2.07349
10.1262	-35.0139	2.09302
10.1276	-23.9138	2.11255
10.1302	-16.7769	2.13208
10.1312	-30.9185	2.15161
10.133	-23.6404	2.17114
10.1335	-15.458	2.19067
10.1356	-23.1319	2.21021
10.1387	-25.55829	2.22974
10.1389	-10.2207	2.24927
10.1409	-16.49695	2.2688
10.1431	-18.9434	2.28833
10.14367	-11.267	2.30786
10.1462	-9.79503	2.32739
10.1479	-20.7439	2.34692
10.1494	-5.91114	2.36646
10.1507	-4.03711	2.38599
10.153	-15.9702	2.40552
10.1539	-10.4033	2.42505
10.1557	0.56664	2.44458
10.1575	-11.5989	2.46411
10.1583	-3.27048	2.48364
10.1606	3.37584	2.50317
10.1629	-6.26708	2.52271
10.1633	-7.16301	2.54224
10.1653	9.26742	2.56177
10.168	-1.62178	2.5813
10.1702	-4.38227	2.60083
10.1705	11.6006	2.62036
10.1712	7.78199	2.63989
10.1737	-4.04088	2.65942
10.1755	9.88942	2.67896
10.1778	13.5409	2.69849
10.17796	2.61407	2.71802
10.1803	11.9213	2.73755
10.18193	14.7427	2.75708
10.18381	5.48032	2.77661
10.185	12.1143	2.79614
10.1861	22.678	2.81567
10.1885	11.1586	2.83521
10.1907	13.608	2.85474
10.19195	22.3551	2.87427
10.1933	20.5298	2.8938
10.1956	11.1514	2.91333
10.1977	26.16621	2.93286
10.1991	26.2682	2.95239
10.2005	15.8509	2.97192
10.2015	24.735	2.99146
10.20345	31.7142	3.01099
10.2044	17.75642	3.03052
10.2066	27.9827	3.05005
10.2072	36.4054	3.06958
10.2095	23.8954	3.08911
10.2111	25.6398	3.10864
10.21276	40.7482	3.12817
10.2149	32.1828	3.14771
10.2171	31.2237	3.16724
10.2179	44.284	3.18677
10.2189	34.1587	3.2063
10.2219	32.1466	3.22583
10.2221	45.2091	3.24536
10.2241	42.79388	3.26489
10.2262	33.0395	3.28442
10.2277	48.0116	3.30396
10.2283	47.8918	3.32349
10.2304	36.8029	3.34302
10.2331	48.1767	3.36255
10.2338	56.0938	3.38208
10.235	44.8538	3.40161
10.237	49.30291	3.42114
10.2392	53.1423	3.44067
10.2409	48.252	3.46021
10.2428	49.2455	3.47974
10.2443	62.9676	3.49927
10.2461	54.1771	3.5188
10.24709	49.2706	3.53833
10.2496	60.9673	3.55786
10.2506	64.2272	3.57739
10.2521	49.7531	3.59692
10.2528	64.6445	3.61646
10.2552	69.2262	3.63599
10.2567	56.1817	3.65552
10.25935	63.887	3.67505
10.2601	71.8019	3.69458
10.26128	61.0403	3.71411
10.2635	66.06041	3.73364
10.2645	77.6872	3.75317
10.2662	65.7675	3.77271
10.2678	64.5733	3.79224
10.2703	81.1547	3.81177
10.271	73.5645	3.8313
10.2717	68.588	3.85083
10.2738	81.2681	3.87036
10.27605	77.1976	3.88989
10.27765	70.9006	3.90942
10.2802	83.3778	3.92896
10.2815	86.4308	3.94849
10.2821	72.5651	3.96802
10.2843	86.9245	3.98755
10.2868	88.7261	4.00708
10.2876	80.27636	4.02661
10.2884	82.9315	4.04614
10.2914	97.2112	4.06567
10.2937	85.3702	4.08521
10.2933	84.8245	4.10474
10.2964	94.9436	4.12427
10.2971	90.465	4.1438
10.29896	86.39	4.16333
10.3018	100.785	4.18286
10.3027	95.8941	4.20239
10.304	88.1835	4.22192
10.3055	100.592	4.24146
10.3075	106.728	4.26099
10.3089	91.8663	4.28052
10.3097	100.029	4.30005
10.3127	110.072	4.31958
10.314	96.9004	4.33911
10.3152	100.474	4.35864
10.317	111.875	4.37817
10.3187	104.024	4.39771
10.3202	103.382	4.41724
10.3215	117.771	4.43677
10.3233	106.155	4.4563
10.3253	102.212	4.47583
10.3265	118.453	4.49536
10.32809	117.454	4.51489
10.3298	107.0192	4.53442
10.3312	121.077	4.55396
10.3336	118.772	4.57349
10.3355	111.47	4.59302
10.3369	119.8763	4.61255
10.3379	127.434	4.63208
10.3393	114.59	4.65161
10.34013	122.835	4.67114
10.3424	129.362	4.69067
10.3448	122.993	4.71021
10.3464	121.012	4.72974
10.3472	135.839	4.74927
10.3496	128.787	4.7688
10.3517	125.685	4.78833
10.3521	132.218	4.80786
10.3554	135.015	4.82739
10.3568	126.807	4.84692
10.3576	138.893	4.86646
10.3601	140.186	4.88599
10.3615	128.016	4.90552
10.3633	136.799	4.92505
10.3646	147.847	4.94458
10.3655	134.631	4.96411
10.3678	138.628	4.98364
10.3689	151.116	5.00317
10.3705	141.289	5.02271
10.373	138.738	5.04224
10.3739	152.399	5.06177
10.3749	146.37	5.0813
10.3781	140.805	5.10083
10.3795	157.627	5.12036
10.3809	148.244	5.13989
10.3826	142.519	5.15942
10.3845	155.426	5.17896
10.3855	159.431	5.19849
10.3865	148.788	5.21802
10.3887	156.291	5.23755
10.3907	161.876	5.25708
10.3922	153.085	5.27661
10.3928	157.416	5.29614
10.3953	168.191	5.31567
10.3981	157.74	5.33521
10.3979	161.774	5.35474
10.3994	168.26	5.37427
10.4018	164.17	5.3938
10.4038	158.033	5.41333
10.4049	173.862	5.43286
10.4069	172.024	5.45239
10.4078	163.164	5.47192
10.4103	170.901	5.49146
10.4119	177.668	5.51099
10.4123	167.146	5.53052
10.4149	177.028	5.55005
10.4167	183.22	5.56958
10.4184	168.277	5.58911
10.4191	172.913	5.60864
10.421	186.981	5.62817
10.4222	176.155	5.64771
10.4251	177.068	5.66724
10.4265	190.242	5.68677
10.4275	181.247	5.7063
10.4293	178.604	5.72583
10.4307	190.456	5.74536
10.4324	188.496	5.76489
10.4346	181.5094	5.78442
10.4354	192.671	5.80396
10.4376	192.792	5.82349
10.4391	184.238	5.84302
10.4411	192.615	5.86255
10.4419	201.995	5.88208
10.4438	189.751	5.90161
10.4462	194.575	5.92114
10.44749	202.794	5.94067
10.4491	197.029	5.96021
10.4508	193.777	5.97974
10.4518	207.655	5.99927
10.4528	200.494	6.0188
10.4558	194.781	6.03833
10.45652	209.717	6.05786
10.4587	207.251	6.07739
10.4606	196.182	6.09692
10.4614	210.271	6.11646
10.46333	214.81	6.13599
10.4656	200.591	6.15552
10.4664	209.088	6.17505
10.4686	219.13	6.19458
10.47	208.971	6.21411
10.4714	213.476	6.23364
10.4743	225.377	6.25317
10.47499	209.632	6.27271
10.477	212.267	6.29224
10.47787	226.776	6.31177
10.4795	220.549	6.3313
10.4821	215.463	6.35083
10.4837	229.417	6.37036
10.4858	224.5	6.38989
10.4858	218.517	6.40942
10.48799	228.996	6.42896
10.4887	232.09	6.44849
10.4913	220.828	6.46802
10.4927	232.301	6.48755
10.4951	233.187	6.50708
10.49571	226.742	6.52661
10.498	229.091	6.54614
10.4999	242.792	6.56567
10.5013	233.692	6.58521
10.5032	230.582	6.60474
10.5043	240.6396	6.62427
10.5056	237.599	6.6438
10.5073	233.523	6.66333
10.5089	245.7975	6.68286
10.51058	242.824	6.70239
10.5135	233.26	6.72192
10.5146	245.621	6.74146
10.5153	248.988	6.76099
10.5163	237.462	6.78052
10.519	248.045	6.80005
10.5209	257.499	6.81958
10.5218	241.661	6.83911
10.5236	247.493	6.85864
10.5253	257.97	6.87817
10.5272	249.392	6.89771
10.5285	248.891	6.91724
10.5303	263.255	6.93677
10.5334	250.848	6.9563
10.5344	250.993	6.97583
10.5349	264.216	6.99536
10.5361	262.212	7.01489
10.5384	250.884	7.03442
10.5399	265.505	7.05396
10.5425	265.039	7.07349
10.5435	257.306	7.09302
10.545	263.953	7.11255
10.547	272.233	7.13208
10.5481	264.022	7.15161
10.5493	267.679	7.17114
10.5508	275.468	7.19067
10.5522	267.482	7.21021
10.5549	268.042	7.22974
10.5577	281.054	7.24927
10.5579	274.577	7.2688
10.5594	268.134	7.28833
10.5611	279.317	7.30786
10.56327	280.742	7.32739
10.56383	271.551	7.34692
10.5665	282.713	7.36646
10.5674	287.055	7.38599
10.5689	271.9252	7.40552
10.57092	284.085	7.42505
10.5727	290.462	7.44458
10.5743	279.701	7.46411
10.5763	283.1394	7.48364
10.578	298.373	7.50317
10.5806	282.4	7.52271
10.5804	285.218	7.54224
10.5823	298.315	7.56177
10.5847	292.16	7.5813
10.5851	288.0863	7.60083
10.5864	301.444	7.62036
10.5895	293.922	7.63989
10.5901	290.615	7.65942
10.5916	302.707	7.67896
10.59318	304.98	7.69849
10.59551	291.1741	7.71802
10.5972	301.976	7.73755
10.5984	306.977	7.75708
10.6005	299.163	7.77661
10.6016	301.15	7.79614
10.6023	313.341	7.81567
10.605	301.217	7.83521
10.6069	304.151	7.85474
10.6088	314.641	7.87427
10.6105	308.726	7.8938
10.6122	302.997	7.91333
10.6132	316.601	7.93286
10.6151	317.928	7.95239
10.61736	305.004	7.97192
10.618	317.18	7.99146
10.62	322.815	8.01099
10.6207	313.589	8.03052
10.6226	320.984	8.05005
10.6253	328.47	8.06958
10.626	313.637	8.08911
10.6276	320.763	8.10864
10.6295	331.51	8.12817
10.6301	321.471	8.14771
10.6324	321.191	8.16724
10.6342	336.54	8.18677
10.6362	324.8634	8.2063
10.6374	322.682	8.22583
10.63903	335.01	8.24536
10.6404	334.192	8.26489
10.6437	325.723	8.28442
10.64408	338.819	8.30396
10.6454	336.615	8.32349
10.647	328.852	8.34302
10.6496	336.743	8.36255
10.651	346.243	8.38208
10.6514	332.63	8.40161
10.6535	336.37	8.42114
10.6557	347.069	8.44067
10.657	342.069	8.46021
10.6573	336.937	8.47974
10.6598	352.259	8.49927
10.6616	347.563	8.5188
10.6642	338.635	8.53833
10.66527	353.967	8.55786
10.6671	353.574	8.57739
10.668	341.685	8.59692
10.6705	353.1745	8.61646
10.6713	362.173	8.63599
10.6727	342.364	8.65552
10.67487	353.434	8.67505
10.6757	364.142	8.69458
10.6786	352.481	8.71411
10.6795	354.635	8.73364
10.6809	369.405	8.75317
10.6825	354.155	8.77271
10.6844	354.697	8.79224
10.6865	371.35	8.81177
10.689	364.221	8.8313
10.6894	355.699	8.85083
10.692	374.7066	8.87036
10.6921	369.703	8.88989
10.6939	359.016	8.90942
10.6967	371.656	8.92896
10.6976	379.528	8.94849
10.6996	363.853	8.96802
10.7001	372.226	8.98755
10.7023	379.351	9.00708
10.7043	369.493	9.02661
10.7053	371.295	9.04614
10.7076	387.888	9.06567
10.709	375.409	9.08521
10.7114	370.686	9.10474
10.7111	389.566	9.12427
10.7147	383.694	9.1438
10.71623	372.679	9.16333
10.7168	388.689	9.18286
10.7189	390.978	9.20239
10.7202	374.94	9.22192
10.7219	390.275	9.24146
10.7235	395.971	9.26099
10.7249	382.753	9.28052
10.7266	391.122	9.30005
10.729	404.34	9.31958
10.7309	384.123	9.33911
10.7322	389.719	9.35864
10.7339	404.204	9.37817
10.7348	395.785	9.39771
10.73666	389.512	9.41724
10.7383	406.351	9.43677
10.7401	396.621	9.4563
10.7409	392.4368	9.47583
10.7438	407.55	9.49536
10.74553	407.587	9.51489
10.7475	393.919	9.53442
10.7486	408.435	9.55396
10.7493	413.059	9.57349
10.7517	398.765	9.59302
10.7524	405.3251	9.61255
10.7543	418.266	9.63208
10.7562	404.874	9.65161
10.7579	406.067	9.67114
10.7598	420.492	9.69067
10.7633	410.18	9.71021
10.7617	408.206	9.72974
10.7648	425.179	9.74927
10.7665	419.076	9.7688
10.76813	406.5712	9.78833
10.7699	425.482	9.80786
10.7715	426.029	9.82739
10.7731	412.488	9.84692
10.7739	423.824	9.86646
10.7761	432.732	9.88599
10.7774	413.741	9.90552
10.77969	426.521	9.92505
10.7805	435.426	9.94458
10.7825	421.95	9.96411
10.7845	424.644	9.98364
10.7861	443.251	10.0032
10.7877	425.1554	10.0227
10.7895	426.58	10.0422
10.7911	441.48	10.0618
10.7911	437.094	10.0813
10.7935	427.792	10.10083
10.7955	442.375	10.1204
10.798	441.318	10.1399
10.7995	431.11	10.1594
10.801	443.0585	10.179
10.8028	448.803	10.1985
10.8032	435.112	10.218
10.8054	439.707	10.2375
10.8061	452.742	10.25708
10.8089	439.89	10.2766
10.8104	439.732	10.2961
10.8111	457.916	10.3157
10.814	447.856	10.3352
10.8154	439.497	10.3547
10.8167	458.426	10.3743
10.8183	452.905	10.3938
10.8199	443.775	10.41333
10.8209	461.223	10.4329
10.8238	462.8168	10.4524
10.8253	443.129	10.4719
10.8264	461.605	10.4915
10.8277	466.532	10.511
10.8289	451.442	10.5305
10.8314	460.367	10.55
10.8323	472.995	10.56958
10.835	455.626	10.5891
10.8366	459.691	10.6086
10.8381	472.573	10.6282
10.8402	463.155	10.6477
10.8402	460.6785	10.6672
10.842	478.271	10.6868
10.8445	467.516	10.7063
10.8453	460.708	10.72583
10.848	478.326	10.7454
10.84956	479.839	10.7649
10.8508	464.732	10.7844
10.8525	476.338	10.804
10.8549	481.751	10.8235
10.8559	470.7597	10.843
10.8566	476.489	10.8625
10.8587	488.715	10.88208
10.8602	475.862	10.9016
10.8621	475.102	10.9211
10.86267	492.214	10.9407
10.8651	480.013	10.9602
10.8669	475.9855	10.9797
10.8691	494.574	10.9993
10.8704	491.463	11.0188
10.87342	476.188	11.03833
10.87328	494.621	11.0579
10.87517	494.87	11.0774
10.8763	482.635	11.0969
10.8784	495.215	11.1165
10.8799	503.801	11.136
10.8824	481.514	11.1555
10.88306	495.721	11.175
10.8857	505.456	11.19458
10.8867	490.753	11.2141
10.8882	492.8	11.2336
10.889	510.759	11.2532
10.8915	495.874	11.2727
10.8936	496.395	11.2922
10.8947	511.671	11.3118
10.8956	505.36	11.3313
10.8976	495.508	11.35083
10.8989	514.126	11.3704
10.9017	510.655	11.3899
10.9028	496.425	11.4094
10.905	511.77	11.429
10.9065	519.141	11.4485
10.9076	504.642	11.468
10.9095	507.576	11.4875
10.9115	521.559	11.50708
10.9125	507.001	11.5266
10.9142	511.186	11.5461
10.9162	527.182	11.5657
10.9174	517.883	11.5852
10.9195	506.632	11.6047
10.9215	529.596	11.6243
10.9224	523.256	11.6438
10.9238	510.731	11.66333
10.9257	529.766	11.6829
10.9279	532.902	11.7024
10.9287	512.872	11.7219
10.9302	529.509	11.7415
10.9319	534.179	11.761
10.9342	520.896	11.7805
10.9362	529.174	11.8
10.9363	541.8006	11.81958
10.93903	521.1225	11.8391
10.9405	530.198	11.8586
10.9407	544.182	11.8782
10.94511	534.012	11.8977
10.945	527.4353	11.9172
10.9472	545.8938	11.9368
10.9477	537.763	11.9563
10.9498	529.892	11.97583
10.9518	544.712	11.9954
10.9547	545.111	12.0149
10.9542	532.203	12.0344
10.9561	545.078	12.054
10.9589	550.808	12.0735
10.9595	534.951	12.093
10.9617	544.693	12.1125
10.9631	557.58	12.13208
10.96499	544.106	12.1516
10.9669	540.916	12.1711
10.9683	559.853	12.1907
10.9687	546.958	12.2102
10.9705	545.355	12.2297
10.9733	561.8587	12.2493
10.9749	556.966	12.2688
10.976	542.281	12.28833
10.9766	564.178	12.3079
10.9783	561.84	12.3274
10.9802	547.855	12.3469
10.9834	561.293	12.3665
10.9844	570.985	12.386
10.986	550.794	12.4055
10.9874	562.839	12.425
10.989	573.431	12.44458
10.991	559.947	12.4641
10.9931	561.427	12.4836
10.9941	578.0304	12.5032
10.9954	561.296	12.5227
10.9967	561.357	12.5422
10.9987	579.797	12.5618
11.0003	572.772	12.5813
11.0022	562.711	12.60083
11.0036	577.589	12.6204
11.0053	577.445	12.6399
11.0073	566.414	12.6594
11.0087	577.459	12.679
11.01052	583.342	12.6985
11.0113	570.5625	12.718
11.0141	576.144	12.7375
11.0159	589.721	12.75708
11.0169	574.0058	12.7766
11.0169	576.622	12.7961
11.0196	595.115	12.8157
11.0214	584.246	12.8352
11.0228	573.846	12.8547
11.0253	594.539	12.8743
11.0277	589.045	12.8938
11.0285	579.017	12.91333
11.031	595.492	12.9329
11.0316	596.701	12.9524
11.033	577.695	12.9719
11.0341	595.908	12.9915
11.0365	601.092	13.011
11.0384	585.705	13.0305
11.0399	594.7254	13.05
11.0414	607.799	13.06958
11.04355	589.6886	13.0891
11.0448	594.235	13.1086
11.046	607.948	13.1282
11.04851	597.457	13.1477
11.0484	594.916	13.1672
11.0514	609.976	13.1868
11.0523	602.519	13.2063
11.0546	593.2843	13.22583
11.0559	611.704	13.2454
11.05836	611.972	13.2649
11.05914	597.496	13.2844
11.0606	610.086	13.304
11.0624	618.948	13.3235
11.0643	602.171	13.343
11.0658	610.392	13.3625
11.06711	620.571	13.38208
11.0698	609.1181	13.4016
11.071	606.701	13.4211
11.0717	626.058	13.4407
11.0737	613.543	13.4602
11.0756	609.67	13.4797
11.0775	628.366	13.4993
11.0787	624.244	13.5188
11.0802	606.038	13.53833
11.0815	627.898	13.5579
11.0858	627.62	13.5774
11.0846	614.372	13.5969
11.0865	627.458	13.6165
11.0886	633.145	13.636
11.0905	615.229	13.6555
11.092	629.339	13.675
11.093	638.306	13.69458
11.0956	623.752	13.7141
11.0967	624.183	13.7336
11.0991	641.915	13.7532
11.0995	628.719	13.7727
11.1013	625.325	13.7922
11.1026	642.896	13.8118
11.1048	637.0141	13.8313
11.1059	629.375	13.85083
11.1077	643.352	13.8704
11.1095	642.917	13.8899
11.11122	630.536	13.9094
11.113	645.137	13.929
11.1145	649.9704	13.9485
11.1154	635.218	13.968
11.1174	640.071	13.9875
11.1198	658.099	14.00708
11.1214	639.428	14.0266
11.1225	641.635	14.0461
11.1241	658.642	14.0657
11.126	647.93	14.0852
11.1273	638.686	14.1047
11.129	661.057	14.1243
11.1306	653.229	14.1438
11.1328	643.216	14.16333
11.1346	662.492	14.1829
11.1354	662.3678	14.2024
11.13752	643.962	14.2219
11.13861	658.892	14.2415
11.1401	666.8515	14.261
11.142	650.494	14.2805
11.1436	659.8847	14.3
11.1456	671.1012	14.31958
11.1473	652.742	14.3391
11.1485	657.665	14.3586
11.15037	673.857	14.3782
11.1529	661.4527	14.3977
11.1532	658.9856	14.4172
11.1556	674.4837	14.4368
11.1559	668.069	14.4563
11.1591	657.581	14.47583
11.1603	675.195	14.4954
11.1603	676.235	14.5149
11.1637	664.253	14.5344
11.1648	673.54	14.554
11.1667	683.728	14.5735
11.1684	664.485	14.593
11.1714	675.747	14.6125
11.1714	689.156	14.63208
11.17216	672.934	14.6516
11.1739	670.717	14.6711
11.1766	691.182	14.6907
11.1781	678.214	14.7102
11.1789	673.517	14.7297
11.1819	689.555	14.7493
11.182	686.19	14.7688
11.1848	673.49	14.78833
11.1856	692.942	14.8079
11.1872	691.761	14.8274
11.1888	676.4812	14.8469
11.1916	691.452	14.8665
11.1922	700.371	14.886
11.19415	679.786	14.9055
11.1958	690.626	14.925
11.1974	702.784	14.94458
11.1995	686.757	14.9641
11.2004	689.476	14.9836
11.2021	703.9	15.0032
11.2046	692.933	15.0227
11.2052	689.372	15.0422
11.20707	707.461	15.0618
11.209	700.249	15.0813
11.21	691.363	15.10083
11.2125	706.207	15.1204
11.2134	710.713	15.1399
11.21517	691.508	15.1594
11.2167	705.8559	15.179
11.2183	715.2135	15.1985
11.2203	700.5144	15.218
11.2213	703.397	15.2375
11.2238	721.592	15.25708
11.22473	702.516	15.2766
11.2269	705.24	15.2961
11.2275	723.451	15.3157
11.2301	710.112	15.3352
11.2311	700.639	15.3547
11.2335	723.361	15.3743
11.23382	716.249	15.3938
11.236	706.367	15.41333
11.2382	723.323	15.4329
11.2397	722.815	15.4524
11.2408	706.795	15.4719
11.2426	723.474	15.4915
11.2452	728.6	15.511
11.2464	711.347	15.5305
11.24806	721.682	15.55
11.2494	733.888	15.56958
11.2518	717.491	15.5891
11.2523	718.398	15.6086
11.2549	737.685	15.6282
11.2563	726.002	15.6477
11.25854	721.148	15.6672
11.2593	735.503	15.6868
11.2612	732.112	15.7063
11.2631	720.037	15.72583
11.2641	739.379	15.7454
11.2656	739.6806	15.7649
11.2684	722.533	15.7844
11.2692	733.087	15.804
11.2703	746.542	15.8235
11.2724	726.572	15.843
11.2731	735.442	15.8625
11.2759	749.3092	15.88208
11.2774	735.179	15.9016
11.2796	731.308	15.9211
11.2801	752.399	15.9407
11.2811	739.197	15.9602
11.2836	734.714	15.9797
11.2857	754.247	15.9993
11.2859	748.5274	16.0188
11.2884	732.753	16.03833
11.29058	753.887	16.0579
11.2918	754.801	16.0774
11.2944	740.218	16.0969
11.2946	752.387	16.1165
11.2967	760.204	16.136
11.2985	742.004	16.1555
11.30063	750.727	16.175
11.3014	764.873	16.19458
11.3036	748.641	16.2141
11.3048	752.251	16.2336
11.3056	767.358	16.2532
11.3074	755.7572	16.2727
11.31	748.186	16.2922
11.3113	769.704	16.3118
11.3125	764.016	16.3313
11.315	753.427	16.35083
11.317	765.278	16.3704
11.3176	769.85	16.3899
11.3198	753.252	16.4094
11.3209	769.125	16.429
11.3219	775.417	16.4485
11.3251	759.3847	16.468
11.3267	762.698	16.4875
11.3277	780.4715	16.50708
11.3289	763.769	16.5266
11.3305	764.018	16.5461
11.3323	781.368	16.5657
11.3337	772.2912	16.5852
11.3351	762.929	16.6047
11.338	783.5918	16.6243
11.3392	775.761	16.6438
11.3409	765.607	16.66333
11.3425	782.589	16.6829
11.34438	783.99	16.7024
11.3455	766.593	16.7219
11.3474	781.925	16.7415
11.3483	789.547	16.761
11.3498	772.94	16.7805
11.3518	781.716	16.8
11.3539	790.906	16.81958
11.3553	777.604	16.8391
11.3583	779.692	16.8586
11.3575	797.247	16.8782
11.3595	783.9704	16.8977
11.3628	781.176	16.9172
11.3634	794.956	16.9368
11.3645	794.612	16.9563
11.366	779.21	16.97583
11.368	797.924	16.9954
11.3697	798.997	17.0149
11.3718	785.929	17.0344
11.3745	793.784	17.054
11.3739	806.371	17.0735
11.3764	786.914	17.093
11.3776	798.059	17.1125
11.3798	807.98	17.13208
11.3803	794.3985	17.1516
11.3825	790.152	17.1711
11.385	813.553	17.1907
11.3858	799.692	17.2102
11.3881	792.422	17.2297
11.38883	813.822	17.2493
11.3924	808.044	17.2688
11.3922	794.2442	17.28833
11.3936	813.628	17.3079
11.3962	812.154	17.3274
11.3982	798.031	17.3469
11.39925	812.53	17.3665
11.4007	816.352	17.386
11.4017	800.999	17.4055
11.4041	808.746	17.425
11.4049	822.538	17.44458
11.4073	808.398	17.4641
11.4086	810.284	17.4836
11.4098	824.065	17.5032
11.41221	815.413	17.5227
11.4137	808.501	17.5422
11.4165	828.155	17.5618
11.4172	819.568	17.5813
11.41941	810.506	17.60083
11.4201	824.234	17.6204
11.4227	829.893	17.6399
11.4237	810.172	17.6594
11.425	825.515	17.679
11.4266	833.5401	17.6985
11.4294	819.04	17.718
11.42994	819.49	17.7375
11.4311	837.528	17.75708
11.4335	821.194	17.7766
11.4353	824.477	17.7961
11.4366	840.64	17.8157
11.4379	828.6441	17.8352
11.4401	821.312	17.8547
11.4416	842.525	17.8743
11.44384	835.212	17.8938
11.4442	823.026	17.91333
11.4458	840.032	17.9329
11.44727	841.936	17.9524
11.4497	826.202	17.9719
11.452	839.0755	17.9915
11.4535	846.2981	18.011
11.4547	829.333	18.0305
11.4565	840.243	18.05
11.458	847.969	18.06958
11.4596	835.111	18.0891
11.4618	834.764	18.1086
11.4632	854.961	18.1282
11.4642	843.298	18.1477
11.466	837.128	18.1672
11.4666	850.617	18.1868
11.4694	850.198	18.2063
11.4707	837.855	18.22583
11.4732	853.689	18.2454
11.4738	853.421	18.2649
11.4765	841.121	18.2844
11.4766	851.096	18.304
11.4794	861.819	18.3235
11.48	843.3222	18.343
11.48241	851.186	18.3625
11.4838	864.9375	18.38208
11.4862	850.753	18.4016
11.4866	847.699	18.4211
11.4888	866.92	18.4407
11.4904	855.53	18.4602
11.4926	851.05	18.4797
11.4942	869.036	18.4993
11.4959	859.344	18.5188
11.497	848.57	18.53833
11.4986	869.011	18.5579
11.5011	867.72	18.5774
11.501	852.048	18.5969
11.5035	868.425	18.6165
11.5057	872.082	18.636
11.5067	858.48	18.6555
11.508	863.0661	18.675
11.5097	877.33	18.69458
11.5113	862.8	18.7141
11.5117	866.534	18.7336
11.5154	877.791	18.7532
11.5167	868.2113	18.7727
11.5185	861.55	18.7922
11.5191	882.02	18.8118
11.5214	878.1687	18.8313
11.524	866.676	18.85083
11.5233	876.714	18.8704
11.5253	883.975	18.8899
11.52814	867.136	18.9094
11.5297	880.977	18.929
11.5309	885.313	18.9485
11.5328	870.883	18.968
11.53436	876.052	18.9875
11.53732	892.183	19.00708
11.5384	875.046	19.0266
11.5398	875.553	19.0461
11.5409	893.535	19.0657
11.543	882.108	19.0852
11.5442	874.248	19.1047
11.5458	891.507	19.1243
11.5476	887.176	19.1438
11.5498	878.3938	19.16333
11.5505	894.84	19.1829
11.552	892.3479	19.2024
11.5532	878.622	19.2219
11.5559	891.12	19.2415
11.5578	899.522	19.261
11.5588	883.814	19.2805
11.5607	892.862	19.3
11.562	899.991	19.31958
11.564	890.446	19.3391
11.5651	890.393	19.3586
11.568	906.123	19.3782
11.5684	894.3598	19.3977
11.5695	891.581	19.4172
11.571	904.375	19.4368
11.5728	901.549	19.4563
11.5747	888.3548	19.47583
11.5771	908.347	19.4954
11.5784	908.8609	19.5149
11.5792	893.437	19.5344
11.5811	901.6991	19.554
11.5833	914.116	19.5735
11.585	896.3988	19.593
11.5859	904.863	19.6125
11.5869	915.023	19.63208
11.5903	898.656	19.6516
11.5916	902.078	19.6711
11.59291	920.294	19.6907
11.5941	907.1189	19.7102
11.5965	900.919	19.7297
11.5976	919.57	19.7493
11.59973	912.448	19.7688
11.60092	901.815	19.78833
11.6033	917.926	19.8079
11.6047	919.585	19.8274
11.6056	906.548	19.8469
11.6082	919.202	19.8665
11.6101	920.057	19.886
11.6117	908.952	19.9055
11.6121	916.7359	19.925
11.61517	929.483	19.94458
11.6165	913.606	19.9641
11.61654	914.906	19.9836
11.6186	926.35	20.0032
11.6203	927.6449	20.0129

Data Header:			0.254_solid_dimension_typei_4545_r0			Time:	40.0176	s	4/14/2019 4:52:39 AM
Data Acquisition:	Timed
Station Name:	ft40.cfg
Test File Name:	monotonic_0.2540_typei_solid_4545_dimension.tst
Displacement	Force	Running Time
mm	N	s
11.6211	920.981	20.0227
11.6228	913.8963	20.0422
11.6244	931.068	20.0618
11.62614	925.499	20.0813
11.6265	914.799	20.10083
11.6283	929.575	20.1204
11.6306	932.607	20.1399
11.6323	915.98	20.1594
11.6334	931.75	20.179
11.6353	937.633	20.1985
11.6374	921.691	20.218
11.639	926.495	20.2375
11.6402	941.197	20.25708
11.6421	926.594	20.2766
11.64379	927.466	20.2961
11.6447	945.425	20.3157
11.64662	929.5191	20.3352
11.6469	925.161	20.3547
11.6499	945.255	20.3743
11.6518	937.339	20.3938
11.6537	925.026	20.41333
11.6551	944.8526	20.4329
11.6564	941.981	20.4524
11.6581	929.598	20.4719
11.6602	941.153	20.4915
11.662	950.12	20.511
11.6632	932.856	20.5305
11.6652	943.326	20.55
11.6657	947.971	20.56958
11.668	938.543	20.5891
11.6696	937.819	20.6086
11.6713	956.0921	20.6282
11.6735	943.679	20.6477
11.6744	938.685	20.6672
11.67512	952.015	20.6868
11.678	950.577	20.7063
11.6792	939.253	20.72583
11.6809	955.42	20.7454
11.68368	954.233	20.7649
11.6839	940.566	20.7844
11.6866	951.487	20.804
11.6871	959.8678	20.8235
11.6898	944.2973	20.843
11.6903	953.536	20.8625
11.6924	965.8407	20.88208
11.6938	947.744	20.9016
11.6955	949.184	20.9211
11.69726	966.161	20.9407
11.6994	953.239	20.9602
11.7006	948.075	20.9797
11.7033	966.709	20.9993
11.70433	958.138	21.0188
11.7048	950.122	21.03833
11.7067	967.286	21.0579
11.7095	967	21.0774
11.7098	950.973	21.0969
11.7114	966.58	21.1165
11.7133	969.053	21.136
11.7152	957.883	21.1555
11.7166	961.742	21.175
11.7182	975.161	21.19458
11.7198	961.331	21.2141
11.7219	964.6106	21.2336
11.7228	975.14	21.2532
11.7252	965.7644	21.2727
11.7261	961.98	21.2922
11.7283	978.6228	21.3118
11.7303	973.142	21.3313
11.73134	962.482	21.35083
11.733	974.3739	21.3704
11.7345	978.9386	21.3899
11.7362	964.372	21.4094
11.7376	975.828	21.429
11.7402	982.273	21.4485
11.7418	965.703	21.468
11.7419	973.3056	21.4875
11.7441	986.714	21.50708
11.7453	971.107	21.5266
11.7471	972.664	21.5461
11.7504	989.886	21.5657
11.7511	975.42	21.5852
11.7532	972.4682	21.6047
11.7553	989.3114	21.6243
11.75614	983.431	21.6438
11.7586	973.142	21.66333
11.75837	988.13	21.6829
11.7608	983.9234	21.7024
11.7628	975.495	21.7219
11.7635	986.196	21.7415
11.76538	994.471	21.761
11.7674	977.803	21.7805
11.7693	986.982	21.8
11.7702	993.0423	21.81958
11.7718	984.826	21.8391
11.7738	984.502	21.8586
11.776	998.078	21.8782
11.7778	986.983	21.8977
11.7787	983.942	21.9172
11.7813	996.674	21.9368
11.7819	993.206	21.9563
11.7835	982.462	21.97583
11.7852	998.9563	21.9954
11.7862	1000.24	22.0149
11.7886	983.961	22.0344
11.79	994.0589	22.054
11.791	1003.9	22.0735
11.7926	987.728	22.093
11.79444	992.8457	22.1125
11.7963	1005.85	22.13208
11.7985	990.522	22.1516
11.8002	994.254	22.1711
11.8015	1008.45	22.1907
11.80304	997.015	22.2102
11.805	992.572	22.2297
11.8068	1011.28	22.2493
11.80736	1001.64	22.2688
11.8096	994.399	22.28833
11.8117	1008.92	22.3079
11.81305	1009.39	22.3274
11.8139	995.68	22.3469
11.8156	1009.38	22.3665
11.8177	1009.16	22.386
11.8192	998.966	22.4055
11.8213	1006.2	22.425
11.8223	1017.35	22.44458
11.8244	1001.7	22.4641
11.8257	1004.36	22.4836
11.828	1015.45	22.5032
11.82922	1008.49	22.5227
11.8303	1001.71	22.5422
11.8327	1018.17	22.5618
11.835	1011.91	22.5813
11.8354	1003.14	22.60083
11.8375	1017.05	22.6204
11.8384	1016.65	22.6399
11.841	1003.51	22.6594
11.8418	1017.989	22.679
11.8437	1023.51	22.6985
11.8454	1006.44	22.718
11.8464	1014.68	22.7375
11.8492	1026.26	22.75708
11.8507	1013.16	22.7766
11.8525	1012.59	22.7961
11.8534	1029.41	22.8157
11.8542	1014.19	22.8352
11.8565	1015.07	22.8547
11.8587	1029.9	22.8743
11.8603	1021.56	22.8938
11.8611	1012.812	22.91333
11.8646	1030.08	22.9329
11.8665	1024.13	22.9524
11.8667	1015.11	22.9719
11.8679	1024.86	22.9915
11.8691	1031.678	23.011
11.87162	1017.35	23.0305
11.8726	1025.06	23.05
11.8746	1030.99	23.06958
11.8772	1021.36	23.0891
11.8778	1022.18	23.1086
11.879	1038.1	23.1282
11.8816	1025.25	23.1477
11.8826	1022.44	23.1672
11.8851	1034.858	23.1868
11.8854	1031.68	23.2063
11.8877	1021.68	23.22583
11.8895	1036.36	23.2454
11.8911	1037.51	23.2649
11.8934	1022.68	23.2844
11.89525	1034.2	23.304
11.8965	1039.11	23.3235
11.898	1024.58	23.343
11.89995	1033.07	23.3625
11.9015	1045.98	23.38208
11.9016	1026.858	23.4016
11.9037	1030.89	23.4211
11.905	1045.45	23.4407
11.9066	1035.18	23.4602
11.9088	1032.06	23.4797
11.9103	1045.59	23.4993
11.9126	1036.25	23.5188
11.91269	1031.58	23.53833
11.916	1045.33	23.5579
11.9173	1043.63	23.5774
11.9182	1031.79	23.5969
11.9202	1045.79	23.6165
11.9214	1046.42	23.636
11.9227	1034.18	23.6555
11.9248	1040.95	23.675
11.9263	1051.738	23.69458
11.9287	1037.99	23.7141
11.9302	1040.23	23.7336
11.9314	1050.35	23.7532
11.9337	1042.299	23.7727
11.9354	1038.4	23.7922
11.9373	1055.34	23.8118
11.9386	1047.25	23.8313
11.9403	1036.985	23.85083
11.9407	1051.13	23.8704
11.9432	1052.41	23.8899
11.9446	1039.81	23.9094
11.9462	1050.5	23.929
11.948	1057.34	23.9485
11.9492	1039.99	23.968
11.9513	1048.9	23.9875
11.9537	1057.47	24.00708
11.95445	1045.24	24.0266
11.9572	1046.48	24.0461
11.9573	1063.77	24.0657
11.9587	1046.13	24.0852
11.96105	1045.72	24.1047
11.9628	1060.06	24.1243
11.9641	1056.65	24.1438
11.96594	1046.29	24.16333
11.9673	1060.54	24.1829
11.9699	1056.15	24.2024
11.9703	1047.62	24.2219
11.9719	1058.26	24.2415
11.9742	1061.21	24.261
11.97485	1047.59	24.2805
11.9777	1056.865	24.3
11.9794	1063.89	24.31958
11.9797	1053.61	24.3391
11.9822	1052.52	24.3586
11.9842	1067.11	24.3782
11.9851	1056.845	24.3977
11.987	1052.33	24.4172
11.9878	1065.11	24.4368
11.9899	1060.52	24.4563
11.9923	1052.928	24.47583
11.9937	1066.3	24.4954
11.9953	1067.454	24.5149
11.997	1051.48	24.5344
11.9981	1064.08	24.554
12.0001	1069.78	24.5735
12.0022	1055.48	24.593
12.0028	1061.51	24.6125
12.0055	1074.52	24.63208
12.0064	1055.917	24.6516
12.0083	1062.44	24.6711
12.0091	1072.56	24.6907
12.0112	1062.91	24.7102
12.0135	1060.21	24.7297
12.0154	1077.62	24.7493
12.0151	1064.6	24.7688
12.0175	1059.502	24.78833
12.02011	1073.63	24.8079
12.0217	1073.68	24.8274
12.0227	1061.32	24.8469
12.0244	1072.32	24.8665
12.0256	1072.45	24.886
12.0278	1063.93	24.9055
12.0283	1069.46	24.925
12.0298	1079.546	24.94458
12.0322	1063.94	24.9641
12.0337	1068.67	24.9836
12.0348	1080.605	25.0032
12.0378	1068.66	25.0227
12.0387	1065.69	25.0422
12.0415	1078.77	25.0618
12.04215	1075.45	25.0813
12.0445	1062.22	25.10083
12.0462	1079.66	25.1204
12.0471	1076.48	25.1399
12.0484	1065.478	25.1594
12.0509	1078.8	25.179
12.0512	1082.13	25.1985
12.0526	1063.83	25.218
12.0558	1074.81	25.2375
12.05737	1083.995	25.25708
12.0589	1070.53	25.2766
12.0594	1070.88	25.2961
12.0622	1086.369	25.3157
12.063	1072.54	25.3352
12.0646	1073.82	25.3547
12.0663	1084.6	25.3743
12.0679	1079.41	25.3938
12.0705	1070.95	25.41333
12.0712	1087.5	25.4329
12.0739	1080.797	25.4524
12.075	1072.57	25.4719
12.077	1082.74	25.4915
12.0778	1087.671	25.511
12.0806	1073.45	25.5305
12.0808	1081.94	25.55
12.0827	1086.41	25.56958
12.0848	1078.299	25.5891
12.0861	1078.57	25.6086
12.0875	1089.91	25.6282
12.0888	1079.751	25.6477
12.0906	1076.5	25.6672
12.0918	1091.23	25.6868
12.0941	1083.52	25.7063
12.0955	1073.83	25.72583
12.09828	1089.77	25.7454
12.10041	1090.57	25.7649
12.1015	1074.31	25.7844
12.1025	1089.23	25.804
12.1041	1091.39	25.8235
12.1055	1077.41	25.843
12.1075	1088.29	25.8625
12.1087	1095.89	25.88208
12.1107	1076.51	25.9016
12.1134	1084.32	25.9211
12.1126	1096.184	25.9407
12.1145	1084.75	25.9602
12.1163	1080.57	25.9797
12.1183	1097.11	25.9993
12.12073	1084.56	26.0188
12.121	1083.83	26.03833
12.1243	1096.65	26.0579
12.1252	1092.12	26.0774
12.1268	1079.41	26.0969
12.1276	1094.09	26.1165
12.1297	1094.12	26.136
12.131	1082.07	26.1555
12.13275	1088.89	26.175
12.1353	1098.601	26.19458
12.1374	1086.7	26.2141
12.1376	1086.02	26.2336
12.1392	1097.73	26.2532
12.1412	1089.36	26.2727
12.143	1086.02	26.2922
12.1439	1100.26	26.3118
12.1455	1092.72	26.3313
12.1491	1083.496	26.35083
12.1499	1100.58	26.3704
12.1517	1097.583	26.3899
12.1532	1084.7	26.4094
12.1551	1096.38	26.429
12.1566	1101.73	26.4485
12.1588	1083.15	26.468
12.1592	1093.73	26.4875
12.1607	1102.13	26.50708
12.1632	1089.64	26.5266
12.1638	1091.8	26.5461
12.1651	1105.64	26.5657
12.1675	1087.33	26.5852
12.1689	1090.03	26.6047
12.1702	1104.62	26.6243
12.1726	1098.15	26.6438
12.1734	1087.07	26.66333
12.1759	1103.91	26.6829
12.1768	1098.68	26.7024
12.1786	1090.15	26.7219
12.1802	1099.94	26.7415
12.1819	1104.34	26.761
12.1832	1088.76	26.7805
12.1857	1098.1	26.8
12.1865	1105.36	26.81958
12.189	1092.43	26.8391
12.191	1094.17	26.8586
12.1924	1108.03	26.8782
12.19361	1096.82	26.8977
12.1942	1091.67	26.9172
12.1967	1106.54	26.9368
12.1984	1099.86	26.9563
12.2002	1092.22	26.97583
12.202	1106.73	26.9954
12.20429	1106.9	27.0149
12.2053	1089.14	27.0344
12.2072	1105.58	27.054
12.2078	1107.03	27.0735
12.2087	1092.59	27.093
12.2116	1101.22	27.1125
12.21333	1110.57	27.13208
12.2133	1092.95	27.1516
12.216	1098.44	27.1711
12.2175	1108.613	27.1907
12.2191	1101.05	27.2102
12.2215	1096.03	27.2297
12.223	1113.69	27.2493
12.2256	1098.71	27.2688
12.22585	1095.46	27.28833
12.2279	1107.83	27.3079
12.2282	1108.82	27.3274
12.2309	1095.15	27.3469
12.23278	1106.09	27.3665
12.2343	1107.958	27.386
12.2361	1096.28	27.4055
12.2372	1102.64	27.425
12.2391	1110.54	27.44458
12.23989	1098.48	27.4641
12.2429	1099.896	27.4836
12.2436	1112.68	27.5032
12.24643	1101.27	27.5227
12.2467	1096.98	27.5422
12.2492	1112.51	27.5618
12.2507	1107.1	27.5813
12.25172	1093.33	27.60083
12.2548	1110.6	27.6204
12.2554	1108.7	27.6399
12.2573	1097.37	27.6594
12.2587	1110.3	27.679
12.2608	1113.29	27.6985
12.2615	1094.49	27.718
12.2637	1107.77	27.7375
12.2657	1116.22	27.75708
12.2665	1099.62	27.7766
12.2687	1101.874	27.7961
12.27017	1117.44	27.8157
12.2719	1100.36	27.8352
12.2736	1101.64	27.8547
12.2758	1114.48	27.8743
12.2761	1107.46	27.8938
12.27888	1100.52	27.91333
12.2799	1115.22	27.9329
12.28195	1109.25	27.9524
12.2828	1097.811	27.9719
12.2851	1110.601	27.9915
12.2863	1115.36	28.011
12.288	1099.84	28.0305
12.2894	1107.39	28.05
12.2917	1114.22	28.06958
12.293	1103.403	28.0891
12.2944	1104.2	28.1086
12.2956	1116.86	28.1282
12.2978	1107.05	28.1477
12.2994	1101.44	28.1672
12.3025	1117.05	28.1868
12.303	1109.37	28.2063
12.3044	1098.6	28.22583
12.3056	1114.1	28.2454
12.308	1115.45	28.2649
12.3088	1099.67	28.2844
12.3109	1111.79	28.304
12.3125	1115.09	28.3235
12.3141	1102.066	28.343
12.3152	1109.28	28.3625
12.318	1119.72	28.38208
12.3189	1100.49	28.4016
12.3198	1106.54	28.4211
12.3218	1118.293	28.4407
12.3242	1107.75	28.4602
12.32485	1101.8	28.4797
12.3277	1119.88	28.4993
12.3285	1108.04	28.5188
12.3313	1104.24	28.53833
12.3319	1115.02	28.5579
12.3336	1114.39	28.5774
12.3359	1103.05	28.5969
12.337	1115.22	28.6165
12.3384	1115.12	28.636
12.3407	1103.2	28.6555
12.342	1110.3	28.675
12.3437	1119.27	28.69458
12.3452	1104.5	28.7141
12.3465	1105.35	28.7336
12.34768	1118.691	28.7532
12.3505	1108.21	28.7727
12.3513	1104.69	28.7922
12.3518	1118.38	28.8118
12.3549	1111.26	28.8313
12.3567	1101.61	28.85083
12.3568	1118.22	28.8704
12.36	1114.96	28.8899
12.3603	1101.96	28.9094
12.3627	1112.95	28.929
12.364	1120.47	28.9485
12.3649	1100.57	28.968
12.367	1113.11	28.9875
12.3693	1118.37	29.00708
12.371	1106.61	29.0266
12.3727	1107.64	29.0461
12.37486	1123.13	29.0657
12.3759	1105.37	29.0852
12.3773	1106.33	29.1047
12.3793	1120.54	29.1243
12.3809	1114.17	29.1438
12.3827	1105.17	29.16333
12.3836	1118.53	29.1829
12.3859	1114.86	29.2024
12.3877	1104.65	29.2219
12.3893	1115.3	29.2415
12.39095	1119.82	29.261
12.3926	1105.17	29.2805
12.3933	1113.95	29.3
12.3942	1120.62	29.31958
12.397	1104.86	29.3391
12.399	1109.49	29.3586
12.4004	1122.3	29.3782
12.4017	1111.26	29.3977
12.4032	1104.337	29.4172
12.4053	1120.807	29.4368
12.4071	1113.68	29.4563
12.4082	1106.226	29.47583
12.4105	1118.33	29.4954
12.4112	1118.46	29.5149
12.4129	1100.68	29.5344
12.4152	1119.56	29.554
12.417	1119.61	29.5735
12.4182	1103.994	29.593
12.4205	1111.92	29.6125
12.4219	1123.87	29.63208
12.4222	1104.36	29.6516
12.4245	1110.26	29.6711
12.427	1121.88	29.6907
12.4279	1111.06	29.7102
12.4303	1108.02	29.7297
12.431	1122.81	29.7493
12.4332	1109.68	29.7688
12.43412	1105.5	29.78833
12.4362	1119.19	29.8079
12.438	1118.813	29.8274
12.4408	1104.23	29.8469
12.4412	1116.07	29.8665
12.4434	1117.88	29.886
12.44476	1107.59	29.9055
12.4455	1112.861	29.925
12.44731	1121.27	29.94458
12.45	1107.74	29.9641
12.4512	1108.16	29.9836
12.4524	1123.38	30.0032
12.4545	1109.1	30.0227
12.4567	1107.064	30.0422
12.4578	1123.23	30.0618
12.45876	1117.61	30.0813
12.4605	1101.09	30.10083
12.4614	1119.73	30.1204
12.4639	1116.51	30.1399
12.465	1107.47	30.1594
12.46713	1118.4	30.179
12.4687	1123.6	30.1985
12.4708	1103.73	30.218
12.4719	1115.8	30.2375
12.4729	1121.97	30.25708
12.4748	1107.84	30.2766
12.4764	1110.41	30.2961
12.479	1125.06	30.3157
12.48	1107.85	30.3352
12.4816	1108.86	30.3547
12.483	1120.94	30.3743
12.4859	1114.99	30.3938
12.4863	1106.59	30.41333
12.4891	1121.36	30.4329
12.4906	1115.68	30.4524
12.4908	1106.597	30.4719
12.4937	1116.89	30.4915
12.4946	1121.95	30.511
12.4968	1107.36	30.5305
12.4984	1113.13	30.55
12.4991	1122.44	30.56958
12.5015	1108.964	30.5891
12.5029	1108.88	30.6086
12.5046	1122.13	30.6282
12.5063	1111.78	30.6477
12.5084	1105.75	30.6672
12.50895	1122.415	30.6868
12.5111	1113.75	30.7063
12.5133	1107.67	30.72583
12.5146	1120.53	30.7454
12.5162	1121.57	30.7649
12.5181	1102.4	30.7844
12.5181	1119.84	30.804
12.5211	1120.96	30.8235
12.5227	1107.31	30.843
12.525	1114.82	30.8625
12.5252	1123.92	30.88208
12.5275	1104.36	30.9016
12.529	1112.65	30.9211
12.5313	1125.2	30.9407
12.532	1112.13	30.9602
12.5337	1107.2	30.9797
12.5356	1123.24	30.9993
12.5374	1113.761	31.0188
12.5378	1105.741	31.03833
12.5406	1118.63	31.0579
12.5417	1118.41	31.0774
12.5436	1107.37	31.0969
12.5447	1119.05	31.1165
12.5472	1120.36	31.136
12.5486	1104.8	31.1555
12.5498	1115.21	31.175
12.5508	1122.58	31.19458
12.5537	1108.9	31.2141
12.5555	1107.4	31.2336
12.557	1123.63	31.2532
12.5588	1111.88	31.2727
12.5598	1107.81	31.2922
12.562	1121.13	31.3118
12.5627	1117.079	31.3313
12.5647	1103.38	31.35083
12.5655	1122.56	31.3704
12.5686	1117.7	31.3899
12.5693	1104.52	31.4094
12.5705	1118.59	31.429
12.5728	1123.36	31.4485
12.57446	1102.83	31.468
12.5757	1113.59	31.4875
12.5785	1122.96	31.50708
12.5792	1108.38	31.5266
12.5812	1111.43	31.5461
12.582	1123.28	31.5657
12.5848	1107.73	31.5852
12.5866	1109.99	31.6047
12.5875	1123.64	31.6243
12.5886	1114.8	31.6438
12.5899	1105.48	31.66333
12.5922	1120.3	31.6829
12.5937	1117	31.7024
12.5948	1105.15	31.7219
12.5983	1117.12	31.7415
12.5991	1120.521	31.761
12.60035	1107.61	31.7805
12.6022	1112.132	31.8
12.6038	1122.17	31.81958
12.6051	1106.91	31.8391
12.6069	1110.94	31.8586
12.6083	1123.14	31.8782
12.6096	1111.13	31.8977
12.612	1104.77	31.9172
12.613	1122.8	31.9368
12.6155	1113.85	31.9563
12.6173	1105.45	31.97583
12.6184	1120.06	31.9954
12.6206	1119.35	32.0149
[...]
15.3233	1098.69	64.4465
15.32359	1088.59	64.4563
15.3244	1076.05	64.4661
15.3248	1073.51	64.47583
15.3269	1079.95	64.4856
15.3273	1091.04	64.4954
15.3276	1097.5	64.5051
15.3292	1091.91	64.5149
15.3301	1084.15	64.5247
15.3321	1072.92	64.5344
15.3314	1075.02	64.5442
15.3323	1085.77	64.554
15.3337	1097.251	64.5637
15.33312	1097.47	64.5735
15.33409	1083.847	64.5833
15.3358	1073.7	64.593
15.3354	1075.82	64.6028
15.3373	1079.09	64.6125
15.3371	1094.32	64.6223
15.3401	1095.38	64.63208
15.3405	1090.96	64.6418
15.3399	1079.41	64.6516
15.3406	1070.196	64.6614
15.3419	1077.07	64.6711
15.3425	1090.14	64.6809
15.3437	1098.09	64.6907
15.3445	1092.96	64.7004
15.3464	1080.24	64.7102
15.3457	1073.18	64.72
15.34682	1077.98	64.7297
15.3473	1084.51	64.7395
15.34873	1092.79	64.7493
15.3491	1095.965	64.759
15.3497	1088.61	64.7688
15.35054	1075.89	64.7786
15.3518	1072.55	64.78833
15.3519	1082.58	64.7981
15.3535	1094.064	64.8079
15.3538	1095.859	64.8176
15.354	1089.36	64.8274
15.3566	1080.46	64.8372
15.3576	1076.72	64.8469
15.3579	1079.9	64.8567
15.3577	1084.96	64.8665
15.3599	1095.34	64.8762
15.3597	1094.891	64.886
15.3612	1085.12	64.8958
15.362	1075.8	64.9055
15.3615	1072.72	64.9153
15.3632	1084.04	64.925
15.3635	1093.103	64.9348
15.3649	1092.94	64.94458
15.3658	1089.84	64.9543
15.3657	1079.24	64.9641
15.3669	1076.03	64.9739
15.3678	1077.446	64.9836
15.3691	1086.65	64.9934
15.3697	1097.32	65.0032
15.3701	1095.09	65.0129
15.3721	1085.09	65.0227
15.3732	1074.99	65.0325
15.3727	1074.51	65.0422
15.3732	1084.53	65.052
15.3756	1092.04	65.0618
15.3743	1094.78	65.0715
15.3757	1088.79	65.0813
15.3772	1078.49	65.0911
15.3773	1072.32	65.10083
15.3776	1076.69	65.1106
15.3798	1090.98	65.1204
15.3801	1099.12	65.1301
15.38	1091.86	65.1399
15.3814	1081.08	65.1497
15.3833	1073.72	65.1594
15.3833	1075.37	65.1692
15.3853	1086.87	65.179
15.3857	1095.48	65.1887
15.3862	1094.26	65.1985
15.3865	1087.36	65.2083
15.3878	1073.92	65.218
15.3888	1071.54	65.2278
15.39	1082.15	65.2375
15.3896	1094.43	65.2473
15.3912	1099.29	65.25708
15.3924	1089.595	65.2668
15.3931	1079.01	65.2766
15.393	1074.39	65.2864
15.3937	1076.77	65.2961
15.395	1089.98	65.3059
15.3961	1094.82	65.3157
15.3969	1094.51	65.3254
15.3989	1083.7	65.3352
15.3982	1071.556	65.345
15.3982	1076.29	65.3547
15.3999	1084.85	65.3645
15.4011	1094.73	65.3743
15.4015	1096.08	65.384
15.403	1084.87	65.3938
15.4029	1077.22	65.4036
15.4037	1075.32	65.41333
15.4041	1079.729	65.4231
15.4054	1090.73	65.4329
15.4063	1095.35	65.4426
15.40778	1091.937	65.4524
15.4083	1081.26	65.4622
15.4087	1074.41	65.4719
15.4091	1077.5	65.4817
15.41094	1086.21	65.4915
15.4103	1094.36	65.5012
15.4127	1092.51	65.511
15.4122	1083.88	65.5208
15.4131	1078.13	65.5305
15.4144	1076	65.5403
15.4155	1081.02	65.55
15.4165	1091.25	65.5598
15.4167	1095.99	65.56958
15.4179	1090.84	65.5793
15.4188	1081.33	65.5891
15.4193	1072.19	65.5989
15.4203	1078.84	65.6086
15.4203	1088.16	65.6184
15.4219	1092.7	65.6282
15.4223	1094.76	65.6379
15.4237	1083.63	65.6477
15.4245	1075.95	65.6575
15.4258	1073.71	65.6672
15.4258	1081.64	65.677
15.42631	1093.7	65.6868
15.4278	1096.6	65.6965
15.4283	1089.37	65.7063
15.429	1075.53	65.7161
15.43069	1072.68	65.72583
15.4305	1080.65	65.7356
15.4311	1088.99	65.7454
15.43198	1096.54	65.7551
15.4334	1092.17	65.7649
15.4341	1080.65	65.7747
15.4343	1073.69	65.7844
15.435	1073.8	65.7942
15.4362	1084.87	65.804
15.4364	1097.86	65.8137
15.4382	1095.15	65.8235
15.4384	1085.79	65.8333
15.44	1074.01	65.843
15.4411	1073.2	65.8528
15.44112	1082.88	65.8625
15.4414	1092.68	65.8723
15.4422	1097.23	65.88208
15.4444	1090.82	65.8918
15.4462	1078.18	65.9016
15.4453	1070.57	65.9114
15.4461	1077.72	65.9211
15.4472	1089.308	65.9309
15.4481	1100.11	65.9407
15.4493	1091.6	65.9504
15.4499	1079.87	65.9602
15.45046	1073.906	65.97
15.4507	1075.81	65.9797
15.4522	1086.34	65.9895
15.4529	1092.98	65.9993
15.454	1094.67	66.009
15.4538	1087.84	66.0188
15.4548	1075.6	66.0286
15.4553	1075.52	66.03833
15.45753	1080.32	66.0481
15.4574	1091.27	66.0579
15.4582	1097.12	66.0676
15.4593	1087.53	66.0774
15.4605	1079.99	66.0872
15.4601	1075.04	66.0969
15.4616	1075.49	66.1067
15.4616	1086.6	66.1165
15.463	1093	66.1262
15.4646	1095.49	66.136
15.4649	1085.98	66.1458
15.4645	1073.29	66.1555
15.466	1073.12	66.1653
15.46734	1082.46	66.175
15.4682	1093.11	66.1848
15.4691	1094.69	66.19458
15.47	1087.59	66.2043
15.4715	1079.55	66.2141
15.4727	1072.78	66.2239
15.4721	1077.4	66.2336
15.473	1087.03	66.2434
15.4738	1094.5	66.2532
15.4748	1093.98	66.2629
15.4749	1082.593	66.2727
15.47588	1070.62	66.2825
15.4774	1074.33	66.2922
15.4777	1085.52	66.302
15.4796	1091.81	66.3118
15.4796	1094.8	66.3215
15.4799	1085.74	66.3313
15.4814	1076.51	66.3411
15.4819	1072.06	66.35083
15.4835	1076.22	66.3606
15.4831	1089.47	66.3704
15.4843	1096.42	66.3801
15.4851	1092.68	66.3899
15.48631	1078.68	66.3997
15.4867	1069.38	66.4094
15.4887	1077.77	66.4192
15.4886	1083.74	66.429
15.4897	1095.67	66.4387
15.4899	1092.79	66.4485
15.4908	1084.88	66.4583
15.4919	1073.65	66.468
15.4931	1070.79	66.4778
15.4927	1081.13	66.4875
15.49499	1094.17	66.4973
15.4954	1096.95	66.50708
15.4958	1088.78	66.5168
15.4978	1074.49	66.5266
15.497	1071.48	66.5364
15.4973	1078.71	66.5461
15.4984	1088.79	66.5559
15.5004	1095.24	66.5657
15.5	1091.22	66.5754
15.502	1083.11	66.5852
15.50287	1072.38	66.595
15.5031	1074.42	66.6047
15.5043	1082.41	66.6145
15.5039	1093.83	66.6243
15.5054	1093.85	66.634
15.5064	1084.48	66.6438
15.5072	1075.57	66.6536
15.5086	1073.7	66.66333
15.50903	1082.4	66.6731
15.5105	1088.12	66.6829
15.5096	1094.23	66.6926
15.511	1090.896	66.7024
15.5125	1078.99	66.7122
15.5125	1074.26	66.7219
15.5137	1074.45	66.7317
15.5147	1086.47	66.7415
15.515	1094.05	66.7512
15.5159	1090.04	66.761
15.5172	1084.59	66.7708
15.5174	1074.97	66.7805
15.5181	1074.84	66.7903
15.51985	1081.366	66.8
15.5202	1088.906	66.8098
15.52131	1094.41	66.81958
15.5215	1091.04	66.8293
15.5226	1077.47	66.8391
15.52453	1072.84	66.8489
15.5238	1076.48	66.8586
15.5256	1088.37	66.8684
15.5255	1092.54	66.8782
15.5278	1092.29	66.8879
15.5281	1081.83	66.8977
15.52836	1074.267	66.9075
15.5294	1073.23	66.9172
15.5308	1081.719	66.927
15.5305	1093.04	66.9368
15.5321	1096.87	66.9465
15.5333	1088.06	66.9563
15.5342	1072.77	66.9661
15.5343	1071.61	66.97583
15.5339	1078.73	66.9856
15.5353	1088.95	66.9954
15.5374	1095.67	67.0051
15.53798	1089.4	67.0149
15.538	1081.18	67.0247
15.5386	1071.21	67.0344
15.5395	1072.54	67.0442
15.5413	1084.29	67.054
15.5418	1094.9	67.0637
15.5421	1095.49	67.0735
15.5436	1082.912	67.0833
15.5442	1070.684	67.093
15.5442	1073.04	67.1028
15.5447	1081.62	67.1125
15.5462	1092.739	67.1223
15.5469	1094.32	67.13208
15.5479	1086.6	67.1418
15.5483	1078.11	67.1516
15.54888	1070.48	67.1614
15.55103	1076.318	67.1711
15.5512	1089.13	67.1809
15.55209	1096.64	67.1907
15.5529	1093.166	67.2004
15.5528	1080.16	67.2102
15.5541	1070.56	67.22
15.5553	1075.19	67.2297
15.5554	1084.18	67.2395
15.5561	1090.5	67.2493
15.5576	1094.36	67.259
15.5576	1085.98	67.2688
15.5592	1075.82	67.2786
15.5596	1072.59	67.28833
15.5601	1079.04	67.2981
15.5619	1090.87	67.3079
15.5619	1094.48	67.3176
15.5632	1088.55	67.3274
15.564	1079.73	67.3372
15.5661	1073.23	67.3469
15.5665	1076.88	67.3567
15.5669	1084.38	67.3665
15.5678	1092.48	67.3762
15.5685	1092.5	67.386
15.5692	1085.91	67.3958
15.5698	1076.36	67.4055
15.5706	1072.62	67.4153
15.57145	1080.43	67.425
15.57324	1093.1	67.4348
15.5734	1091.38	67.44458
15.5746	1089.83	67.4543
15.5744	1077.1	67.4641
15.5761	1073.51	67.4739
15.5769	1075.08	67.4836
15.5777	1084.77	67.4934
15.5779	1094.18	67.5032
15.5786	1093.26	67.5129
15.5797	1081.9	67.5227
15.5808	1071.92	67.5325
15.5813	1071.47	67.5422
15.5818	1083.559	67.552
15.5827	1091.79	67.5618
15.5843	1095.64	67.5715
15.5847	1086.4	67.5813
15.5857	1077.84	67.5911
15.58584	1070.885	67.60083
15.5868	1076.74	67.6106
15.5876	1088.611	67.6204
15.5883	1096	67.6301
15.5899	1092.481	67.6399
15.5897	1078.48	67.6497
15.5915	1071.85	67.6594
15.5914	1074.222	67.6692
15.593	1086.15	67.679
15.5933	1095.39	67.6887
15.5946	1091.66	67.6985
15.5944	1084.32	67.7083
15.5979	1074.68	67.718
15.5971	1070.56	67.7278
15.5972	1080.36	67.7375
15.59807	1090.83	67.7473
15.5989	1096.34	67.75708
15.5995	1088.48	67.7668
15.60053	1074.04	67.7766
15.6022	1071.68	67.7864
15.6017	1077.07	67.7961
15.6034	1088.22	67.8059
15.6041	1094.26	67.8157
15.6045	1090.82	67.8254
15.60603	1081.65	67.8352
15.607	1070.77	67.845
15.6084	1074.81	67.8547
15.6089	1083.83	67.8645
15.6086	1094.61	67.8743
15.6099	1096.04	67.884
15.6096	1082.489	67.8938
15.6115	1074	67.9036
15.6125	1072.86	67.91333
15.6132	1079.37	67.9231
15.6146	1089.52	67.9329
15.6154	1093.694	67.9426
15.6157	1089.7	67.9524
15.6161	1078.99	67.9622
15.6169	1070.94	67.9719
15.6174	1073.57	67.9817
15.6184	1086.194	67.9915
15.6191	1093.43	68.0012
15.6216	1092.29	68.011
15.6207	1083.36	68.0208
15.6224	1074.36	68.0305
15.62326	1074.092	68.0403
15.6238	1079.56	68.05
15.6239	1090.719	68.0598
15.6251	1093.65	68.06958
15.6259	1089.63	68.0793
15.6265	1078.05	68.0891
15.6272	1068.71	68.0989
15.628	1075.16	68.1086
15.6303	1088.15	68.1184
15.6303	1092.16	68.1282
15.6314	1093.35	68.1379
15.633	1082.35	68.1477
15.6322	1072.43	68.1575
15.6334	1073.184	68.1672
15.6339	1079.11	68.177
15.6356	1091.2	68.1868
15.6363	1094.825	68.1965
15.6372	1087.26	68.2063
15.6381	1073.78	68.2161
15.6395	1068.51	68.22583
15.6392	1079.08	68.2356
15.6407	1089.07	68.2454
15.6401	1095.63	68.2551
15.641	1090.34	68.2649
15.6433	1079.486	68.2747
15.6431	1071.21	68.2844
15.64324	1072.86	68.2942
15.6445	1083.58	68.304
15.6449	1095.765	68.3137
15.64632	1094.45	68.3235
15.6475	1084.58	68.3333
15.6491	1071.56	68.343
15.6492	1070.25	68.3528
15.6493	1082.96	68.3625
15.65071	1091.54	68.3723
15.6521	1093.24	68.38208
15.6515	1088.77	68.3918
15.6523	1077.01	68.4016
15.654	1069.58	68.4114
15.6545	1076.58	68.4211
15.6551	1085.98	68.4309
15.6565	1096.526	68.4407
15.6571	1091.35	68.4504
15.6577	1078.421	68.4602
15.6581	1071.93	68.47
15.6598	1072.96	68.4797
15.6594	1083.88	68.4895
15.6609	1090.49	68.4993
15.662	1092.051	68.509
15.6621	1086.34	68.5188
15.6637	1074.208	68.5286
15.6634	1071.53	68.53833
15.6647	1077.7	68.5481
15.6657	1089.5	68.5579
15.66751	1095.29	68.5676
15.668	1086.81	68.5774
15.6682	1079.8	68.5872
15.6701	1072.81	68.5969
15.6695	1074.59	68.6067
15.6703	1085.32	68.6165
15.6729	1092.82	68.6262
15.6726	1091.96	68.636
15.6738	1084.97	68.6458
15.674	1073.55	68.6555
15.6746	1071.65	68.6653
15.6763	1080.1	68.675
15.67608	1089.96	68.6848
15.6778	1092.894	68.69458
15.6767	1088.46	68.7043
15.6789	1078.39	68.7141
15.6798	1072.24	68.7239
15.6811	1074.91	68.7336
15.6802	1083.63	68.7434
15.6822	1091.55	68.7532
15.6834	1093.213	68.7629
15.6833	1082.23	68.7727
15.6847	1070.27	68.7825
15.6874	1071.56	68.7922
15.687	1082.38	68.802
15.6876	1091.4	68.8118
15.6889	1093.82	68.8215
15.68881	1085.77	68.8313
15.6903	1075.681	68.8411
15.6903	1070.73	68.85083
15.6903	1073.3	68.8606
15.6913	1089.32	68.8704
15.6928	1095.67	68.8801
15.69256	1091.07	68.8899
15.6943	1080.828	68.8997
15.6962	1068.44	68.9094
15.696	1075.1	68.9192
15.6963	1086.26	68.929
15.6978	1094.11	68.9387
15.6995	1091.82	68.9485
15.6998	1081.48	68.9583
15.7011	1073.981	68.968
15.7018	1069	68.9778
15.7007	1077.95	68.9875
15.7019	1091.81	68.9973
15.7034	1095.55	69.00708
15.704	1087.15	69.0168
15.7051	1074.1	69.0266
15.7059	1069.1	69.0364
15.70606	1077.31	69.0461
15.7071	1087.45	69.0559
15.7092	1093.5	69.0657
15.7093	1090.95	69.0754
15.7101	1079.38	69.0852
15.71	1070.403	69.095
15.7114	1072.68	69.1047
15.7122	1080.16	69.1145
15.7135	1093.94	69.1243
15.7138	1093.3	69.134
15.7136	1082.38	69.1438
15.71586	1074.87	69.1536
15.7173	1069.899	69.16333
15.7172	1079.45	69.1731
15.7178	1088.14	69.1829
15.7178	1090.69	69.1926
15.7198	1090.63	69.2024
15.7207	1078.77	69.2122
15.7211	1072.88	69.2219
15.72224	1073.48	69.2317
15.7232	1083.45	69.2415
15.7246	1092.96	69.2512
15.7245	1089.308	69.261
15.7254	1084.12	69.2708
15.7258	1072.94	69.2805
15.7272	1071.257	69.2903
15.7281	1080.46	69.3
15.7291	1086.311	69.3098
15.7293	1093.62	69.31958
15.7295	1089.067	69.3293
15.7311	1076.3	69.3391
15.7327	1069.51	69.3489
15.7328	1073.67	69.3586
15.734	1085.13	69.3684
15.7345	1094.71	69.3782
15.7355	1092.07	69.3879
15.7354	1079.64	69.3977
15.7364	1071.57	69.4075
15.7372	1071.245	69.4172
15.7393	1079.78	69.427
15.7394	1092.277	69.4368
15.74	1094.36	69.4465
15.7401	1086.78	69.4563
15.7412	1072.62	69.4661
15.7431	1067.97	69.47583
15.7439	1077.39	69.4856
15.7443	1089.65	69.4954
15.7455	1094.65	69.5051
15.745	1087.39	69.5149
15.7464	1079.87	69.5247
15.74821	1073.01	69.5344
15.7476	1070.48	69.5442
15.7483	1084.18	69.554
15.7492	1092.839	69.5637
15.7505	1095.42	69.5735
15.75226	1083.74	69.5833
15.7534	1069.06	69.593
15.7529	1069.37	69.6028
15.7542	1080.2	69.6125
15.7547	1090.89	69.6223
15.7559	1092.92	69.63208
15.7559	1086.93	69.6418
15.7566	1077.57	69.6516
15.7579	1069.88	69.6614
15.7578	1074.93	69.6711
15.7603	1086.69	69.6809
15.76027	1093.89	69.6907
15.7615	1091.21	69.7004
15.7628	1077.88	69.7102
15.7623	1070.29	69.72
15.7635	1073.27	69.7297
15.7639	1082.43	69.7395
15.7657	1089.99	69.7493
15.7654	1090.62	69.759
15.7669	1084.2	69.7688
15.7673	1076.09	69.7786
15.7685	1070.57	69.78833
15.7692	1074.99	69.7981
15.7704	1088.49	69.8079
15.7713	1093.02	69.8176
15.7717	1086.55	69.8274
15.7726	1077.62	69.8372
15.7735	1070.4	69.8469
15.7743	1075.38	69.8567
15.7754	1081.276	69.8665
15.7764	1090.55	69.8762
15.7773	1092.01	69.886
15.7778	1083.89	69.8958
15.7782	1072.88	69.9055
15.7783	1068.6	69.9153
15.7797	1076.46	69.925
15.7802	1091.01	69.9348
15.7817	1091.31	69.94458
15.7831	1088.96	69.9543
15.7834	1075.708	69.9641
15.7839	1070.488	69.9739
15.7847	1074.99	69.9836
15.7854	1083.14	69.9934
15.7857	1092.03	70.0032
15.7868	1092.78	70.0129
15.78721	1080.1	70.0227
15.789	1070.7	70.0325
15.7898	1068.03	70.0422
15.7908	1079.48	70.052
15.7916	1092.19	70.0618
15.7924	1092.9	70.0715
15.7926	1081.9	70.0813
15.79395	1074	70.0911
15.7947	1071.05	70.10083
15.7953	1074.37	70.1106
15.7959	1087.86	70.1204
15.797	1093.37	70.1301
15.7975	1089.47	70.1399
15.7981	1075.235	70.1497
15.7999	1066.89	70.1594
15.7998	1071.167	70.1692
15.8006	1084.54	70.179
15.8017	1093.47	70.1887
15.80209	1089.31	70.1985
15.8033	1082.65	70.2083
15.8039	1071.61	70.218
15.8044	1067.14	70.2278
15.8058	1078.25	70.2375
15.8069	1088.59	70.2473
15.80795	1093.44	70.25708
15.8089	1088.46	70.2668
15.8096	1071.46	70.2766
15.8098	1070.655	70.2864
15.8109	1073.96	70.2961
15.8116	1085.06	70.3059
15.8123	1091.73	70.3157
15.8131	1086.86	70.3254
15.8141	1080.07	70.3352
15.8153	1070.78	70.345
15.8157	1070.34	70.3547
15.8165	1080.54	70.3645
15.81684	1089.86	70.3743
15.8175	1092.12	70.384
15.818	1082.35	70.3938
15.81966	1072.19	70.4036
15.8205	1070.29	70.41333
15.8214	1076.79	70.4231
15.8224	1084.95	70.4329
15.8233	1091.17	70.4426
15.8239	1087.27	70.4524
15.824	1079.28	70.4622
15.8257	1070.21	70.4719
15.8259	1070.62	70.4817
15.8265	1082.16	70.4915
15.828	1090.6	70.5012
15.8287	1090.811	70.511
15.8302	1082.78	70.5208
15.8308	1070.781	70.5305
15.8317	1071.48	70.5403
15.8321	1077.8	70.55
15.834	1085.89	70.5598
15.8337	1091.34	70.56958
15.83371	1087.34	70.5793
15.8345	1078.89	70.5891
15.8365	1068.34	70.5989
15.8365	1070.75	70.6086
15.8382	1085.037	70.6184
15.8389	1092.5	70.6282
15.8397	1090.29	70.6379
15.8404	1078.25	70.6477
15.8408	1070.32	70.6575
15.8423	1071.41	70.6672
15.8425	1075.94	70.677
15.8425	1089.1	70.6868
15.8447	1093.47	70.6965
15.8454	1084.699	70.7063
15.8458	1071.82	70.7161
15.8474	1066.13	70.72583
15.8469	1073.87	70.7356
15.8492	1087.53	70.7454
15.8494	1091.92	70.7551
15.8495	1087.02	70.7649
15.8507	1077.1	70.7747
15.8516	1069.18	70.7844
15.8521	1070.13	70.7942
15.8529	1082.28	70.804
15.8549	1091.3	70.8137
15.8552	1091.92	70.8235
15.8556	1081.5	70.8333
15.8561	1067.94	70.843
15.8564	1066.99	70.8528
15.8591	1078.17	70.8625
15.8594	1089.31	70.8723
15.8596	1089.19	70.88208
15.8612	1084.41	70.8918
15.86105	1075.39	70.9016
15.8626	1067.73	70.9114
15.8621	1073.921	70.9211
15.8631	1082.17	70.9309
15.8654	1092.97	70.9407
15.8656	1090.2	70.9504
15.8663	1075.44	70.9602
15.867	1069.26	70.97
15.8679	1069	70.9797
15.86729	1079.48	70.9895
15.86972	1087.89	70.9993
15.8711	1088.06	71.009
15.8714	1082.93	71.0188
15.871	1073.89	71.0286
15.8723	1066.86	71.03833
15.874	1073.9	71.0481
15.8741	1082.479	71.0579
15.8752	1091.68	71.0676
15.8763	1083.88	71.0774
15.8769	1075.84	71.0872
15.8775	1066.99	71.0969
15.8784	1070.901	71.1067
15.8796	1079.82	71.1165
15.8804	1086.46	71.1262
15.8801	1087.19	71.136
15.8817	1082.1	71.1458
15.8828	1071.94	71.1555
15.883	1065.14	71.1653
15.8842	1074.57	71.175
15.8848	1085.58	71.1848
15.8856	1089.85	71.19458
15.8864	1085.74	71.2043
15.8867	1072.26	71.2141
15.8875	1067.82	71.2239
15.889	1069.57	71.2336
15.8897	1078.95	71.2434
15.891	1088.64	71.2532
15.8914	1087.72	71.2629
15.89299	1080	71.2727
15.8938	1065.78	71.2825
15.8938	1064.32	71.2922
15.8943	1077	71.302
15.8951	1087.85	71.3118
15.8968	1091.26	71.3215
15.898	1079.754	71.3313
15.8979	1068.68	71.3411
15.89748	1065.92	71.35083
15.9	1069.44	71.3606
15.9011	1083.03	71.3704
15.9015	1089.01	71.3801
15.9023	1085.77	71.3899
15.9035	1072.744	71.3997
15.903	1061.22	71.4094
15.905	1066.3	71.4192
15.9041	1079.5	71.429
15.90667	1087.78	71.4387
15.9067	1088.07	71.4485
15.9077	1077	71.4583
15.9098	1067.13	71.468
15.9102	1065.59	71.4778
15.9092	1072.667	71.4875
15.9116	1083.77	71.4973
15.913	1086.93	71.50708
15.9134	1080.579	71.5168
15.9133	1067.4	71.5266
15.9139	1062.46	71.5364
15.9151	1068.32	71.5461
15.916	1079.84	71.5559
15.9176	1083.86	71.5657
15.9167	1081.67	71.5754
15.9179	1071.33	71.5852
15.9198	1062.84	71.595
15.9198	1062.27	71.6047
15.921	1068.58	71.6145
15.9207	1081.46	71.6243
15.92176	1083.33	71.634
15.9231	1072.16	71.6438
15.9247	1063.31	71.6536
15.9251	1055.43	71.66333
15.9243	1062.94	71.6731
15.9256	1072.22	71.6829
15.9278	1073.72	71.6926
15.9289	1069.219	71.7024
15.93851	-245.379	71.7122
15.9344	13.82532	71.7219
15.93545	-51.5584	71.7317
15.9358	-39.3096	71.7415
15.9368	-30.14599	71.7512
15.9366	-25.4209	71.761
15.93716	-37.5588	71.7708
15.937	-45.6891	71.7805
15.93797	-50.9544	71.7903
15.9385	-50.2603	71.8
15.93983	-34.8611	71.8098
15.9396	-28.8301	71.81958
15.9399	-26.1655	71.8293
15.9411	-40.5915	71.8391
15.9418	-51.32769	71.8489
15.942	-53.0087	71.8586
15.9439	-42.5482	71.8684
15.9447	-26.82926	71.8782
15.94524	-23.7345	71.8879
15.9455	-36.839	71.8977
15.9467	-47.938	71.9075
15.9477	-53.1197	71.9172
15.94875	-46.9224	71.927
15.9485	-32.2736	71.9368
15.9493	-24.9195	71.9465
15.9497	-26.288	71.9563
15.95	-43.9365	71.9661
15.9529	-54.1479	71.97583
15.9524	-50.4899	71.9856
15.9536	-37.9384	71.9954
15.954	-24.8375	72.0051
15.95499	-29.6404	72.0149
15.9557	-39.4899	72.0247
15.957	-49.986	72.0344
15.9581	-54.07233	72.0442
15.9579	-42.54348	72.054
15.9593	-29.5984	72.0637
15.96	-25.2823	72.0735
15.96047	-31.9524	72.0833
15.962	-48.0089	72.093
15.962	-53.2662	72.1028
15.9634	-45.48925	72.1125
15.9631	-33.4316	72.1223
15.9637	-25.4391	72.13208
15.9659	-31.7318	72.1418
15.967	-41.6781	72.1516
15.96633	-50.48328	72.1614
15.96819	-50.9798	72.1711
15.9684	-41.0515	72.1809
15.9689	-29.0086	72.1907
15.96926	-27.9231	72.2004
15.9714	-37.4416	72.2102
15.9724	-47.8055	72.22
15.973	-51.1981	72.2297
15.9738	-41.0541	72.2395
15.9742	-32.7937	72.2493
15.9758	-29.9969	72.259
15.9761	-32.7773	72.2688
15.977	-42.3722	72.2786
15.97868	-49.6794	72.28833
15.9791	-48.2901	72.2981
15.9786	-36.1674	72.3079
15.9815	-27.5807	72.3176
15.98095	-31.2415	72.3274
15.9814	-38.6209	72.3372
15.9816	-50.4759	72.3469
15.9835	-48.1749	72.3567
15.9837	-40.2219	72.3665
15.9841	-34.0942	72.3762
15.9847	-28.7971	72.386
15.9869	-35.0198	72.3958
15.9867	-45.2848	72.4055
15.9883	-51.2312	72.4153
15.988	-47.6375	72.425
15.98985	-33.1999	72.4348
15.99	-27.0727	72.44458
15.9912	-31.567	72.4543
15.9918	-45.0122	72.4641
15.9926	-51.088	72.4739
15.9937	-48.62841	72.4836
15.9947	-41.3122	72.4934
15.9955	-29.4301	72.5032
15.9958	-27.7554	72.5129
15.9966	-36.6091	72.5227
15.9977	-49.2805	72.5325
15.9995	-53.31	72.5422
15.9995	-44.2192	72.552
16.0003	-31.1148	72.5618