File: data/processed_data_files/tensile/0.254_solid_uprint_typeiv_090_r(9).dat
MTS793|BTW|ENU|1|2|.|/|:|1|0|0|A

Data Header:			0.254_solid_uprint_typeiv_090_r0			Time:	20.0176	s	4/14/2019 1:22:42 AM
Data Acquisition:	Timed
Station Name:	ft40.cfg
Test File Name:	monotonic_0.2540_typeiv_solid_090_uprint.tst
Displacement	Force	Running Time
mm	N	s
-40.0404	-321.112	0.0227051
-40.04063	-316.333	0.0422363
-40.0404	-315.717	0.0617676
-40.0414	-318.2298	0.0812988
-40.0404	-317.873	0.10083
-40.0389	-315.855	0.120361
-40.03643	-315.107	0.139893
-40.0346	-316.234	0.159424
-40.0344	-310.149	0.178955
-40.03194	-308.056	0.198486
-40.03	-312.174	0.218018
-40.0283	-314.11	0.237549
-40.0267	-305.446	0.25708
-40.0257	-308.403	0.276611
-40.0238	-306.788	0.296143
-40.0217	-302.464	0.315674
-40.02055	-304.242	0.335205
-40.0192	-308.547	0.354736
-40.0176	-298.712	0.374268
-40.0154	-300.812	0.393799
-40.0141	-302.675	0.41333
-40.0121	-297.742	0.432861
-40.01049	-294.486	0.452393
-40.0094	-302.583	0.471924
-40.0091	-295.2475	0.491455
-40.0051	-293.73	0.510986
-40.0053	-294.925	0.530518
-40.0028	-292.581	0.550049
-40.0014	-288.809	0.56958
-40.0004	-297.3078	0.589111
-39.998	-289.781	0.608643
-39.9965	-285.893	0.628174
-39.9951	-286.962	0.647705
-39.99358	-290.335	0.667236
-39.9908	-284.59	0.686768
-39.9903	-285.654	0.706299
-39.9879	-285.087	0.72583
-39.98745	-281.237	0.745361
-39.9853	-281.298	0.764893
-39.9836	-283.649	0.784424
-39.982	-281.143	0.803955
-39.98048	-279.487	0.823486
-39.9785	-281.246	0.843018
-39.9767	-279.034	0.862549
-39.9747	-273.501	0.88208
-39.9746	-275.017	0.901611
-39.9733	-279.227	0.921143
-39.9698	-271.758	0.940674
-39.9693	-273.053	0.960205
-39.9677	-270.753	0.979736
-39.9661	-266.971	0.999268
-39.9644	-268.383	1.0188
-39.9616	-273.8793	1.03833
-39.961	-263.893	1.05786
-39.9583	-265.592	1.07739
-39.957	-266.882	1.09692
-39.9559	-262.99	1.11646
-39.9548	-258.8519	1.13599
-39.954	-266.747	1.15552
-39.9505	-260.673	1.17505
-39.948	-259.12	1.19458
-39.9493	-259.555	1.21411
-39.9456	-258.218	1.23364
-39.9457	-254.534	1.25317
-39.9421	-260.51	1.27271
-39.9416	-256.702	1.29224
-39.93866	-251.576	1.31177
-39.9379	-252.07	1.3313
-39.9374	-255.34	1.35083
-39.9346	-251.2	1.37036
-39.9324	-250.637	1.38989
-39.9313	-249.745	1.40942
-39.9305	-246.618	1.42896
-39.9279	-245.77	1.44849
-39.9258	-247.21	1.46802
-39.9241	-246.529	1.48755
-39.9241	-242.0679	1.50708
-39.9225	-244.347	1.52661
-39.9203	-243.566	1.54614
-39.9179	-238.504	1.56567
-39.9164	-237.1051	1.58521
-39.9149	-242.765	1.60474
-39.9129	-234.838	1.62427
-39.9124	-236.058	1.6438
-39.91	-236.56	1.66333
-39.9084	-233.152	1.68286
-39.9064	-231.5106	1.70239
-39.9058	-240.295	1.72192
-39.90295	-230.8954	1.74146
-39.9022	-227.792	1.76099
-39.9004	-230.282	1.78052
-39.8992	-227.589	1.80005
-39.8971	-224.146	1.81958
-39.8951	-231.8	1.83911
-39.8939	-227.083	1.85864
-39.8929	-223.724	1.87817
-39.8914	-222.774	1.89771
-39.8892	-224.269	1.91724
-39.8875	-217.904	1.93677
-39.8853	-223.42	1.9563
-39.8846	-222.136	1.97583
-39.8823	-217.255	1.99536
-39.8813	-214.197	2.01489
-39.8797	-218.984	2.03442
-39.8782	-214.872	2.05396
-39.8759	-215.092	2.07349
-39.875	-213.2924	2.09302
-39.872	-212.09	2.11255
-39.872	-209.848	2.13208
-39.869	-211.56	2.15161
-39.8684	-212.144	2.17114
-39.8657	-206.76	2.19067
-39.865	-207.952	2.21021
-39.8625	-209.347	2.22974
-39.8613	-204.458	2.24927
-39.8601	-201.328	2.2688
-39.8584	-207.619	2.28833
-39.8557	-201.4124	2.30786
-39.8551	-198.67	2.32739
-39.8536	-201.333	2.34692
-39.85144	-198.82	2.36646
-39.8511	-195.308	2.38599
-39.8488	-203.399	2.40552
-39.8468	-196.156	2.42505
-39.8454	-192.917	2.44458
-39.84425	-194.789	2.46411
-39.8416	-195.381	2.48364
-39.8406	-188.007	2.50317
-39.8392	-193.93	2.52271
-39.8375	-191.158	2.54224
-39.8352	-188.604	2.56177
-39.8336	-186.5287	2.5813
-39.8326	-189.863	2.60083
-39.8309	-184.815	2.62036
-39.8297	-185.85	2.63989
-39.828	-185.744	2.65942
-39.8255	-183.4	2.67896
-39.8241	-178.914	2.69849
-39.8226	-182.819	2.71802
-39.8207	-181.995	2.73755
-39.8194	-179.336	2.75708
-39.8176	-178.143	2.77661
-39.8152	-178.324	2.79614
-39.8131	-173.506	2.81567
-39.813	-175.367	2.83521
-39.8115	-178.197	2.85474
-39.8087	-172.5724	2.87427
-39.8086	-169.399	2.8938
-39.8052	-172.975	2.91333
-39.8049	-170.405	2.93286
-39.8026	-165.5396	2.95239
-39.8014	-171.806	2.97192
-39.8005	-167.093	2.99146
-39.7977	-164.254	3.01099
-39.7969	-165.47	3.03052
-39.7948	-164.948	3.05005
-39.793	-158.321	3.06958
-39.7919	-167.183	3.08911
-39.7907	-163.11	3.10864
-39.7883	-156.78	3.12817
-39.786	-158.13	3.14771
-39.78529	-160.154	3.16724
-39.7831	-153.744	3.18677
-39.78133	-158.796	3.2063
-39.7801	-157.22	3.22583
-39.7786	-153.33	3.24536
-39.7772	-150.945	3.26489
-39.7744	-156.294	3.28442
-39.7742	-151.33	3.30396
-39.7714	-150.3046	3.32349
-39.77026	-149.924	3.34302
-39.76886	-150.548	3.36255
-39.76685	-144.36	3.38208
-39.7661	-145.725	3.40161
-39.7626	-147.247	3.42114
-39.7618	-144.879	3.44067
-39.7601	-143.757	3.46021
-39.7599	-144.09	3.47974
-39.7582	-139.377	3.49927
-39.7547	-138.105	3.5188
-39.7544	-144.548	3.53833
-39.7526	-138.188	3.55786
-39.7504	-134.492	3.57739
-39.7488	-139.582	3.59692
-39.7473	-134.785	3.61646
-39.7466	-129.51	3.63599
-39.74445	-137.8	3.65552
-39.7426	-131.488	3.67505
-39.7414	-128.235	3.69458
-39.7397	-130.603	3.71411
-39.73835	-130.417	3.73364
-39.737	-122.623	3.75317
-39.7345	-130.903	3.77271
-39.7329	-128.066	3.79224
-39.7303	-121.396	3.81177
-39.7294	-119.958	3.8313
-39.7289	-126.21	3.85083
-39.7269	-118.899	3.87036
-39.7234	-120.909	3.88989
-39.7228	-120.021	3.90942
-39.7216	-118.631	3.92896
-39.7196	-112.495	3.94849
-39.71925	-119.171	3.96802
-39.7156	-115.637	3.98755
-39.7151	-113.413	4.00708
-39.7131	-112.737	4.02661
-39.7111	-115.486	4.04614
-39.711	-109.291	4.06567
-39.7091	-110.56	4.08521
-39.7078	-113.754	4.10474
-39.7048	-109.619	4.12427
-39.7032	-105.343	4.1438
-39.7024	-109.413	4.16333
-39.7	-102.547	4.18286
-39.6978	-100.251	4.20239
-39.6972	-108.303	4.22192
-39.6951	-103.8484	4.24146
-39.69479	-98.087	4.26099
-39.6925	-100.644	4.28052
-39.6912	-101.173	4.30005
-39.6897	-94.5885	4.31958
-39.6873	-100.35	4.33911
-39.6861	-98.3516	4.35864
-39.6839	-91.77861	4.37817
-39.6817	-93.0531	4.39771
-39.68	-94.9576	4.41724
-39.6793	-88.79715	4.43677
-39.6773	-92.3659	4.4563
-39.6757	-92.256	4.47583
-39.6756	-88.7508	4.49536
-39.6726	-85.8624	4.51489
-39.672	-88.3775	4.53442
-39.66975	-85.8553	4.55396
-39.669	-86.096	4.57349
-39.6673	-86.3268	4.59302
-39.6645	-83.4554	4.61255
-39.6615	-77.498	4.63208
-39.6614	-81.7769	4.65161
-39.6584	-81.9156	4.67114
-39.6579	-78.0287	4.69067
-39.6563	-78.9661	4.71021
-39.65464	-81.0037	4.72974
-39.6539	-74.1795	4.74927
-39.6509	-74.2556	4.7688
-39.6497	-78.8508	4.78833
-39.6489	-74.0829	4.80786
-39.6462	-70.6292	4.82739
-39.6437	-74.0207	4.84692
-39.6438	-71.722	4.86646
-39.6424	-64.9726	4.88599
-39.6401	-73.9282	4.90552
-39.6393	-69.7239	4.92505
-39.6361	-62.2216	4.94458
-39.6363	-64.2619	4.96411
-39.6336	-66.875	4.98364
-39.63208	-60.2205	5.00317
-39.63	-66.1451	5.02271
-39.6295	-62.7769	5.04224
-39.6264	-58.7454	5.06177
-39.6262	-57.6095	5.0813
-39.6244	-61.743	5.10083
-39.6227	-55.5094	5.12036
-39.6213	-56.7389	5.13989
-39.6185	-54.9433	5.15942
-39.6166	-54.1357	5.17896
-39.61639	-51.0318	5.19849
-39.6138	-53.6169	5.21802
-39.6122	-51.7489	5.23755
-39.6109	-50.0249	5.25708
-39.60955	-48.9669	5.27661
-39.6073	-51.6194	5.29614
-39.6056	-42.9339	5.31567
-39.6047	-47.0566	5.33521
-39.6024	-48.768	5.35474
-39.6015	-46.0658	5.37427
-39.5992	-41.0179	5.3938
-39.5973	-44.1099	5.41333
-39.5962	-39.8466	5.43286
-39.5949	-37.4805	5.45239
-39.5928	-43.7387	5.47192
-39.5919	-39.5439	5.49146
-39.5894	-35.1593	5.51099
-39.5885	-40.5512	5.53052
-39.5866	-36.45602	5.55005
-39.5842	-28.6255	5.56958
-39.5837	-36.3737	5.58911
-39.5817	-35.47821	5.60864
-39.5792	-27.7176	5.62817
-39.5779	-27.6915	5.64771
-39.5761	-32.2917	5.66724
-39.5747	-24.9986	5.68677
-39.57362	-29.2374	5.7063
-39.5712	-29.3178	5.72583
-39.5697	-23.6903	5.74536
-39.5691	-21.0487	5.76489
-39.567	-27.6076	5.78442
-39.5649	-21.9422	5.80396
-39.5635	-22.0911	5.82349
-39.5618	-21.8379	5.84302
-39.5606	-22.4236	5.86255
-39.5587	-15.7903	5.88208
-39.55735	-19.1864	5.90161
-39.5545	-18.838	5.92114
-39.55389	-15.6492	5.94067
-39.5525	-14.47882	5.96021
-39.5506	-19.31068	5.97974
-39.5477	-9.4684	5.99927
-39.548	-10.2263	6.0188
-39.546	-13.0609	6.03833
-39.54454	-12.1107	6.05786
-39.5425	-7.4248	6.07739
-39.5406	-11.1931	6.09692
-39.539	-7.81014	6.11646
-39.53756	-4.1696	6.13599
-39.536	-9.00619	6.15552
-39.5344	-6.26707	6.17505
-39.5332	-0.39992	6.19458
-39.5315	-3.63908	6.21411
-39.5306	-4.70411	6.23364
-39.5282	4.25996	6.25317
-39.5255	-0.916208	6.27271
-39.5245	-1.56058	6.29224
-39.5229	3.79247	6.31177
-39.5224	4.46619	6.3313
-39.5204	1.16252	6.35083
-39.5178	7.54364	6.37036
-39.5154	4.50783	6.38989
-39.5156	4.98245	6.40942
-39.5134	9.00378	6.42896
-39.5108	15.2696	6.44849
-39.5098	8.84472	6.46802
-39.5076	11.8042	6.48755
-39.5075	13.0239	6.50708
-39.5047	14.6155	6.52661
-39.50351	13.2502	6.54614
-39.5007	19.8881	6.56567
-39.5008	17.1766	6.58521
-39.4994	14.9415	6.60474
-39.4971	17.5918	6.62427
-39.4945	21.8331	6.6438
-39.49361	16.2556	6.66333
-39.4911	26.0336	6.68286
-39.4909	25.0098	6.70239
-39.4897	19.2636	6.72192
-39.488	19.9377	6.74146
-39.4865	29.4167	6.76099
-39.4839	24.6841	6.78052
-39.4819	26.8047	6.80005
-39.4802	33.8178	6.81958
-39.4801	26.1258	6.83911
-39.4765	26.1719	6.85864
-39.476	34.9068	6.87817
-39.4754	32.9374	6.89771
-39.4719	29.2835	6.91724
-39.471	39.0458	6.93677
-39.46957	36.8737	6.9563
-39.4678	33.6911	6.97583
-39.4657	37.6308	6.99536
-39.4654	41.9917	7.01489
-39.4628	34.8584	7.03442
-39.4605	42	7.05396
-39.4595	42.5208	7.07349
-39.458	40.1248	7.09302
-39.4566	41.155	7.11255
-39.4546	49.0865	7.13208
-39.4539	46.1965	7.15161
-39.45166	46.8558	7.17114
-39.4499	46.3207	7.19067
-39.4479	51.1277	7.21021
-39.4462	47.1033	7.22974
-39.4451	53.6334	7.24927
-39.4432	53.1474	7.2688
-39.4411	49.182	7.28833
-39.4395	51.484	7.30786
-39.43877	56.92783	7.32739
-39.4378	50.8253	7.34692
-39.4353	57.3274	7.36646
-39.4338	60.6269	7.38599
-39.4315	56.9776	7.40552
-39.4287	54.8813	7.42505
-39.4283	62.636	7.44458
-39.4268	60.4491	7.46411
-39.4254	61.8019	7.48364
-39.4238	67.5751	7.50317
-39.4222	62.19783	7.52271
-39.421	60.8826	7.54224
-39.4184	69.5916	7.56177
-39.4171	70.816	7.5813
-39.41547	64.4808	7.60083
-39.4138	72.2542	7.62036
-39.4138	71.0202	7.63989
-39.41124	68.91069	7.65942
-39.4086	73.3203	7.67896
-39.4076	77.0499	7.69849
-39.40696	71.3678	7.71802
-39.4049	77.086	7.73755
-39.40337	78.5995	7.75708
-39.4009	76.1065	7.77661
-39.3986	76.203	7.79614
-39.3976	82.73037	7.81567
-39.3962	81.2543	7.83521
-39.3943	80.2643	7.85474
-39.3925	80.5619	7.87427
-39.38995	85.1347	7.8938
-39.3891	79.8409	7.91333
-39.3873	88.8306	7.93286
-39.3861	88.4783	7.95239
-39.3851	84.313	7.97192
-39.38406	86.9816	7.99146
-39.3814	94.6559	8.01099
-39.3801	87.0374	8.03052
-39.3774	89.1333	8.05005
-39.3774	95.6625	8.06958
-39.3758	90.8261	8.08911
-39.37299	89.6436	8.10864
-39.3726	98.3583	8.12817
-39.3704	96.1399	8.14771
-39.3676	94.4539	8.16724
-39.3665	101.792	8.18677
-39.3648	96.8361	8.2063
-39.3636	92.7388	8.22583
-39.3619	101.727	8.24536
-39.3602	105.7601	8.26489
-39.3579	99.3708	8.28442
-39.3562	105.269	8.30396
-39.3561	104.283	8.32349
-39.35445	103.768	8.34302
-39.352	104.943	8.36255
-39.3508	112.507	8.38208
-39.3494	106.655	8.40161
-39.3482	111.347	8.42114
-39.3457	111.809	8.44067
-39.3434	111.911	8.46021
-39.3435	108.513	8.47974
-39.3423	117.066	8.49927
-39.3395	117.288	8.5188
-39.3374	112.509	8.53833
-39.3353	111.924	8.55786
-39.3345	119.893	8.57739
-39.3331	114.571	8.59692
-39.3308	120.597	8.61646
-39.32935	122.94	8.63599
-39.32811	116.848	8.65552
-39.3251	117.371	8.67505
-39.3245	128.339	8.69458
-39.32349	122.696	8.71411
-39.3216	123.1423	8.73364
-39.3195	128.726	8.75317
-39.3175	125.724	8.77271
-39.3169	122.908	8.79224
-39.3148	131.949	8.81177
-39.3126	129.7393	8.8313
-39.31192	125.039	8.85083
-39.3105	132.585	8.87036
-39.3092	132.778	8.88989
-39.3069	129.422	8.90942
-39.3051	133.892	8.92896
-39.3023	139.289	8.94849
-39.30191	132.592	8.96802
-39.2998	137.14	8.98755
-39.2988	139.829	9.00708
-39.2966	137.86	9.02661
-39.2954	137.086	9.04614
-39.2935	145.02	9.06567
-39.2924	142.156	9.08521
-39.2906	141.933	9.10474
-39.2888	143.63	9.12427
-39.28643	147.718	9.1438
-39.285	140.928	9.16333
-39.2836	148.672	9.18286
-39.2821	150.161	9.20239
-39.2805	147.038	9.22192
-39.2795	145.65	9.24146
-39.2766	153.8443	9.26099
-39.274	148.787	9.28052
-39.2732	153.038	9.30005
-39.2724	157.452	9.31958
-39.2713	152.5751	9.33911
-39.26894	148.984	9.35864
-39.2681	160.289	9.37817
-39.2667	156.621	9.39771
-39.2651	155.324	9.41724
-39.2625	161.7682	9.43677
-39.2612	159.999	9.4563
-39.2596	153.3875	9.47583
-39.2579	165.492	9.49536
-39.2567	164.551	9.51489
-39.2547	159.531	9.53442
-39.2533	166.062	9.55396
-39.2513	165.695	9.57349
-39.2488	161.635	9.59302
-39.2486	165.607	9.61255
-39.2462	172.875	9.63208
-39.2459	168.645	9.65161
-39.2433	168.428	9.67114
-39.2406	169.082	9.69067
-39.23996	170.4642	9.71021
-39.2382	167.446	9.72974
-39.2375	178.8694	9.74927
-39.2347	175.364	9.7688
-39.2334	173.595	9.78833
-39.2321	174.4048	9.80786
-39.23	180.679	9.82739
-39.2286	174.983	9.84692
-39.227	180.172	9.86646
-39.2248	182.303	9.88599
-39.2237	180.201	9.90552
-39.2224	177.271	9.92505
-39.2204	186.016	9.94458
-39.2196	180.678	9.96411
-39.2181	185.051	9.98364
-39.2155	189.739	10.0032
-39.2139	186.569	10.0227
-39.21257	181.547	10.0422
-39.2105	192.448	10.0618
-39.209	190.526	10.0813
-39.206	187.369	10.10083
-39.20451	193.088	10.1204
-39.2038	192.512	10.1399
-39.203	189.045	10.1594
-39.2008	197.31	10.179
-39.1984	198.753	10.1985
-39.1969	192.16	10.218
-39.1958	197.6039	10.2375
-39.1955	199.703	10.25708
-39.1934	197.522	10.2766
-39.19101	197.674	10.2961
-39.1894	205.542	10.3157
-39.1879	202.346	10.3352
-39.1859	200.165	10.3547
-39.1852	203.045	10.3743
-39.18325	206.261	10.3938
-39.1812	201.5869	10.41333
-39.1804	210.868	10.4329
-39.1769	211.709	10.4524
-39.1765	205.685	10.4719
-39.17519	206.775	10.4915
-39.17329	216.053	10.511
-39.1711	208.097	10.5305
-39.1702	212.187	10.55
-39.1686	216.324	10.56958
-39.1671	213.18	10.5891
-39.1649	209.868	10.6086
-39.1642	221.251	10.6282
-39.1618	216.3	10.6477
-39.16116	214.421	10.6672
-39.158	221.421	10.6868
-39.15733	221.164	10.7063
-39.1559	213.783	10.72583
-39.1541	222.705	10.7454
-39.1523	225.063	10.7649
-39.15004	220.951	10.7844
-39.14835	225.343	10.804
-39.14719	225.979	10.8235
-39.1457	219.611	10.843
-39.1435	226.319	10.8625
-39.1423	231.943	10.88208
-39.1413	224.978	10.9016
-39.1394	227.585	10.9211
-39.1377	232.597	10.9407
-39.1357	230.801	10.9602
-39.135	228.177	10.9797
-39.1332	235.883	10.9993
-39.1313	233.667	11.0188
-39.1289	234.5713	11.03833
-39.12711	234.456	11.0579
-39.1265	239.82	11.0774
-39.12376	233.131	11.0969
-39.1242	239.933	11.1165
-39.1213	243.562	11.136
-39.1201	238.555	11.1555
-39.1153	235.596	11.175
-39.11562	246.449	11.19458
-39.1148	239.923	11.2141
-39.11282	240.575	11.2336
-39.1117	248.078	11.2532
-39.11129	245.489	11.2727
-39.1086	240.1963	11.2922
-39.1065	252.698	11.3118
-39.1056	248.194	11.3313
-39.1028	246.1534	11.35083
-39.1025	252.881	11.3704
-39.1	252.526	11.3899
-39.0984	245.275	11.4094
-39.0964	253.724	11.429
-39.09494	256.828	11.4485
-39.09325	252.314	11.468
-39.0925	257.203	11.4875
-39.0908	258.629	11.50708
-39.088	253.575	11.5266
-39.0872	255.7	11.5461
-39.0846	262.59	11.5657
-39.0829	259.235	11.5852
-39.0834	258.73	11.6047
-39.0815	263.594	11.6243
-39.0793	264.163	11.6438
-39.0777	260.736	11.66333
-39.0757	267.432	11.6829
-39.0736	266.737	11.7024
-39.0716	264.678	11.7219
-39.0702	266.591	11.7415
-39.0692	272.539	11.761
-39.0674	265.242	11.7805
-39.0656	270.366	11.8
-39.0641	275.61	11.81958
-39.06216	271.038	11.8391
-39.0607	266.224	11.8586
-39.0599	277.837	11.8782
-39.0582	273.89	11.8977
-39.0555	274.4	11.9172
-39.0546	278.684	11.9368
-39.0521	278.4277	11.9563
-39.0511	270.554	11.97583
-39.0498	281.056	11.9954
-39.047	281.4061	12.0149
-39.0458	278.401	12.0344
-39.044	282.5993	12.054
-39.0431	285.3963	12.0735
-39.0417	277.855	12.093
-39.0393	282.983	12.1125
-39.0382	288.671	12.13208
-39.03632	282.738	12.1516
-39.0354	285.34	12.1711
-39.03418	289.395	12.1907
-39.0318	285.036	12.2102
-39.0299	287.319	12.2297
-39.0279	294.474	12.2493
-39.0267	291.536	12.2688
-39.0255	289.105	12.28833
-39.0237	291.575	12.3079
-39.0221	296.327	12.3274
-39.0207	289.908	12.3469
-39.0194	297.856	12.3665
-39.0167	298.556	12.386
-39.0155	295.2164	12.4055
-39.0138	293.327	12.425
-39.0115	303.778	12.44458
-39.0101	297.199	12.4641
-39.0089	297.991	12.4836
-39.0084	305.473	12.5032
-39.0061	302.347	12.5227
-39.0024	297.03	12.5422
-39.0023	307.0571	12.5618
-39.0002	304.957	12.5813
-38.9985	303.99	12.60083
-38.9976	308.899	12.6204
-38.9951	308.532	12.6399
-38.9952	301.366	12.6594
-38.99192	310.057	12.679
-38.9911	312.735	12.6985
-38.98835	306.213	12.718
-38.987	310.315	12.7375
-38.98576	314.985	12.75708
-38.9845	308.596	12.7766
-38.9823	310.846	12.7961
-38.9808	317.608	12.8157
-38.9792	313.084	12.8352
-38.9775	314.4877	12.8547
-38.9761	317.609	12.8743
-38.9758	315.524	12.8938
-38.97271	314.062	12.91333
-38.9725	321.689	12.9329
-38.9705	322.881	12.9524
-38.9679	318.831	12.9719
-38.9665	318.475	12.9915
-38.9651	326.03	13.011
-38.9629	319.552	13.0305
-38.9613	323.723	13.05
-38.9601	326.3996	13.06958
-38.9596	324.607	13.0891
-38.9559	320.645	13.1086
-38.9547	333.111	13.1282
-38.953	328.1265	13.1477
-38.9528	326.486	13.1672
-38.9512	333.431	13.1868
-38.949	332.439	13.2063
-38.9468	324.424	13.22583
-38.945	333.2211	13.2454
-38.944	333.3989	13.2649
-38.9409	331.403	13.2844
-38.9394	336.119	13.304
-38.939	338.861	13.3235
-38.9391	328.349	13.343
-38.9359	336.651	13.3625
-38.9335	341.741	13.38208
-38.9327	337.436	13.4016
-38.9301	336.666	13.4211
-38.92918	340.733	13.4407
-38.9277	337.5463	13.4602
-38.9264	340.389	13.4797
-38.9236	343.878	13.4993
-38.92215	342.513	13.5188
-38.922	341.344	13.53833
-38.9206	345.045	13.5579
-38.9179	344.862	13.5774
-38.916	340.302	13.5969
-38.9143	346.211	13.6165
-38.91378	351.038	13.636
-38.9112	348.2251	13.6555
-38.9098	345.157	13.675
-38.9082	352.278	13.69458
-38.9079	348.649	13.7141
-38.9052	349.922	13.7336
-38.9031	354.971	13.7532
-38.9016	351.622	13.7727
-38.9007	346.886	13.7922
-38.8986	358.396	13.8118
-38.8974	355.877	13.8313
-38.8954	353.469	13.85083
-38.8936	358.511	13.8704
-38.8914	361.041	13.8899
-38.89027	352.429	13.9094
-38.8885	361.067	13.929
-38.88673	362.358	13.9485
-38.88554	358.6308	13.968
-38.8839	360.227	13.9875
-38.8816	365.4614	14.00708
-38.8812	357.985	14.0266
-38.8785	361.832	14.0461
-38.8774	368.109	14.0657
-38.8753	365.3465	14.0852
-38.8737	362.681	14.1047
-38.8717	367.4306	14.1243
-38.8701	364.612	14.1438
-38.8701	365.638	14.16333
-38.8688	371.442	14.1829
-38.8649	371.709	14.2024
-38.8648	366.163	14.2219
-38.8625	369.1012	14.2415
-38.8597	372.86	14.261
-38.8594	369.694	14.2805
-38.8573	372.672	14.3
-38.8568	377.275	14.31958
-38.855	374.697	14.3391
-38.8531	370.157	14.3586
-38.8513	378.395	14.3782
-38.8508	372.591	14.3977
-38.8479	374.131	14.4172
-38.8457	382.626	14.4368
-38.8442	381.774	14.4563
-38.84404	372.211	14.47583
-38.84174	383.992	14.4954
-38.8403	384.227	14.5149
-38.8378	378.231	14.5344
-38.836	382.181	14.554
-38.8346	385.2963	14.5735
-38.83176	377.587	14.593
-38.8311	385.81	14.6125
-38.8299	386.082	14.63208
-38.8293	383.05	14.6516
-38.8264	385.654	14.6711
-38.8254	391.261	14.6907
-38.8231	383.428	14.7102
-38.8215	384.892	14.7297
-38.8192	389.201	14.7493
-38.8186	390.858	14.7688
-38.8174	385.664	14.78833
-38.8152	391.363	14.8079
-38.8135	390.3	14.8274
-38.8119	389.175	14.8469
-38.8112	393.652	14.8665
-38.8102	395.248	14.886
-38.8064	391.7699	14.9055
-38.8042	390.802	14.925
-38.804	397.388	14.94458
-38.8023	394.426	14.9641
-38.8006	393.931	14.9836
-38.7984	400.197	15.0032
-38.7977	398.583	15.0227
-38.7951	393.904	15.0422
-38.79324	401.056	15.0618
-38.7912	399.013	15.0813
-38.7914	397.0405	15.10083
-38.7888	403.905	15.1204
-38.7889	405.745	15.1399
-38.7862	394.413	15.1594
-38.7849	403.662	15.179
-38.7819	405.858	15.1985
-38.7812	401.956	15.218
-38.7802	401.463	15.2375
-38.7782	408.151	15.25708
-38.7763	398.987	15.2766
-38.7748	406.607	15.2961
-38.7728	408.951	15.3157
-38.7722	407.817	15.3352
-38.77018	403.938	15.3547
-38.7682	410.04	15.3743
-38.7666	406.14	15.3938
-38.7639	406.437	15.41333
-38.76273	409.148	15.4329
-38.7613	412.757	15.4524
-38.7595	409.468	15.4719
-38.7587	409.171	15.4915
-38.7566	411.335	15.511
-38.7557	408.204	15.5305
-38.7538	412.778	15.55
-38.7524	417.729	15.56958
-38.7509	410.566	15.5891
-38.7482	410.545	15.6086
-38.7479	416.842	15.6282
-38.7458	415.093	15.6477
-38.7443	413.535	15.6672
-38.7426	419.245	15.6868
-38.7408	419.963	15.7063
-38.73806	409.943	15.72583
-38.737	420.808	15.7454
-38.7368	420.425	15.7649
-38.734	416.824	15.7844
-38.7326	418.966	15.804
-38.7312	424.6265	15.8235
-38.7273	414.512	15.843
-38.7269	420.572	15.8625
-38.725	424.47	15.88208
-38.7245	420.337	15.9016
-38.7231	420.819	15.9211
-38.721	426.5033	15.9407
-38.7186	417.799	15.9602
-38.7174	421.639	15.9797
-38.71661	425.986	15.9993
-38.7138	424.948	16.0188
-38.7122	420.641	16.03833
-38.7114	426.1806	16.0579
-38.7094	424.807	16.0774
-38.7083	425.4	16.0969
-38.7059	425.402	16.1165
-38.7047	429.618	16.136
-38.7028	425.123	16.1555
-38.7016	425.5231	16.175
-38.6993	429.12	16.19458
-38.6984	427.152	16.2141
-38.69664	426.551	16.2336
-38.6943	431.65	16.2532
-38.6923	429.476	16.2727
-38.6909	424.626	16.2922
-38.6898	431.514	16.3118
-38.6889	430.851	16.3313
-38.6871	427.701	16.35083
-38.6851	431.7551	16.3704
-38.6835	432.358	16.3899
-38.6815	424.423	16.4094
-38.68074	431.787	16.429
-38.6786	434.612	16.4485
-38.6773	429.567	16.468
-38.6757	430.708	16.4875
-38.6736	438.497	16.50708
-38.6723	428.351	16.5266
-38.6705	431.735	16.5461
-38.6686	436.372	16.5657
-38.6673	433.809	16.5852
-38.6655	432.854	16.6047
-38.6638	436.946	16.6243
-38.6621	431.423	16.6438
-38.66153	431.308	16.66333
-38.6585	436.504	16.6829
-38.6573	437.952	16.7024
-38.6571	431.499	16.7219
-38.6547	435.131	16.7415
-38.6517	436.396	16.761
-38.6501	435.219	16.7805
-38.6499	436.1557	16.8
-38.6478	438.883	16.81958
-38.64584	435.851	16.8391
-38.644	432.816	16.8586
-38.6436	438.205	16.8782
-38.6401	436.29	16.8977
-38.6398	434.018	16.9172
-38.6382	440.539	16.9368
-38.635	440.337	16.9563
-38.6338	431.617	16.97583
-38.6331	436.885	16.9954
-38.6305	441.272	17.0149
-38.6296	436.757	17.0344
-38.6277	438.041	17.054
-38.627	442.608	17.0735
-38.6246	431.904	17.093
-38.6233	437.901	17.1125
-38.6207	441.49	17.13208
-38.61993	438.264	17.1516
-38.6183	437.298	17.1711
-38.6165	444.455	17.1907
-38.6139	434.707	17.2102
-38.61401	438.233	17.2297
-38.6121	439.764	17.2493
-38.6107	440.666	17.2688
-38.6095	436.225	17.28833
-38.6073	440.201	17.3079
-38.60516	436.521	17.3274
-38.6037	437.555	17.3469
-38.6028	438.516	17.3665
-38.6006	444.173	17.386
-38.5981	437.17	17.4055
-38.597	437.281	17.425
-38.5952	439.962	17.44458
-38.5944	439.377	17.4641
-38.5918	437.4819	17.4836
-38.5907	441.869	17.5032
-38.5881	439.656	17.5227
-38.5886	434.682	17.5422
-38.5853	441.792	17.5618
-38.5833	440.344	17.5813
-38.5825	435.767	17.60083
-38.5798	440.707	17.6204
-38.58	442.756	17.6399
-38.5777	434.242	17.6594
-38.5757	437.639	17.679
-38.5753	441.271	17.6985
-38.5723	438.643	17.718
-38.5704	440.167	17.7375
-38.5689	443.853	17.75708
-38.5685	433.332	17.7766
-38.5674	438.95	17.7961
-38.565	441.715	17.8157
-38.56419	440.413	17.8352
-38.5622	436.805	17.8547
-38.5598	442.656	17.8743
-38.5589	438.366	17.8938
-38.5558	437.203	17.91333
-38.5542	438.108	17.9329
-38.5531	442.419	17.9524
-38.5518	436.376	17.9719
-38.5513	439.144	17.9915
-38.54884	438.383	18.011
-38.5464	436.483	18.0305
-38.545	437.167	18.05
-38.5438	442.046	18.06958
-38.5405	437.84	18.0891
-38.5412	437.522	18.1086
-38.5386	438.661	18.1282
-38.5368	439.302	18.1477
-38.535	435.988	18.1672
-38.5341	440.539	18.1868
-38.532	440.879	18.2063
-38.5305	433.741	18.22583
-38.52916	437.981	18.2454
-38.52644	439.82	18.2649
-38.5262	433.563	18.2844
-38.5244	436.748	18.304
-38.5227	443.3949	18.3235
-38.5204	432.07	18.343
-38.51862	435.345	18.3625
-38.5173	440.321	18.38208
-38.51606	436.196	18.4016
-38.5148	435.065	18.4211
-38.51313	443.058	18.4407
-38.51173	432.676	18.4602
-38.5093	435.0148	18.4797
-38.5078	438.057	18.4993
-38.507	440.803	18.5188
-38.50457	433.553	18.53833
-38.5033	437.4747	18.5579
-38.5014	434.9884	18.5774
-38.50042	434.477	18.5969
-38.4972	437.131	18.6165
-38.4957	438.969	18.636
-38.4951	434.94	18.6555
-38.4927	436.871	18.675
-38.4903	436.319	18.69458
-38.4892	434.793	18.7141
-38.4881	430.75	18.7336
-38.4873	439.0856	18.7532
-38.4844	434.615	18.7727
-38.4828	430.16	18.7922
-38.4807	434.002	18.8118
-38.4789	436.948	18.8313
-38.4778	432.6	18.85083
-38.4777	436.1673	18.8704
-38.4754	438.221	18.8899
-38.4728	428.835	18.9094
-38.4723	432.665	18.929
-38.4697	438.1644	18.9485
-38.46941	431.906	18.968
-38.4661	431.149	18.9875
-38.4649	438.247	19.00708
-38.4638	430.848	19.0266
-38.4618	429.474	19.0461
-38.46051	435.31	19.0657
-38.4582	434.519	19.0852
-38.4579	430.147	19.1047
-38.455	438.877	19.1243
-38.4538	430.685	19.1438
-38.452	429.43	19.16333
-38.4497	433.026	19.1829
-38.4484	437.215	19.2024
-38.4483	429.554	19.2219
-38.4456	433.257	19.2415
-38.4451	432.134	19.261
-38.4425	431.666	19.2805
-38.4415	429.217	19.3
-38.4412	436.905	19.31958
-38.4378	429.638	19.3391
-38.4368	428.814	19.3586
-38.4345	432.432	19.3782
-38.4313	432.646	19.3977
-38.4304	426.311	19.4172
-38.4296	433.761	19.4368
-38.4285	432.683	19.4563
-38.4258	427.57	19.47583
-38.4249	427.352	19.4954
-38.4231	433.448	19.5149
-38.4219	427.047	19.5344
-38.4198	431.83	19.554
-38.4182	435.881	19.5735
-38.4169	425.438	19.593
-38.4146	426.914	19.6125
-38.4126	434.3584	19.63208
-38.4113	429.156	19.6516
-38.4091	427.749	19.6711
-38.4086	434.76	19.6907
-38.4065	427.874	19.7102
-38.4059	426.219	19.7297
-38.4029	432.849	19.7493
-38.4014	430.373	19.7688
-38.3993	424.906	19.78833
-38.3999	432.175	19.8079
-38.39716	428.613	19.8274
-38.3953	425.372	19.8469
-38.3938	427.408	19.8665
-38.3925	434.614	19.886
-38.3917	426.481	19.9055
-38.3884	430.664	19.925
-38.3868	427.898	19.94458
-38.3846	428.882	19.9641
-38.3839	425.738	19.9836
-38.3828	432.853	20.0032
-38.3818	428.8699	20.0129

Data Header:			0.254_solid_uprint_typeiv_090_r0			Time:	26.45	s	4/14/2019 1:22:49 AM
Data Acquisition:	Timed
Station Name:	ft40.cfg
Test File Name:	monotonic_0.2540_typeiv_solid_090_uprint.tst
Displacement	Force	Running Time
mm	N	s
-38.3797	427.439	20.0227
-38.3803	425.693	20.0325
-38.38	423.756	20.0422
-38.3788	427.857	20.052
-38.3777	427.834	20.0618
-38.3771	430.079	20.0715
-38.3756	431.598	20.0813
-38.3747	426.5658	20.0911
-38.3739	423.803	20.10083
-38.3737	424.674	20.1106
-38.3739	429.008	20.1204
-38.3714	432.766	20.1301
-38.3714	430.3642	20.1399
-38.3699	426.459	20.1497
-38.3691	424.564	20.1594
-38.3692	425.503	20.1692
-38.3674	424.967	20.179
-38.3664	431.667	20.1887
-38.3664	430.185	20.1985
-38.366	429.9841	20.2083
-38.3641	424.866	20.218
-38.3634	420.589	20.2278
-38.36404	426.174	20.2375
-38.3617	430.681	20.2473
-38.3614	433.664	20.25708
-38.3604	427.571	20.2668
-38.359	423.587	20.2766
-38.3574	425.2384	20.2864
-38.3568	420.741	20.2961
-38.3566	428.551	20.3059
-38.3563	431.582	20.3157
-38.3553	430.006	20.3254
-38.3553	428.137	20.3352
-38.35318	419.766	20.345
-38.3527	425.164	20.3547
-38.3513	428.429	20.3645
-38.3508	430.05	20.3743
-38.3505	429.7189	20.384
-38.3489	425.784	20.3938
-38.34948	425.8858	20.4036
-38.3478	423.3587	20.41333
-38.3467	424.351	20.4231
-38.3458	428.803	20.4329
-38.346	431.175	20.4426
-38.3452	429.014	20.4524
-38.3436	422.917	20.4622
-38.344	422.496	20.4719
-38.3423	426.199	20.4817
-38.341	427.636	20.4915
-38.3409	429.27	20.5012
-38.33884	427.808	20.511
-38.339	425.578	20.5208
-38.339	425.7699	20.5305
-38.3365	423.297	20.5403
-38.336	423.903	20.55
-38.3364	427.576	20.5598
-38.3343	431.746	20.56958
-38.3346	425.69	20.5793
-38.3333	425.231	20.5891
-38.3327	422.143	20.5989
-38.3319	426.482	20.6086
-38.3308	426.786	20.6184
-38.3293	425.879	20.6282
-38.3296	428.783	20.6379
-38.3287	427.31	20.6477
-38.3273	423.978	20.6575
-38.32655	422.322	20.6672
-38.32526	423.003	20.677
-38.3264	428.996	20.6868
-38.3255	426.877	20.6965
-38.3232	429.033	20.7063
-38.3214	424.0495	20.7161
-38.3208	422.568	20.72583
-38.321	425.1232	20.7356
-38.3222	423.885	20.7454
-38.31945	428.739	20.7551
-38.3179	429.702	20.7649
-38.31749	424.5	20.7747
-38.3172	422.358	20.7844
-38.3168	419.491	20.7942
-38.3167	426.124	20.804
-38.3146	429.569	20.8137
-38.3138	429.2041	20.8235
-38.313	424.608	20.8333
-38.3127	422.281	20.843
-38.3123	421.503	20.8528
-38.3106	421.8891	20.8625
-38.3097	426.377	20.8723
-38.3084	429.78	20.88208
-38.308	428.5592	20.8918
-38.308	422.036	20.9016
-38.3067	418.145	20.9114
-38.305	422.365	20.9211
-38.3059	425.945	20.9309
-38.3041	429.095	20.9407
-38.3036	426.702	20.9504
-38.3023	423.32	20.9602
-38.302	424.344	20.97
-38.3011	418.601	20.9797
-38.3007	425.586	20.9895
-38.2997	427.095	20.9993
-38.2995	428.566	21.009
-38.2984	427.584	21.0188
-38.2965	418.878	21.0286
-38.297	420.998	21.03833
-38.2953	424.881	21.0481
-38.2949	427.498	21.0579
-38.2935	428.261	21.0676
-38.2922	423.579	21.0774
-38.2924	424.94	21.0872
-38.28986	420.297	21.0969
-38.2905	422.319	21.1067
-38.2893	424.511	21.1165
-38.2883	426.742	21.1262
-38.2871	429.099	21.136
-38.2863	421.674	21.1458
-38.2857	421.702	21.1555
-38.2859	423.674	21.1653
-38.2845	424.86	21.175
-38.2847	424.368	21.1848
-38.2839	424.229	21.19458
-38.2831	426.128	21.2043
-38.2813	425.112	21.2141
-38.281	420.565	21.2239
-38.2796	420.861	21.2336
-38.28	425.933	21.2434
-38.2787	428.6189	21.2532
-38.2773	424.8555	21.2629
-38.2767	423.594	21.2727
-38.2763	422.367	21.2825
-38.2749	423.669	21.2922
-38.274	424.031	21.302
-38.274	422.685	21.3118
-38.2731	426.003	21.3215
-38.2727	425.819	21.3313
-38.2709	423.28	21.3411
-38.26944	419.111	21.35083
-38.2681	419.931	21.3606
-38.2681	427.536	21.3704
-38.26807	424.821	21.3801
-38.2672	428.814	21.3899
-38.2656	422.937	21.3997
-38.2654	420.8653	21.4094
-38.2632	421.473	21.4192
-38.264	420.191	21.429
-38.2621	426.377	21.4387
-38.2618	428.166	21.4485
-38.2618	425.903	21.4583
-38.26	422.032	21.468
-38.2604	416.577	21.4778
-38.2585	421.957	21.4875
-38.2575	426.6	21.4973
-38.25745	426.076	21.50708
-38.2558	424.882	21.5168
-38.2555	422.18	21.5266
-38.2548	423.278	21.5364
-38.2528	419.472	21.5461
-38.2531	424.705	21.5559
-38.2525	428.907	21.5657
-38.2504	427.423	21.5754
-38.25061	421.826	21.5852
-38.2512	418.47	21.595
-38.2497	418.133	21.6047
-38.249	425.601	21.6145
-38.247	427.212	21.6243
-38.2464	426.466	21.634
-38.2445	423.051	21.6438
-38.2441	423.403	21.6536
-38.2436	417.462	21.66333
-38.2433	422.651	21.6731
-38.2425	424.435	21.6829
-38.2417	429.265	21.6926
-38.2411	426.26	21.7024
-38.2399	417.79	21.7122
-38.2401	420.378	21.7219
-38.2388	421.995	21.7317
-38.2381	424.314	21.7415
-38.23597	425.2	21.7512
-38.2359	424.044	21.761
-38.2338	424.4827	21.7708
-38.2347	420.2558	21.7805
-38.2341	419.389	21.7903
-38.232	421.7565	21.8
-38.2307	426.049	21.8098
-38.2314	427.392	21.81958
-38.231	423.4216	21.8293
-38.23	421.51	21.8391
-38.22905	421.222	21.8489
-38.2268	420.387	21.8586
-38.2273	423.86	21.8684
-38.2255	421.621	21.8782
-38.2257	424.994	21.8879
-38.2253	425.3	21.8977
-38.2238	419.837	21.9075
-38.2222	420.228	21.9172
-38.2228	422.233	21.927
-38.2201	425.954	21.9368
-38.2209	424.8334	21.9465
-38.2188	423.445	21.9563
-38.2186	422.65	21.9661
-38.2183	420.1752	21.97583
-38.2171	420.91	21.9856
-38.2172	421.872	21.9954
-38.2152	425.561	22.0051
-38.2147	426.453	22.0149
-38.21423	424.546	22.0247
-38.2135	418.312	22.0344
-38.2122	418.697	22.0442
-38.2115	423.68	22.054
-38.2107	424.636	22.0637
-38.2104	426.832	22.0735
-38.2094	422.259	22.0833
-38.2082	419.5686	22.093
-38.2068	419.283	22.1028
-38.20639	416.593	22.1125
-38.20512	425.109	22.1223
-38.2052	425.743	22.13208
-38.2038	423.377	22.1418
-38.2031	420.986	22.1516
-38.2028	415.018	22.1614
-38.2026	420.668	22.1711
-38.2015	422.943	22.1809
-38.1994	425.946	22.1907
-38.199	425.301	22.2004
-38.1975	421.37	22.2102
-38.1982	420.479	22.22
-38.1967	415.97	22.2297
-38.19619	420.445	22.2395
-38.1956	426.312	22.2493
-38.1947	426.934	22.259
-38.1935	421.956	22.2688
-38.1924	416.099	22.2786
-38.1925	416.576	22.28833
-38.1913	420.558	22.2981
-38.1895	424.4798	22.3079
-38.1893	424.937	22.3176
-38.1895	422.244	22.3274
-38.1876	420.303	22.3372
-38.1859	414.844	22.3469
-38.1871	419.967	22.3567
-38.1857	419.976	22.3665
-38.1851	426.758	22.3762
-38.1828	423.713	22.386
-38.1824	418.097	22.3958
-38.1833	418.194	22.4055
-38.1817	418.308	22.4153
-38.1802	421.335	22.425
-38.1798	421.424	22.4348
-38.1786	423.224	22.44458
-38.1781	423.931	22.4543
-38.1766	417.828	22.4641
-38.1772	418.88	22.4739
-38.1758	418.184	22.4836
-38.1747	421.656	22.4934
-38.1737	425.338	22.5032
-38.1728	418.825	22.5129
-38.1722	420.955	22.5227
-38.1707	418.607	22.5325
-38.1707	420.278	22.5422
-38.1696	421.103	22.552
-38.17	418.99	22.5618
-38.168	424.59	22.5715
-38.1672	424.216	22.5813
-38.1672	419.787	22.5911
-38.1664	418.067	22.60083
-38.1654	417.157	22.6106
-38.1648	424.501	22.6204
-38.16349	422.282	22.6301
-38.1618	423.219	22.6399
-38.1617	420.019	22.6497
-38.1606	419.237	22.6594
-38.15942	416.402	22.6692
-38.1602	418.522	22.679
-38.1582	422.417	22.6887
-38.1578	424.775	22.6985
-38.15649	422.741	22.7083
-38.1555	417.483	22.718
-38.1559	415.316	22.7278
-38.1545	419.877	22.7375
-38.1528	420.511	22.7473
-38.1532	424.284	22.75708
-38.1516	420.962	22.7668
-38.1514	419.67	22.7766
-38.1488	416.687	22.7864
-38.1491	415.102	22.7961
-38.1496	421.215	22.8059
-38.1484	423.251	22.8157
-38.1468	424.6134	22.8254
-38.14616	418.834	22.8352
-38.1463	414.405	22.845
-38.1438	418.1745	22.8547
-38.1428	419.756	22.8645
-38.1433	423.573	22.8743
-38.142	423.49	22.884
-38.1405	420.808	22.8938
-38.1414	419.618	22.9036
-38.1405	412.428	22.91333
-38.139	418.353	22.9231
-38.1383	422.0593	22.9329
-38.1377	423.579	22.9426
-38.1359	422.739	22.9524
-38.1358	414.085	22.9622
-38.1354	416.617	22.9719
-38.1342	416.8219	22.9817
-38.1328	418.904	22.9915
-38.1317	424.009	23.0012
-38.1316	420.407	23.011
-38.1296	420.764	23.0208
-38.1301	414.429	23.0305
-38.13	415.315	23.0403
-38.1287	419.035	23.05
-38.1278	424.924	23.0598
-38.1273	422.938	23.06958
-38.1269	417.882	23.0793
-38.1254	416.52	23.0891
-38.1238	416.995	23.0989
-38.12355	416.789	23.1086
-38.1227	418.358	23.1184
-38.1211	421.351	23.1282
-38.1218	421.434	23.1379
-38.119	416.554	23.1477
-38.1197	415.717	23.1575
-38.1195	413.71	23.1672
-38.1179	417.999	23.177
-38.1166	422.736	23.1868
-38.1157	419	23.1965
-38.11533	419.937	23.2063
-38.11533	415.8465	23.2161
-38.1136	415.227	23.22583
-38.1125	417.183	23.2356
-38.1123	415.172	23.2454
-38.11	421.551	23.2551
-38.11018	421.019	23.2649
-38.11	417.213	23.2747
-38.1093	415.464	23.2844
-38.1075	412.119	23.2942
-38.1087	420.517	23.304
-38.106	417.785	23.3137
-38.1055	420.28	23.3235
-38.1047	419.895	23.3333
-38.1042	415.596	23.343
-38.1028	413.3757	23.3528
-38.1032	412.889	23.3625
-38.1012	418.458	23.3723
-38.1017	422.445	23.38208
-38.0995	419.696	23.3918
-38.0984	415.49	23.4016
-38.0978	411.806	23.4114
-38.098	415.067	23.4211
-38.0965	416.932	23.4309
-38.0965	420.486	23.4407
-38.0941	420.055	23.4504
-38.0955	416.131	23.4602
-38.0931	413.555	23.47
-38.0921	410.213	23.4797
-38.0924	415.498	23.4895
-38.09103	419.483	23.4993
-38.0903	419.633	23.509
-38.0891	416.346	23.5188
-38.0876	410.343	23.5286
-38.0873	413.028	23.53833
-38.0865	413.146	23.5481
-38.0854	417.257	23.5579
-38.0848	417.355	23.5676
-38.0854	416.117	23.5774
-38.0822	416.145	23.5872
-38.0833	407.886	23.5969
-38.0821	411.8287	23.6067
-38.0809	414.7908	23.6165
-38.0804	416.827	23.6262
-38.0797	417.908	23.636
-38.078	409.841	23.6458
-38.0774	411.734	23.6555
-38.0767	411.162	23.6653
-38.0758	411.604	23.675
-38.0746	414.562	23.6848
-38.0749	412.9841	23.69458
-38.0741	415.824	23.7043
-38.0734	408.546	23.7141
-38.0718	406.597	23.7239
-38.0716	409.2189	23.7336
-38.0698	411.5192	23.7434
-38.0696	411.751	23.7532
-38.0688	408.852	23.7629
-38.0677	406.162	23.7727
-38.06831	403.848	23.7825
-38.0634	-92.8567	23.7922
-38.0618	-60.89547	23.802
-38.0624	-31.5036	23.8118
-38.0623	-31.7663	23.8215
-38.0615	-41.6382	23.8313
-38.0615	-49.0638	23.8411
-38.0596	-47.4456	23.85083
-38.0591	-45.0423	23.8606
-38.0587	-40.7876	23.8704
-38.0587	-43.3629	23.8801
-38.05727	-40.86343	23.8899
-38.0574	-44.56765	23.8997
-38.0555	-44.3118	23.9094
-38.0545	-47.3542	23.9192
-38.0549	-45.6207	23.929
-38.0536	-38.1876	23.9387
-38.0516	-41.0769	23.9485
-38.0521	-43.1895	23.9583
-38.0519	-45.9724	23.968
-38.0507	-46.7247	23.9778
-38.0507	-42.222	23.9875
-38.0496	-43.9252	23.9973
-38.0482	-38.9976	24.00708
-38.0467	-40.5422	24.0168
-38.045	-44.0721	24.0266
-38.0457	-45.5805	24.0364
-38.0453	-48.4817	24.0461
-38.04493	-44.4602	24.0559
-38.0415	-38.1615	24.0657
-38.0422	-40.601	24.0754
-38.0416	-42.1373	24.0852
-38.04	-47.0411	24.095
-38.0405	-44.9798	24.1047
-38.0396	-46.0832	24.1145
-38.0392	-40.7229	24.1243
-38.0372	-38.3232	24.134
-38.0374	-41.2223	24.1438
-38.0356	-44.276	24.1536
-38.0353	-49.7889	24.16333
-38.0351	-47.4723	24.1731
-38.0337	-39.7047	24.1829
-38.0333	-37.3917	24.1926
-38.0319	-42.3735	24.2024
-38.0311	-46.24942	24.2122
-38.0305	-45.9534	24.2219
-38.0288	-47.1243	24.2317
-38.0291	-42.5355	24.2415
-38.02861	-40.4242	24.2512
-38.027	-39.2047	24.261
-38.0252	-42.4462	24.2708
-38.0263	-49.0027	24.2805
-38.024	-45.1732	24.2903
-38.0239	-42.9474	24.3
-38.0234	-39.4786	24.3098
-38.0222	-41.1388	24.31958
-38.0205	-44.6199	24.3293
-38.0211	-45.0877	24.3391
-38.0195	-45.7247	24.3489
-38.0194	-43.837	24.3586
-38.0163	-42.7847	24.3684
-38.0184	-41.7606	24.3782
-38.0158	-37.3719	24.3879
-38.0155	-45.4898	24.3977
-38.0154	-44.8006	24.4075
-38.0145	-46.1103	24.4172
-38.0133	-43.3117	24.427
-38.0121	-39.5801	24.4368
-38.011	-43.2254	24.4465
-38.0107	-43.6749	24.4563
-38.01	-42.1509	24.4661
-38.0091	-47.7715	24.47583
-38.0087	-46.1162	24.4856
-38.0079	-43.8644	24.4954
-38.0056	-39.9138	24.5051
-38.0065	-41.9967	24.5149
-38.0057	-44.0076	24.5247
-38.0047	-45.4798	24.5344
-38.0041	-44.8396	24.5442
-38.0032	-43.2667	24.554
-38.0022	-43.0377	24.5637
-38.0008	-39.6651	24.5735
-37.9998	-40.9586	24.5833
-37.9998	-43.712	24.593
-37.9999	-46.9598	24.6028
-37.9975	-45.5055	24.6125
-37.9972	-40.8076	24.6223
-37.99593	-39.059	24.63208
-37.9962	-40.00032	24.6418
-37.9942	-44.2377	24.6516
-37.99332	-47.0557	24.6614
-37.9941	-42.7586	24.6711
-37.9916	-47.09166	24.6809
-37.9917	-37.8776	24.6907
-37.9917	-39.7342	24.7004
-37.9898	-39.9661	24.7102
-37.9888	-45.3428	24.72
-37.98835	-49.9703	24.7297
-37.98727	-44.1723	24.7395
-37.9866	-39.2555	24.7493
-37.9847	-39.4908	24.759
-37.9845	-41.7589	24.7688
-37.9835	-48.1202	24.7786
-37.9839	-46.4635	24.78833
-37.984	-45.9783	24.7981
-37.9827	-42.5705	24.8079
-37.9816	-38.2269	24.8176
-37.9794	-39.659	24.8274
-37.9797	-43.6289	24.8372
-37.9783	-49.8961	24.8469
-37.9768	-44.523	24.8567
-37.976	-42.4208	24.8665
-37.9761	-38.7557	24.8762
-37.9751	-40.4452	24.886
-37.9743	-45.8591	24.8958
-37.97348	-45.676	24.9055
-37.9727	-44.51054	24.9153
-37.9718	-44.3796	24.925
-37.97123	-42.2226	24.9348
-37.9708	-38.5391	24.94458
-37.9688	-40.59446	24.9543
-37.9678	-47.7075	24.9641
-37.9683	-45.573	24.9739
-37.9667	-45.8604	24.9836
-37.96537	-40.4833	24.9934
-37.9646	-40.4411	25.0032
-37.9645	-43.0644	25.0129
-37.9637	-44.244	25.0227
-37.9628	-45.4156	25.0325
-37.962	-43.7416	25.0422
-37.9615	-42.9853	25.052
-37.96	-42.4437	25.0618
-37.9587	-39.1149	25.0715
-37.9576	-43.4333	25.0813
-37.95768	-44.0455	25.0911
-37.9581	-46.4198	25.10083
-37.95694	-43.0179	25.1106
-37.9552	-41.6175	25.1204
-37.9555	-42.6568	25.1301
-37.95311	-41.3725	25.1399
-37.95311	-41.8536	25.1497
-37.9525	-45.76786	25.1594
-37.9512	-46.759	25.1692
-37.9513	-45.342	25.179
-37.94878	-38.40107	25.1887
-37.949	-39.7643	25.1985
-37.9496	-42.2861	25.2083
-37.947	-45.1249	25.218
-37.946	-45.8316	25.2278
-37.9466	-41.98772	25.2375
-37.9447	-43.8011	25.2473
-37.944	-39.0696	25.25708
-37.9425	-40.1025	25.2668
-37.9427	-40.6963	25.2766
-37.942	-47.8681	25.2864
-37.94	-47.6825	25.2961
-37.9397	-42.3383	25.3059
-37.9401	-39.1198	25.3157
-37.9384	-39.4883	25.3254
-37.9384	-44.91864	25.3352
-37.937	-47.0745	25.345
-37.9354	-46.4216	25.3547
-37.9356	-46.0665	25.3645
-37.9338	-40.0059	25.3743
-37.9333	-38.7977	25.384
-37.9326	-40.435	25.3938
-37.9318	-45.0244	25.4036
-37.9313	-51.3625	25.41333
-37.9298	-45.4499	25.4231
-37.9296	-40.3097	25.4329
-37.9293	-38.4317	25.4426
-37.9273	-40.8604	25.4524
-37.9278	-44.9845	25.4622
-37.9265	-45.7776	25.4719
-37.9248	-46.992	25.4817
-37.9262	-42.08078	25.4915
-37.9245	-40.5576	25.5012
-37.92334	-40.0752	25.511
-37.9224	-41.3735	25.5208
-37.9214	-48.6864	25.5305
-37.9203	-47.1234	25.5403
-37.9198	-42.1623	25.55
-37.9178	-41.6577	25.5598
-37.9182	-39.1651	25.56958
-37.9163	-45.5843	25.5793
-37.9161	-44.45649	25.5891
-37.9165	-45.0916	25.5989
-37.9153	-45.0969	25.6086
-37.9136	-43.703	25.6184
-37.9135	-38.2251	25.6282
-37.9125	-40.0206	25.6379
-37.9122	-44.9829	25.6477
-37.9118	-46.6439	25.6575
-37.91	-44.1462	25.6672
-37.9096	-40.29348	25.677
-37.9086	-41.1728	25.6868
-37.9071	-43.1664	25.6965
-37.90715	-40.7318	25.7063
-37.9059	-44.4789	25.7161
-37.9059	-44.5902	25.72583
-37.9049	-46.6875	25.7356
-37.9042	-42.5673	25.7454
-37.9026	-38.26548	25.7551
-37.902	-44.8482	25.7649
-37.9009	-43.5566	25.7747
-37.9	-47.3494	25.7844
-37.8997	-45.1967	25.7942
-37.89893	-42.16177	25.804
-37.8975	-45.2555	25.8137
-37.8966	-38.1135	25.8235
-37.8961	-41.161	25.8333
-37.8952	-43.7032	25.843
-37.8941	-45.5316	25.8528
-37.8937	-46.8028	25.8625
-37.8942	-39.3476	25.8723
-37.8915	-40.0226	25.88208
-37.8918	-39.8855	25.8918
-37.8906	-41.86496	25.9016
-37.89	-46.9885	25.9114
-37.8895	-44.3617	25.9211
-37.8882	-44.2545	25.9309
-37.8865	-38.8568	25.9407
-37.8869	-37.6606	25.9504
-37.88615	-42.8355	25.9602
-37.8852	-45.218	25.97
-37.8845	-48.58334	25.9797
-37.8831	-42.8891	25.9895
-37.8817	-39.3132	25.9993
-37.8814	-39.4386	26.009
-37.8801	-42.9472	26.0188
-37.8796	-45.4604	26.0286
-37.8801	-45.7692	26.03833
-37.8783	-47.0809	26.0481
-37.8783	-40.38781	26.0579
-37.8769	-40.07283	26.0676
-37.87685	-38.6398	26.0774
-37.87553	-43.1092	26.0872
-37.87431	-48.8965	26.0969
-37.8729	-46.6515	26.1067
-37.8721	-42.9495	26.1165
-37.8714	-37.1296	26.1262
-37.8698	-40.94825	26.136
-37.8708	-44.2491	26.1458
-37.8686	-43.1408	26.1555
-37.8685	-47.4782	26.1653
-37.8681	-42.72953	26.175
-37.8667	-41.6315	26.1848
-37.8663	-38.95776	26.19458
-37.8652	-38.8847	26.2043
-37.8646	-48.4354	26.2141
-37.8637	-46.5526	26.2239
-37.8618	-43.5082	26.2336
-37.8616	-41.3303	26.2434
-37.8608	-40.1564	26.2532
-37.8611	-44.2646	26.2629
-37.8597	-42.5398	26.2727
-37.8592	-46.2658	26.2825
-37.8581	-46.3967	26.2922
-37.8575	-44.145	26.302
-37.8565	-41.5536	26.3118
-37.855	-38.06279	26.3215
-37.8544	-44.8911	26.3313
-37.8538	-44.9513	26.3411
-37.85318	-45.2135	26.35083
-37.8521	-43.214	26.3606
-37.8522	-44.201	26.3704
-37.8511	-41.5555	26.3801
-37.8492	-42.2598	26.3899
-37.8497	-43.3686	26.3997
-37.8484	-46.1069	26.4094
-37.8478	-47.9171	26.4192
-37.8463	-43.3621	26.429
-37.846	-39.4149	26.4387