File: data/processed_data_files/tensile/0.254_solid_dimension_typeiv_090_r(6).dat
MTS793|BTW|ENU|1|2|.|/|:|1|0|0|A

Data Header:			0.254_solid_dimension_typeiv_090_r0			Time:	20.0176	s	4/14/2019 1:49:42 AM
Data Acquisition:	Timed
Station Name:	ft40.cfg
Test File Name:	monotonic_0.2540_typeiv_solid_090_dimension.tst
Displacement	Force	Running Time
mm	N	s
-40.0415	-31.8305	0.0224609
-40.0411	-31.7129	0.0419922
-40.0405	-35.10326	0.0615234
-40.0397	-30.1605	0.0810547
-40.0386	-26.3346	0.100586
-40.0363	-29.4483	0.120117
-40.0347	-32.7241	0.139648
-40.0334	-22.2599	0.15918
-40.03146	-26.4707	0.178711
-40.0293	-27.1563	0.198242
-40.0284	-21.5554	0.217773
-40.0267	-19.9529	0.237305
-40.0256	-27.9272	0.256836
-40.0233	-17.1879	0.276367
-40.0218	-20.703	0.295898
-40.0203	-22.7295	0.31543
-40.01918	-15.3718	0.334961
-40.0172	-12.8193	0.354492
-40.0156	-19.52631	0.374023
-40.0147	-15.4363	0.393555
-40.0118	-11.372	0.413086
-40.011	-14.2866	0.432617
-40.0084	-10.487	0.452148
-40.0073	-8.59576	0.47168
-40.0052	-10.5187	0.491211
-40.0038	-11.1661	0.510742
-40.0031	-4.37245	0.530273
-39.9998	-4.76724	0.549805
-39.9987	-7.5922	0.569336
-39.9979	-3.12543	0.588867
-39.9964	-0.213218	0.608398
-39.9941	-5.59041	0.62793
-39.9922	-0.609864	0.647461
-39.9899	2.873395	0.666992
-39.9898	-0.172236	0.686523
-39.9876	-1.65429	0.706055
-39.9876	7.77734	0.725586
-39.9853	1.44965	0.745117
-39.9824	4.00043	0.764648
-39.9807	10.9627	0.78418
-39.9807	9.23477	0.803711
-39.9793	3.51593	0.823242
-39.977	13.6708	0.842773
-39.9746	11.0043	0.862305
-39.9734	9.50499	0.881836
-39.9709	15.87941	0.901367
-39.9694	16.2428	0.920898
-39.9684	11.8168	0.94043
-39.9664	18.7147	0.959961
-39.96492	19.3186	0.979492
-39.9628	15.4916	0.999023
-39.9612	20.8158	1.01855
-39.9599	23.0175	1.03809
-39.9581	18.0209	1.05762
-39.9571	20.227	1.07715
-39.9552	24.707	1.09668
-39.95348	22.896	1.11621
-39.9513	24.3163	1.13574
-39.9507	28.31	1.15527
-39.9497	29.02243	1.1748
-39.9477	23.7503	1.19434
-39.946	31.8297	1.21387
-39.9437	32.1283	1.2334
-39.9434	29.23078	1.25293
-39.9406	31.2008	1.27246
-39.9389	37.417	1.29199
-39.937	31.9927	1.31152
-39.9353	35.1259	1.33105
-39.9353	40.4918	1.35059
-39.933	37.9491	1.37012
-39.9306	35.9552	1.38965
-39.9297	43.78	1.40918
-39.9281	38.805	1.42871
-39.9263	39.2438	1.44824
-39.9242	46.1799	1.46777
-39.922	45.3563	1.4873
-39.9214	38.9128	1.50684
-39.9195	48.2828	1.52637
-39.91782	48.6402	1.5459
-39.9159	45.1665	1.56543
-39.9148	49.9942	1.58496
-39.9135	53.5961	1.60449
-39.9106	46.0547	1.62402
-39.9101	52.5342	1.64355
-39.9072	56.0118	1.66309
-39.9065	51.1954	1.68262
-39.9057	53.8275	1.70215
-39.9036	57.4026	1.72168
-39.902	55.1899	1.74121
-39.9001	55.4894	1.76074
-39.8979	60.48064	1.78027
-39.8974	60.1095	1.7998
-39.895	59.7133	1.81934
-39.8937	62.071	1.83887
-39.8925	65.1679	1.8584
-39.89027	60.63203	1.87793
-39.8889	65.99044	1.89746
-39.887	70.3672	1.91699
-39.885	67.2916	1.93652
-39.8835	62.6534	1.95605
-39.8816	74.3235	1.97559
-39.8807	67.3815	1.99512
-39.8786	69.1562	2.01465
-39.8783	75.56781	2.03418
-39.8759	74.95755	2.05371
-39.8748	69.9102	2.07324
-39.873	80.9622	2.09277
-39.8708	76.3192	2.1123
-39.8691	75.22036	2.13184
-39.8678	82.1327	2.15137
-39.8655	83.1065	2.1709
-39.86451	74.4763	2.19043
-39.8628	82.722	2.20996
-39.8614	84.5482	2.22949
-39.8591	81.254	2.24902
-39.8571	85.6025	2.26855
-39.856	87.5682	2.28809
-39.8546	82.8735	2.30762
-39.8531	85.6099	2.32715
-39.8531	92.4954	2.34668
-39.8489	88.3603	2.36621
-39.8481	89.1933	2.38574
-39.8466	93.1016	2.40527
-39.8441	94.0483	2.4248
-39.8435	89.8859	2.44434
-39.84145	94.0207	2.46387
-39.8395	97.32753	2.4834
-39.8384	95.8855	2.50293
-39.8371	96.3203	2.52246
-39.8355	101.522	2.54199
-39.8329	96.6328	2.56152
-39.8316	100.885	2.58105
-39.83	105.483	2.60059
-39.8279	103.663	2.62012
-39.8262	98.8646	2.63965
-39.82497	109.93	2.65918
-39.8235	105.896	2.67871
-39.8222	105.639	2.69824
-39.8194	110.469	2.71777
-39.82	110.6	2.7373
-39.81609	105.478	2.75684
-39.8148	114.912	2.77637
-39.8133	114.154	2.7959
-39.81234	109.345	2.81543
-39.8106	115.091	2.83496
-39.8085	119.095	2.85449
-39.8073	111.763	2.87402
-39.8056	115.874	2.89355
-39.8037	121.453	2.91309
-39.8027	118.878	2.93262
-39.8009	119.7551	2.95215
-39.7988	121.621	2.97168
-39.7972	120.403	2.99121
-39.7957	121.506	3.01074
-39.7934	127.106	3.03027
-39.7933	124.892	3.0498
-39.7903	123.3374	3.06934
-39.7902	126.433	3.08887
-39.7881	132.746	3.1084
-39.7862	125.713	3.12793
-39.7851	130.3922	3.14746
-39.7822	134.4034	3.16699
-39.782	131.881	3.18652
-39.7784	130.116	3.20605
-39.7769	139.051	3.22559
-39.7762	132.874	3.24512
-39.7746	135.565	3.26465
-39.7727	141.31	3.28418
-39.771	140.143	3.30371
-39.7692	134.387	3.32324
-39.7688	144.739	3.34277
-39.7669	142.925	3.3623
-39.7651	141.367	3.38184
-39.7626	145.823	3.40137
-39.7622	147.212	3.4209
-39.7596	141.339	3.44043
-39.7582	148.517	3.45996
-39.75737	148.533	3.47949
-39.755	143.047	3.49902
-39.7544	148.8557	3.51855
-39.7522	153.791	3.53809
-39.75153	147.996	3.55762
-39.7484	150.631	3.57715
-39.7464	154.34	3.59668
-39.7459	153.508	3.61621
-39.7437	154.217	3.63574
-39.742	156.1311	3.65527
-39.7403	156.351	3.6748
-39.7394	156.377	3.69434
-39.7367	160.459	3.71387
-39.7356	162.183	3.7334
-39.7331	158.528	3.75293
-39.7318	160.043	3.77246
-39.7301	167.487	3.79199
-39.7283	161.389	3.81152
-39.7284	163.715	3.83105
-39.7252	168.764	3.85059
-39.7239	167.995	3.87012
-39.723	162.961	3.88965
-39.71994	172.769	3.90918
-39.7193	167.552	3.92871
-39.7183	167.575	3.94824
-39.7165	174.031	3.96777
-39.7148	175.221	3.9873
-39.7123	168.467	4.00684
-39.7119	176.683	4.02637
-39.7095	177.163	4.0459
-39.7078	172.848	4.06543
-39.7063	176.808	4.08496
-39.7052	181.789	4.10449
-39.7028	174.812	4.12402
-39.7012	181.45	4.14355
-39.7	184.492	4.16309
-39.6984	178.649	4.18262
-39.6968	181.354	4.20215
-39.6948	187.895	4.22168
-39.6925	184.375	4.24121
-39.6916	181.774	4.26074
-39.6911	189.096	4.28027
-39.6883	189.178	4.2998
-39.6869	189.1	4.31934
-39.6858	190.358	4.33887
-39.6835	192.533	4.3584
-39.6822	187.93	4.37793
-39.6809	193.9951	4.39746
-39.679	197.014	4.41699
-39.6781	193.513	4.43652
-39.67527	191.062	4.45605
-39.6739	200.6868	4.47559
-39.6732	196.554	4.49512
-39.6723	196.413	4.51465
-39.6694	201.3	4.53418
-39.6674	202.79	4.55371
-39.6663	197.998	4.57324
-39.6638	207.401	4.59277
-39.6618	202.845	4.6123
-39.6602	200.918	4.63184
-39.6596	207.4104	4.65137
-39.6576	209.684	4.6709
-39.6567	202.714	4.69043
-39.6547	211.221	4.70996
-39.6533	212.168	4.72949
-39.6508	207.862	4.74902
-39.6493	211.124	4.76855
-39.6487	213.786	4.78809
-39.646	210.154	4.80762
-39.6434	212.568	4.82715
-39.6431	217.874	4.84668
-39.6425	214.369	4.86621
-39.6405	214.048	4.88574
-39.6383	220.07	4.90527
-39.6362	221.37	4.9248
-39.6356	216.477	4.94434
-39.6328	221.044	4.96387
-39.6319	222.614	4.9834
-39.62928	221.886	5.00293
-39.6274	222.99	5.02246
-39.6268	228.242	5.04199
-39.62455	223.042	5.06152
-39.6227	225.895	5.08105
-39.6202	231.549	5.10059
-39.6197	227.521	5.12012
-39.619	223.7218	5.13965
-39.6165	236.412	5.15918
-39.6147	231.15	5.17871
-39.6128	228.481	5.19824
-39.6119	235.617	5.21777
-39.61026	234.398	5.2373
-39.6095	228.056	5.25684
-39.6061	238.95	5.27637
-39.6051	237.4597	5.2959
-39.60437	235.296	5.31543
-39.6022	239.9895	5.33496
-39.6009	244.081	5.35449
-39.5981	237.521	5.37402
-39.5972	241.199	5.39355
-39.59594	245.675	5.41309
-39.59478	241.77	5.43262
-39.5929	242.723	5.45215
-39.5913	248.223	5.47168
-39.589	244.8528	5.49121
-39.5866	245.6823	5.51074
-39.5867	250.673	5.53027
-39.5837	248.884	5.5498
-39.5834	248.804	5.56934
-39.5804	249.5907	5.58887
-39.5797	256.842	5.6084
-39.578	249.232	5.62793
-39.5753	254.129	5.64746
-39.57399	258.41	5.66699
-39.57309	255.822	5.68652
-39.5712	253.486	5.70605
-39.5695	262.052	5.72559
-39.5672	255.7672	5.74512
-39.5666	257	5.76465
-39.5644	264.71	5.78418
-39.563	263.444	5.80371
-39.5624	256.28	5.82324
-39.5601	268.239	5.84277
-39.5592	265.3992	5.8623
-39.5565	260.702	5.88184
-39.5542	268.3533	5.90137
-39.5537	270.434	5.9209
-39.5524	261.968	5.94043
-39.5515	270.855	5.95996
-39.5489	272.56	5.97949
-39.5464	266.793	5.99902
-39.5452	271.523	6.01855
-39.5448	276.129	6.03809
-39.5417	270.502	6.05762
-39.5405	271.66	6.07715
-39.5383	278.368	6.09668
-39.5375	276.238	6.11621
-39.5364	276.492	6.13574
-39.5343	279.955	6.15527
-39.5313	279.408	6.1748
-39.53	278.099	6.19434
-39.5296	284.03	6.21387
-39.5276	283.602	6.2334
-39.5249	279.799	6.25293
-39.5258	281.935	6.27246
-39.5232	289.269	6.29199
-39.5208	283.327	6.31152
-39.5195	285.62	6.33105
-39.5164	289.086	6.35059
-39.5162	289.942	6.37012
-39.515	284.457	6.38965
-39.5118	294.612	6.40918
-39.5113	289.355	6.42871
-39.5098	288.623	6.44824
-39.50769	297.545	6.46777
-39.507	295.454	6.4873
-39.5036	288.358	6.50684
-39.5032	297.525	6.52637
-39.5017	297.542	6.5459
-39.5003	293.397	6.56543
-39.4973	298.96	6.58496
-39.4953	301.944	6.60449
-39.4947	295.747	6.62402
-39.4935	300.246	6.64355
-39.49147	303.4877	6.66309
-39.48946	299.669	6.68262
-39.4893	303.634	6.70215
-39.4873	306.806	6.72168
-39.4848	302.867	6.74121
-39.48315	302.427	6.76074
-39.4827	308.384	6.78027
-39.4794	309.4696	6.7998
-39.4786	308.758	6.81934
-39.477	308.843	6.83887
-39.4756	312.3186	6.8584
-39.4729	307.024	6.87793
-39.471	314.208	6.89746
-39.47	317.235	6.91699
-39.4693	312.099	6.93652
-39.4667	310.189	6.95605
-39.4656	320.319	6.97559
-39.4649	313.729	6.99512
-39.4629	314.429	7.01465
-39.4595	321.978	7.03418
-39.4597	320.582	7.05371
-39.4581	314.576	7.07324
-39.4558	324.088	7.09277
-39.4541	320.648	7.1123
-39.4541	317.925	7.13184
-39.4511	325.605	7.15137
-39.44957	327.548	7.1709
-39.4472	317.963	7.19043
-39.4462	326.864	7.20996
-39.4441	328.933	7.22949
-39.4425	324.944	7.24902
-39.4413	328.115	7.26855
-39.4387	330.045	7.28809
-39.438	327.427	7.30762
-39.4363	328.575	7.32715
-39.43428	333.662	7.34668
-39.4337	330.702	7.36621
-39.4319	331.23	7.38574
-39.4291	334.001	7.40527
-39.4285	336.141	7.4248
-39.42609	332.852	7.44434
-39.4256	336.864	7.46387
-39.4225	338.774	7.4834
-39.4216	337.577	7.50293
-39.4189	336.686	7.52246
-39.4183	343.678	7.54199
-39.4166	336.626	7.56152
-39.4161	341.185	7.58105
-39.4135	346.7453	7.60059
-39.4126	343.193	7.62012
-39.4102	336.65	7.63965
-39.4085	349.146	7.65918
-39.408	344.765	7.67871
-39.4043	344.684	7.69824
-39.404	350.147	7.71777
-39.4021	351.56	7.7373
-39.40052	342.939	7.75684
-39.3985	351.917	7.77637
-39.3969	351.972	7.7959
-39.3947	347.071	7.81543
-39.3936	353.379	7.83496
-39.3928	355.735	7.85449
-39.3909	346.9473	7.87402
-39.3891	352.355	7.89355
-39.3871	357.31	7.91309
-39.3857	353.912	7.93262
-39.3846	355.378	7.95215
-39.3818	360.982	7.97168
-39.3807	358.286	7.99121
-39.379	357.062	8.01074
-39.3768	363.947	8.03027
-39.3751	360.845	8.0498
-39.3756	360.898	8.06934
-39.373	362.593	8.08887
-39.372	367.961	8.1084
-39.3701	359.673	8.12793
-39.3687	364.646	8.14746
-39.3659	369.1	8.16699
-39.3647	365.752	8.18652
-39.3631	364.482	8.20605
-39.3612	372.552	8.22559
-39.3598	364.72	8.24512
-39.358	369.189	8.26465
-39.3559	375.2081	8.28418
-39.355	372.301	8.30371
-39.3537	365.328	8.32324
-39.3521	376.634	8.34277
-39.3508	375.595	8.3623
-39.3491	370.303	8.38184
-39.3469	376.119	8.40137
-39.3453	378.811	8.4209
-39.34346	371.578	8.44043
-39.3415	378.703	8.45996
-39.3401	380.498	8.47949
-39.3387	375.752	8.49902
-39.3374	379.783	8.51855
-39.3347	383.638	8.53809
-39.3331	378.4	8.55762
-39.3321	378.648	8.57715
-39.3312	387.512	8.59668
-39.3293	383.399	8.61621
-39.3278	383.172	8.63574
-39.3247	384.462	8.65527
-39.3248	384.802	8.6748
-39.3226	382.743	8.69434
-39.3211	389.111	8.71387
-39.319	388.725	8.7334
-39.3178	385.695	8.75293
-39.3157	386.927	8.77246
-39.3142	395.225	8.79199
-39.312	388.655	8.81152
-39.3117	390.155	8.83105
-39.3094	396.72	8.85059
-39.3074	393.572	8.87012
-39.3062	388.296	8.88965
-39.3045	400.372	8.90918
-39.30341	392.883	8.92871
-39.3011	392.429	8.94824
-39.2994	399.819	8.96777
-39.2983	400.022	8.9873
-39.2958	390.934	9.00684
-39.295	401.387	9.02637
-39.2929	401.107	9.0459
-39.292	397.263	9.06543
-39.29052	401.7034	9.08496
-39.2885	404.625	9.10449
-39.2864	397.596	9.12402
-39.285	401.48	9.14355
-39.2831	406.992	9.16309
-39.2816	400.855	9.18262
-39.2803	402.939	9.20215
-39.2779	407.296	9.22168
-39.2777	403.901	9.24121
-39.276	402.88	9.26074
-39.2734	409.511	9.28027
-39.2716	409.709	9.2998
-39.2699	407.915	9.31934
-39.2689	408.701	9.33887
-39.267	412.047	9.3584
-39.2668	406.724	9.37793
-39.2642	413.125	9.39746
-39.2619	413.992	9.41699
-39.2603	411.431	9.43652
-39.2579	410.7507	9.45605
-39.2577	420.2471	9.47559
-39.256	412.932	9.49512
-39.2539	412.922	9.51465
-39.2524	420.385	9.53418
-39.2501	418.196	9.55371
-39.2506	411.2941	9.57324
-39.248	421.658	9.59277
-39.2462	416.803	9.6123
-39.2438	414.54	9.63184
-39.2438	423.278	9.65137
-39.2415	422.6998	9.6709
-39.2383	414.436	9.69043
-39.2375	422.543	9.70996
-39.2366	424.51	9.72949
-39.2332	418.737	9.74902
-39.2329	422.648	9.76855
-39.2306	426.649	9.78809
-39.2292	421.987	9.80762
-39.2287	421.668	9.82715
-39.226	429.124	9.84668
-39.2247	423.65	9.86621
-39.222	424.987	9.88574
-39.22224	428.118	9.90527
-39.2199	429.118	9.9248
-39.21841	423.752	9.94434
-39.2163	430.8038	9.96387
-39.2154	431.949	9.9834
-39.2138	429.416	10.00293
-39.21254	427.035	10.0225
-39.2097	433.819	10.042
-39.2089	426.923	10.0615
-39.2063	431.476	10.0811
-39.2046	435.1	10.1006
-39.2042	431.561	10.1201
-39.2022	428.633	10.1396
-39.20158	439.229	10.15918
-39.1995	431.372	10.1787
-39.19735	430.79	10.1982
-39.1959	438.6218	10.2178
-39.1942	437.647	10.2373
-39.1911	429.6521	10.2568
-39.1909	438.867	10.2764
-39.1894	439.694	10.2959
-39.1876	433.873	10.31543
-39.1859	440.685	10.335
-39.1838	439.982	10.3545
-39.1831	433.553	10.374
-39.1814	437.399	10.3936
-39.1802	443.002	10.4131
-39.1776	438.346	10.4326
-39.1764	437.889	10.4521
-39.1742	441.214	10.47168
-39.1731	439.551	10.4912
-39.1716	438.1756	10.5107
-39.1682	445.182	10.5303
-39.1673	442.459	10.5498
-39.1673	440.817	10.5693
-39.1646	443.356	10.5889
-39.1624	448.273	10.6084
-39.162	438.137	10.62793
-39.1583	443.823	10.6475
-39.1587	447.944	10.667
-39.1563	444.779	10.6865
-39.1556	440.772	10.7061
-39.1528	450.286	10.7256
-39.1512	442.422	10.7451
-39.1489	443.987	10.7646
-39.1484	451.136	10.78418
-39.1468	447.155	10.8037
-39.1451	440.674	10.8232
-39.1437	451.816	10.8428
-39.1423	447.468	10.8623
-39.1397	442.347	10.8818
-39.1376	450.693	10.9014
-39.1377	450.446	10.9209
-39.1363	443.679	10.94043
-39.1345	451.417	10.96
-39.132	450.998	10.9795
-39.1312	445.414	10.999
-39.1296	449.681	11.0186
-39.12756	452.835	11.0381
-39.1257	446.823	11.0576
-39.1239	446.812	11.0771
-39.1225	453.694	11.09668
-39.1201	450.347	11.1162
-39.1196	449.736	11.1357
-39.11694	450.982	11.1553
-39.1155	452.765	11.1748
-39.1135	447.032	11.1943
-39.112	454.135	11.2139
-39.1103	454.146	11.2334
-39.1095	449.861	11.25293
-39.1081	450.089	11.2725
-39.1074	457.105	11.292
-39.1059	447.717	11.3115
-39.102	450.725	11.3311
-39.10199	455.505	11.3506
-39.099	451.737	11.3701
-39.0984	446.9671	11.3896
-39.0951	456.217	11.40918
-39.0949	451.968	11.4287
-39.0942	449.875	11.4482
-39.0919	457.15	11.4678
-39.0898	454.422	11.4873
-39.0882	447.63	11.5068
-39.0867	456.495	11.5264
-39.0841	455.593	11.5459
-39.0829	448.746	11.56543
-39.0822	455.544	11.585
-39.0801	457.601	11.6045
-39.0783	451.427	11.624
-39.0773	452.595	11.6436
-39.0759	456.617	11.6631
-39.0729	451.618	11.6826
-39.0727	453.423	11.7021
-39.0705	457.377	11.72168
-39.0693	453.633	11.7412
-39.0674	449.612	11.7607
-39.065	457.905	11.7803
-39.0638	456.079	11.7998
-39.0631	452.9686	11.8193
-39.0607	453.892	11.8389
-39.059	456.7438	11.8584
-39.05711	450.642	11.87793
-39.0562	456.64	11.8975
-39.0536	457.5896	11.917
-39.0525	451.326	11.9365
-39.0509	451.859	11.9561
-39.0488	458.722	11.9756
-39.04697	451.408	11.9951
-39.0451	452.168	12.0146
-39.0454	459.721	12.03418
-39.0429	455.1687	12.0537
-39.0414	449.6402	12.0732
-39.03878	458.416	12.0928
-39.0379	453.591	12.1123
-39.0363	451.705	12.1318
-39.0355	458.593	12.1514
-39.033	456.687	12.1709
-39.0315	448.082	12.19043
-39.0293	454.366	12.21
-39.028	456.795	12.2295
-39.0268	451.072	12.249
-39.0246	453.118	12.2686
-39.0235	455.466	12.2881
-39.0204	452.965	12.3076
-39.0198	451.0686	12.3271
-39.0186	457.08	12.34668
-39.0168	452.877	12.3662
-39.0158	452.105	12.3857
-39.01376	454.35	12.4053
-39.012	455.647	12.4248
-39.01033	447.829	12.4443
-39.0082	454.974	12.4639
-39.0067	457.623	12.4834
-39.0047	451.339	12.50293
-39.0028	449.452	12.5225
-39.0017	456.88	12.542
-39.0006	448.278	12.5615
-38.9991	451.977	12.5811
-38.9974	455.969	12.6006
-38.9955	450.683	12.6201
-38.994	447.5325	12.6396
-38.99155	456.803	12.65918
-38.9901	450.45	12.6787
-38.9898	447.878	12.6982
-38.988	455.451	12.7178
-38.9855	453.46	12.7373
-38.98325	444.254	12.7568
-38.9816	451.849	12.7764
-38.9805	451.533	12.7959
-38.9797	446.457	12.81543
-38.9771	454.111	12.835
-38.9766	451.411	12.8545
-38.975	445.984	12.874
-38.9726	448.632	12.8936
-38.9714	454.995	12.9131
-38.9701	448.118	12.9326
-38.9672	448.888	12.9521
-38.9662	451.369	12.97168
-38.9653	450.885	12.9912
-38.9628	446.668	13.0107
-38.9612	451.775	13.0303
-38.9601	448.901	13.0498
-38.9589	448.548	13.0693
-38.9555	448.742	13.0889
-38.955	452.671	13.1084
-38.9525	442.878	13.12793
-38.9523	449.164	13.1475
-38.95002	452.658	13.167
-38.948	447.026	13.1865
-38.9472	444.466	13.2061
-38.94508	451.945	13.2256
-38.9444	446.801	13.2451
-38.9421	445.104	13.2646
-38.9395	452	13.28418
-38.9387	448.203	13.3037
-38.937	441.402	13.3232
-38.9352	451.226	13.3428
-38.9346	449.521	13.3623
-38.9324	440.981	13.3818
-38.9315	449.622	13.4014
-38.929	449.111	13.4209
-38.9274	442.724	13.44043
-38.9248	445.653	13.46
-38.9252	448.64	13.4795
-38.9218	442.483	13.499
-38.9216	445.952	13.5186
-38.9202	446.506	13.5381
-38.9174	444.706	13.5576
-38.9149	441.88	13.5771
-38.9144	450.924	13.59668
-38.9118	445.713	13.6162
-38.9108	444.075	13.6357
-38.9095	444.039	13.6553
-38.9071	448.436	13.6748
-38.9066	440.654	13.6943
-38.9051	446.986	13.7139
-38.9032	446.785	13.7334
-38.9017	442.353	13.75293
-38.8985	443.872	13.7725
-38.8984	448.645	13.792
-38.8962	441.178	13.8115
-38.8936	443.958	13.8311
-38.8926	450.859	13.8506
-38.8909	444.28	13.8701
-38.8897	439.709	13.8896
-38.888	449.198	13.90918
-38.8874	442.192	13.9287
-38.8849	442.684	13.9482
-38.8841	447.276	13.9678
-38.8811	442.655	13.9873
-38.879	438.423	14.0068
-38.8792	446.296	14.0264
-38.876	445.829	14.0459
-38.8749	437.3717	14.06543
-38.8735	444.616	14.085
-38.8711	443.592	14.1045
-38.8708	440.679	14.124
-38.8697	440.962	14.1436
-38.8679	445.626	14.1631
-38.8657	440.219	14.1826
-38.8642	442.286	14.2021
-38.8633	442.552	14.22168
-38.8601	443.2132	14.2412
-38.8586	436.653	14.2607
-38.857	444.933	14.2803
-38.8565	444.24	14.2998
-38.85424	438.672	14.3193
-38.8527	440.85	14.3389
-38.8509	446.026	14.3584
-38.8492	436.374	14.37793
-38.8466	442.294	14.3975
-38.8463	444.192	14.417
-38.8437	438.358	14.4365
-38.84185	437.122	14.4561
-38.8413	445.7186	14.4756
-38.839	439.03	14.4951
-38.8373	438.2	14.5146
-38.83466	446.648	14.53418
-38.8344	439.848	14.5537
-38.8328	436.081	14.5732
-38.8305	443.075	14.5928
-38.8298	441.534	14.6123
-38.8281	436.416	14.6318
-38.8266	442.546	14.6514
-38.8243	440.493	14.6709
-38.8233	434.729	14.69043
-38.821	440.321	14.71
-38.8197	443.999	14.7295
-38.81678	434.329	14.749
-38.8176	440.245	14.7686
-38.814	440.1246	14.7881
-38.814	440.873	14.8076
-38.81208	436.4201	14.8271
-38.8096	441.953	14.84668
-38.80822	438.847	14.8662
-38.8062	437.529	14.8857
-38.8057	437.931	14.9053
-38.8034	440.009	14.9248
-38.8032	433.944	14.9443
-38.8008	441.1015	14.9639
-38.7996	441.777	14.9834
-38.7975	437.274	15.00293
-38.7951	435.4621	15.0225
-38.7934	443.692	15.042
-38.792	437.022	15.0615
-38.79068	436.721	15.0811
-38.7884	442.643	15.1006
-38.788	435.3226	15.1201
-38.7857	434.387	15.1396
-38.7839	443.455	15.15918
-38.7832	437.1265	15.1787
-38.7805	433.277	15.1982
-38.77985	441.592	15.2178
-38.7783	439.063	15.2373
-38.7753	432.551	15.2568
-38.7745	440.108	15.2764
-38.7732	439.706	15.2959
-38.7716	433.588	15.31543
-38.7691	440.18	15.335
-38.7684	438.823	15.3545
-38.7664	435.671	15.374
-38.7646	436.298	15.3936
-38.76223	442.219	15.4131
-38.762	436.547	15.4326
-38.7607	436.047	15.4521
-38.7575	438.534	15.47168
-38.7567	440.152	15.4912
-38.7553	431.991	15.5107
-38.7534	440.5329	15.5303
-38.7506	437.801	15.5498
-38.749	435.745	15.5693
-38.7474	435.658	15.5889
-38.7471	439.639	15.6084
-38.7453	431.005	15.62793
-38.7434	437.41	15.6475
-38.7412	442.301	15.667
-38.7407	435.22	15.6865
-38.7391	432.121	15.7061
-38.7367	441.167	15.7256
-38.7348	435.057	15.7451
-38.7342	433.07	15.7646
-38.7311	440.918	15.78418
-38.7294	435.273	15.8037
-38.72879	431.749	15.8232
-38.72781	439.622	15.8428
-38.7251	437.786	15.8623
-38.7239	430.518	15.8818
-38.7223	439.968	15.9014
-38.72002	437.78	15.9209
-38.7191	432.643	15.94043
-38.7171	434.88	15.96
-38.7146	440.029	15.9795
-38.7144	433.534	15.999
-38.7125	437.23	16.0186
-38.7102	435.57	16.0381
-38.70924	435.673	16.0576
-38.7074	430.812	16.0771
-38.7058	438.984	16.09668
-38.7049	435.2663	16.1162
-38.7028	433.241	16.1357
-38.7009	436.368	16.1553
-38.6996	439.525	16.1748
-38.6985	430.047	16.1943
-38.69696	437.817	16.2139
-38.69479	438.333	16.2334
-38.6922	433.339	16.25293
-38.6917	433.162	16.2725
-38.6905	439.725	16.292
-38.6884	431.3541	16.3115
-38.6867	432.984	16.3311
-38.6846	440.708	16.3506
-38.6832	432.713	16.3701
-38.68166	430.43	16.3896
-38.6791	438.332	16.40918
-38.678	434.702	16.4287
-38.6762	429.736	16.4482
-38.67482	438.321	16.4678
-38.6741	435.221	16.4873
-38.6712	431.0451	16.5068
-38.6706	435.688	16.5264
-38.6699	436.422	16.5459
-38.6673	429.418	16.56543
-38.6667	435.861	16.585
-38.6645	435.801	16.6045
-38.662	432.9007	16.624
-38.6613	429.985	16.6436
-38.65876	438.668	16.6631
-38.6572	434.423	16.6826
-38.6547	434.805	16.7021
-38.6537	435.978	16.72168
-38.6517	437.314	16.7412
-38.65123	429.544	16.7607
-38.6496	438.215	16.7803
-38.6486	436.206	16.7998
-38.646	431.692	16.8193
-38.6428	433.189	16.8389
-38.6438	438.048	16.8584
-38.6412	429.375	16.87793
-38.6397	432.228	16.8975
-38.6374	437.599	16.917
-38.636	431.835	16.9365
-38.6343	430.883	16.9561
-38.6325	437.671	16.9756
-38.6314	432.218	16.9951
-38.6299	430.628	17.0146
-38.6278	439.533	17.03418
-38.6265	432.703	17.0537
-38.62484	428.505	17.0732
-38.6237	436.418	17.0928
-38.6208	436.463	17.1123
-38.6189	429.999	17.1318
-38.6185	436.645	17.1514
-38.6158	434.718	17.1709
-38.61507	431.594	17.19043
-38.6127	432.533	17.21
-38.6104	436.233	17.2295
-38.6093	430.585	17.249
-38.6076	432.877	17.2686
-38.6077	433.955	17.2881
-38.6046	433.876	17.3076
-38.6037	429.193	17.3271
-38.6016	436.9679	17.34668
-38.6	435.068	17.3662
-38.5976	431.462	17.3857
-38.5978	431.2124	17.4053
-38.5955	434.84	17.4248
-38.5935	428.5809	17.4443
-38.593	435.176	17.4639
-38.5909	436.028	17.4834
-38.5892	429.3591	17.50293
-38.5867	429.887	17.5225
-38.5841	437.32	17.542
-38.5847	431.459	17.5615
-38.5832	431.356	17.5811
-38.5812	437.421	17.6006
-38.5797	430.443	17.6201
-38.5771	430.428	17.6396
-38.5751	435.776	17.65918
-38.5743	432.833	17.6787
-38.5734	430.88	17.6982
-38.5702	437.718	17.7178
-38.5696	431.7421	17.7373
-38.5674	429.857	17.7568
-38.5658	432.252	17.7764
-38.5646	436.99	17.7959
-38.5636	429.8606	17.81543
-38.5607	434.502	17.835
-38.5589	432.3858	17.8545
-38.5579	432.513	17.874
-38.5564	430.463	17.8936
-38.5549	436.143	17.9131
-38.5526	429.807	17.9326
-38.5518	430.5	17.9521
-38.5494	434.311	17.97168
-38.5485	432.806	17.9912
-38.5466	427.323	18.0107
-38.5443	435.1799	18.0303
-38.5437	434.797	18.0498
-38.5422	430.035	18.0693
-38.5388	431.297	18.0889
-38.5385	435.666	18.1084
-38.53722	429.196	18.12793
-38.535	432.896	18.1475
-38.5333	436.81	18.167
-38.53223	427.83	18.1865
-38.5298	429.9	18.2061
-38.5281	438.227	18.2256
-38.527	429.592	18.2451
-38.5247	429.452	18.2646
-38.5239	436.676	18.28418
-38.5213	429.951	18.3037
-38.5203	428.399	18.3232
-38.5183	435.307	18.3428
-38.5168	433.515	18.3623
-38.515	428.2005	18.3818
-38.5137	436.243	18.4014
-38.5116	432.881	18.4209
-38.5118	429.9512	18.44043
-38.5098	432.014	18.46
-38.5072	436.046	18.4795
-38.50486	430.378	18.499
-38.504	432.496	18.5186
-38.5026	431.679	18.5381
-38.5014	432.706	18.5576
-38.4992	428.809	18.5771
-38.4979	435.161	18.59668
-38.49572	431.153	18.6162
-38.4936	429.4754	18.6357
-38.4933	433.434	18.6553
-38.4915	435.645	18.6748
-38.4902	427.508	18.6943
-38.4876	432.9	18.7139
-38.4856	435.559	18.7334
-38.4845	428.687	18.75293
-38.4829	429.697	18.7725
-38.48148	434.252	18.792
-38.479	429.807	18.8115
-38.4773	429.946	18.8311
-38.4763	437.876	18.8506
-38.4752	429	18.8701
-38.4747	429.046	18.8896
-38.472	434.601	18.90918
-38.4697	432.6	18.9287
-38.4686	428.771	18.9482
-38.4668	435.6499	18.9678
-38.4656	430.737	18.9873
-38.4633	429.778	19.0068
-38.4614	432.747	19.0264
-38.4601	433.642	19.0459
-38.458	429.486	19.06543
-38.4567	433.882	19.085
-38.4551	433.615	19.1045
-38.4539	431.072	19.124
-38.45174	428.077	19.1436
-38.4496	436.307	19.1631
-38.4486	432.006	19.1826
-38.44772	430.311	19.2021
-38.4454	431.305	19.22168
-38.4431	432.135	19.2412
-38.4422	427.785	19.2607
-38.4414	432.966	19.2803
-38.4386	433.026	19.2998
-38.43803	428.604	19.3193
-38.4362	430.539	19.3389
-38.4333	434.136	19.3584
-38.4324	427	19.37793
-38.4315	429.549	19.3975
-38.4281	436.614	19.417
-38.42823	427.728	19.4365
-38.4256	428.477	19.4561
-38.4236	432.722	19.4756
-38.423	428.3	19.4951
-38.4211	428.125	19.5146
-38.4193	435.614	19.53418
-38.4187	428.053	19.5537
-38.4159	428.227	19.5732
-38.4155	431.997	19.5928
-38.4146	433.3	19.6123
-38.41037	427.497	19.6318
-38.4102	432.432	19.6514
-38.4088	430.186	19.6709
-38.4062	431.124	19.69043
-38.4047	430.849	19.71
-38.4039	434.749	19.7295
-38.4016	428.149	19.749
-38.4	430.5206	19.7686
-38.39687	431.326	19.7881
-38.3968	429.88	19.8076
-38.3943	424.837	19.8271
-38.3926	434.726	19.84668
-38.3926	431.304	19.8662
-38.3901	427.996	19.8857
-38.3886	431.159	19.9053
-38.3877	432.68	19.9248
-38.3857	426.298	19.9443
-38.3834	430.868	19.9639
-38.3809	433.567	19.9834
-38.3801	424.461	20.00293
-38.3797	426.781	20.0127

Data Header:			0.254_solid_dimension_typeiv_090_r0			Time:	26.731	s	4/14/2019 1:49:48 AM
Data Acquisition:	Timed
Station Name:	ft40.cfg
Test File Name:	monotonic_0.2540_typeiv_solid_090_dimension.tst
Displacement	Force	Running Time
mm	N	s
-38.3786	430.564	20.0225
-38.377	432.513	20.0322
-38.3779	433.473	20.042
-38.3774	431.259	20.0518
-38.3756	426.724	20.0615
-38.376	423.739	20.0713
-38.3736	427.983	20.0811
-38.373	433.092	20.09082
-38.3718	434.54	20.1006
-38.3703	430.275	20.1104
-38.3702	426.486	20.1201
-38.3687	425.354	20.1299
-38.3685	427.257	20.1396
-38.3673	431.233	20.1494
-38.36842	430.793	20.15918
-38.3663	433.5593	20.1689
-38.3659	429.711	20.1787
-38.3654	425.741	20.1885
-38.3646	426.855	20.1982
-38.3633	429.791	20.208
-38.362	435.33	20.2178
-38.362	432.0603	20.2275
-38.3616	428.303	20.2373
-38.35981	427.567	20.24707
-38.3587	426.922	20.2568
-38.3586	429.031	20.2666
-38.3574	429.42	20.2764
-38.357	431.959	20.2861
-38.3554	433.51	20.2959
-38.3553	426.665	20.3057
-38.3538	425.658	20.31543
-38.3539	426.532	20.3252
-38.3538	429.875	20.335
-38.3504	433.191	20.3447
-38.3518	430.395	20.3545
-38.3502	429.209	20.3643
-38.3492	429.042	20.374
-38.3485	426.202	20.3838
-38.3475	427.962	20.3936
-38.34705	428.6077	20.40332
-38.3466	432.681	20.4131
-38.3453	433.079	20.4229
-38.3444	426.886	20.4326
-38.3442	425.329	20.4424
-38.344	426.9906	20.4521
-38.3412	430.09	20.4619
-38.34235	431.39	20.47168
-38.3395	431.469	20.4814
-38.3397	430.3	20.4912
-38.3395	427.028	20.501
-38.3377	424.228	20.5107
-38.33683	425.584	20.5205
-38.3375	430.653	20.5303
-38.3356	433.654	20.54
-38.3352	433.436	20.5498
-38.3336	424.598	20.55957
-38.3327	424.7666	20.5693
-38.33176	428.38	20.5791
-38.3314	429.715	20.5889
-38.3312	433.446	20.5986
-38.3304	432.821	20.6084
-38.3292	428.5849	20.6182
-38.3286	425.78	20.62793
-38.3278	423.606	20.6377
-38.3266	427.759	20.6475
-38.3258	433.025	20.6572
-38.3254	432.763	20.667
-38.324	428.462	20.6768
-38.3239	423.9014	20.6865
-38.3227	424.512	20.6963
-38.3217	428.414	20.7061
-38.32143	430.474	20.71582
-38.3194	432.018	20.7256
-38.3195	431.187	20.7354
-38.319	426.872	20.7451
-38.3189	422.537	20.7549
-38.3172	424.885	20.7646
-38.3161	430.549	20.7744
-38.3159	432.925	20.78418
-38.3134	430.009	20.7939
-38.3144	424.923	20.8037
-38.3133	423.588	20.8135
-38.3123	426.128	20.8232
-38.3113	427.675	20.833
-38.3105	428.928	20.8428
-38.3094	431.297	20.8525
-38.3078	428.945	20.8623
-38.3073	423.3	20.87207
-38.3078	425.573	20.8818
-38.3067	425.775	20.8916
-38.3068	430.2261	20.9014
-38.30471	431.2872	20.9111
-38.304	427.15	20.9209
-38.3035	426.3428	20.9307
-38.3028	426.094	20.94043
-38.3024	427.404	20.9502
-38.3009	427.167	20.96
-38.29924	427.625	20.9697
-38.3001	432.398	20.9795
-38.2978	428.1152	20.9893
-38.2967	426.38	20.999
-38.2966	424.456	21.0088
-38.2967	427.1	21.0186
-38.2952	429.908	21.02832
-38.29361	428.96	21.0381
-38.2934	427.121	21.0479
-38.293	428.089	21.0576
-38.2915	425.202	21.0674
-38.2908	423.453	21.0771
-38.2897	426.035	21.0869
-38.2891	428.942	21.09668
-38.289	432.181	21.1064
-38.2876	427.404	21.1162
-38.2866	423.063	21.126
-38.2863	422.416	21.1357
-38.2858	426.774	21.1455
-38.28476	429.874	21.1553
-38.2837	432.715	21.165
-38.2831	427.087	21.1748
-38.2816	426.11	21.18457
-38.281	423.535	21.1943
-38.2805	422.857	21.2041
-38.2791	427.863	21.2139
-38.278	432.078	21.2236
-38.2781	430.499	21.2334
-38.2773	425.864	21.2432
-38.2759	421.577	21.25293
-38.2739	424.354	21.2627
-38.2749	427.038	21.2725
-38.2742	431.138	21.2822
-38.27327	429.104	21.292
-38.2716	426.57	21.3018
-38.27264	425.432	21.3115
-38.27	419.549	21.3213
-38.2697	425.05	21.3311
-38.2679	428.502	21.34082
-38.2678	430.145	21.3506
-38.2679	427.784	21.3604
-38.266	421.364	21.3701
-38.2657	422.447	21.3799
-38.2651	423.451	21.3896
-38.2633	426.234	21.3994
-38.2631	428.123	21.40918
-38.2633	427.587	21.4189
-38.2612	426.319	21.4287
-38.2604	420.845	21.4385
-38.2608	421.075	21.4482
-38.25922	425.465	21.458
-38.2583	430.027	21.4678
-38.2584	427.409	21.4775
-38.2572	424.784	21.4873
-38.2558	421.414	21.49707
-38.2558	422.984	21.5068
-38.2543	424.012	21.5166
-38.2524	424.996	21.5264
-38.2523	426.9415	21.5361
-38.2522	427.597	21.5459
-38.2504	423.588	21.5557
-38.25061	422.139	21.56543
-38.2492	420.938	21.5752
-38.2476	425.715	21.585
-38.24828	427.665	21.5947
-38.2461	425.813	21.6045
-38.2455	424.023	21.6143
-38.2453	421.902	21.624
-38.2457	423.237	21.6338
-38.2434	421.554	21.6436
-38.2419	421.4809	21.65332
-38.2419	428.394	21.6631
-38.2414	427.468	21.6729
-38.2402	423.388	21.6826
-38.2396	420.233	21.6924
-38.2384	420.113	21.7021
-38.23864	427.299	21.7119
-38.2372	424.71	21.72168
-38.2362	426.943	21.7314
-38.2348	425.564	21.7412
-38.2347	421.203	21.751
-38.2332	419.673	21.7607
-38.2333	421.225	21.7705
-38.2329	424.824	21.7803
-38.2316	429.388	21.79
-38.2297	426.6459	21.7998
-38.2297	421.113	21.80957
-38.2295	420.006	21.8193
-38.2276	422.274	21.8291
-38.2268	423.804	21.8389
-38.22728	427.9975	21.8486
-38.2258	425.4241	21.8584
-38.2248	422.4	21.8682
-38.2241	417.894	21.87793
-38.2244	417.518	21.8877
-38.2218	423.397	21.8975
-38.2218	426.324	21.9072
-38.221	428.106	21.917
-38.2204	421.371	21.9268
-38.2191	417.282	21.9365
-38.2182	418.27	21.9463
-38.2174	421.3623	21.9561
-38.217	426.2157	21.96582
-38.2158	424.423	21.9756
-38.216	423.588	21.9854
-38.2153	420.649	21.9951
-38.2131	413.681	22.0049
-38.2129	420.616	22.0146
-38.2117	420.887	22.0244
-38.2102	425.419	22.03418
-38.2092	423.686	22.0439
-38.2096	416.864	22.0537
-38.2077	416.983	22.0635
-38.2069	418.094	22.0732
-38.2067	420.723	22.083
-38.2061	422.842	22.0928
-38.2058	422.001	22.1025
-38.2054	420.226	22.1123
-38.2036	416.7645	22.12207
-38.2034	414.861	22.1318
-38.2023	416.962	22.1416
-38.2021	420.607	22.1514
-38.2007	421.075	22.1611
-38.1997	419.166	22.1709
-38.1989	416.425	22.1807
-38.198	415.887	22.19043
-38.1968	416.963	22.2002
-38.1959	415.781	22.21
-38.196	418.065	22.2197
-38.1943	420.795	22.2295
-38.1943	417.3855	22.2393
-38.1929	416.018	22.249
-38.1923	411.1254	22.2588
-38.1918	415.611	22.2686
-38.1906	418.937	22.27832
-38.1899	417.738	22.2881
-38.1883	419.028	22.2979
-38.1876	413.984	22.3076
-38.18726	413.281	22.3174
-38.1872	411.404	22.3271
-38.1865	410.704	22.3369
-38.1853	417.0231	22.34668
-38.1849	416.728	22.3564
-38.1833	414.994	22.3662
-38.1842	407.408	22.376
-38.1816	406.1051	22.3857
-38.1813	410.025	22.3955
-38.1795	412.093	22.4053
-38.1792	412.701	22.415
-38.1787	409.014	22.4248
-38.1776	405.742	22.43457
-38.1769	402.049	22.4443
-38.1758	396.384	22.4541
-38.1756	401.269	22.4639
-38.175	403.435	22.4736
-38.17	-41.3575	22.4834
-38.169	-29.4216	22.4932
-38.16935	-28.2878	22.50293
-38.1691	-53.0851	22.5127
-38.16864	-42.006	22.5225
-38.1682	-39.9502	22.5322
-38.1682	-38.7975	22.542
-38.1675	-40.2445	22.5518
-38.1668	-45.4066	22.5615
-38.166	-48.2778	22.5713
-38.1647	-46.0511	22.5811
-38.1638	-40.4046	22.59082
-38.1624	-37.2868	22.6006
-38.1625	-42.13747	22.6104
-38.1625	-45.784	22.6201
-38.1624	-47.09457	22.6299
-38.1595	-43.3501	22.6396
-38.1585	-42.0405	22.6494
-38.1582	-40.542	22.65918
-38.15749	-40.3281	22.6689
-38.1566	-41.89455	22.6787
-38.1557	-48.58622	22.6885
-38.1543	-44.7328	22.6982
-38.15453	-43.1192	22.708
-38.15374	-40.5719	22.7178
-38.153	-40.7582	22.7275
-38.1525	-46.21434	22.7373
-38.1507	-45.7156	22.74707
-38.1507	-44.8127	22.7568
-38.149	-44.0155	22.7666
-38.1483	-42.2246	22.7764
-38.1486	-43.0806	22.7861
-38.14682	-40.8177	22.7959
-38.146	-43.542	22.8057
-38.14595	-46.3096	22.81543
-38.1448	-46.5221	22.8252
-38.1434	-42.04171	22.835
-38.142	-39.7196	22.8447
-38.1422	-41.3847	22.8545
-38.1411	-44.5282	22.8643
-38.1419	-44.288	22.874
-38.14064	-44.5912	22.8838
-38.1388	-47.0421	22.8936
-38.1379	-42.4589	22.90332
-38.1367	-41.7315	22.9131
-38.1366	-40.518	22.9229
-38.1355	-43.6618	22.9326
-38.1357	-49.6977	22.9424
-38.1339	-45.8327	22.9521
-38.13377	-42.5016	22.9619
-38.1318	-42.3033	22.97168
-38.1319	-39.06044	22.9814
-38.1304	-44.531	22.9912
-38.1312	-44.6325	23.001
-38.1285	-46.1595	23.0107
-38.1288	-45.7682	23.0205
-38.1275	-40.913	23.0303
-38.1264	-40.1071	23.04
-38.1261	-40.5384	23.0498
-38.1258	-45.6197	23.05957
-38.1251	-49.3773	23.0693
-38.1242	-44.6623	23.0791
-38.1229	-40.7047	23.0889
-38.1219	-40.3395	23.0986
-38.1235	-40.5435	23.1084
-38.1202	-44.37199	23.1182
-38.1198	-45.13	23.12793
-38.1198	-49.854	23.1377
-38.1181	-44.1505	23.1475
-38.1175	-38.6816	23.1572
-38.1172	-38.9806	23.167
-38.11536	-42.3781	23.1768
-38.1146	-47.6867	23.1865
-38.115	-48.11655	23.1963
-38.1137	-41.9132	23.2061
-38.1121	-40.44759	23.21582
-38.11224	-42.1126	23.2256
-38.11063	-41.7778	23.2354
-38.1102	-44.889	23.2451
-38.1093	-49.0043	23.2549
-38.1093	-45.9477	23.2646
-38.1076	-44.7141	23.2744
-38.1066	-37.49712	23.28418
-38.1064	-41.3771	23.2939
-38.1045	-44.8822	23.3037
-38.1051	-47.52478	23.3135
-38.1039	-44.318	23.3232
-38.1026	-42.0808	23.333
-38.1022	-42.20998	23.3428
-38.1003	-41.3598	23.3525
-38.0999	-41.8776	23.3623
-38.0997	-46.3443	23.37207
-38.0994	-45.0762	23.3818
-38.0974	-47.0001	23.3916
-38.09621	-40.0509	23.4014
-38.0961	-39.7253	23.4111
-38.096	-44.8999	23.4209
-38.0942	-43.23914	23.4307
-38.0934	-45.5913	23.44043
-38.092	-45.0806	23.4502
-38.0932	-43.5569	23.46
-38.09201	-42.7727	23.4697
-38.0907	-39.5082	23.4795
-38.0898	-40.75267	23.4893
-38.0886	-46.9429	23.499
-38.0875	-46.178	23.5088
-38.0874	-45.435	23.5186
-38.0863	-39.9335	23.52832
-38.0851	-40.6928	23.5381
-38.0846	-41.9803	23.5479
-38.0847	-42.0546	23.5576
-38.0829	-43.7316	23.5674
-38.0825	-45.2649	23.5771
-38.0811	-44.8824	23.5869
-38.0802	-41.3938	23.59668
-38.0796	-37.8814	23.6064
-38.0789	-41.2921	23.6162
-38.0787	-47.9028	23.626
-38.0768	-46.08609	23.6357
-38.0758	-43.5743	23.6455
-38.075	-41.2325	23.6553
-38.0748	-40.6583	23.665
-38.0737	-43.5609	23.6748
-38.0738	-45.034	23.68457
-38.0725	-46.6736	23.6943
-38.0718	-48.5843	23.7041
-38.0703	-42.6865	23.7139
-38.0699	-39.9545	23.7236
-38.06839	-38.9409	23.7334
-38.06794	-44.5481	23.7432
-38.068	-49.2059	23.75293
-38.06662	-46.7573	23.7627
-38.0665	-43.5675	23.7725
-38.0652	-39.9113	23.7822
-38.065	-40.1155	23.792
-38.0629	-42.6095	23.8018
-38.0634	-45.0985	23.8115
-38.0614	-49.8858	23.8213
-38.0612	-44.9053	23.8311
-38.0603	-39.5692	23.84082
-38.0589	-38.7944	23.8506
-38.058	-42.4254	23.8604
-38.0581	-47.82983	23.8701
-38.0563	-48.34248	23.8799
-38.0549	-43.2832	23.8896
-38.0555	-42.3189	23.8994
-38.0554	-40.727	23.90918
-38.055	-40.0561	23.9189
-38.0528	-43.9798	23.9287
-38.0528	-45.9993	23.9385
-38.0513	-45.9262	23.9482
-38.0513	-45.9277	23.958
-38.0494	-41.516	23.9678
-38.0487	-40.2084	23.9775
-38.04871	-44.8422	23.9873
-38.0475	-46.8088	23.99707
-38.0457	-47.0114	24.0068
-38.0445	-42.00069	24.0166
-38.0448	-44.0407	24.0264
-38.04417	-41.2358	24.0361
-38.0434	-40.8834	24.0459
-38.0428	-44.8171	24.0557
-38.04203	-46.3112	24.06543
-38.0417	-48.28809	24.0752
-38.0394	-43.3027	24.085
-38.0391	-38.6096	24.0947
-38.0372	-41.34708	24.1045
-38.0379	-41.5041	24.1143
-38.036	-44.131	24.124
-38.0358	-45.2725	24.1338
-38.0356	-44.1197	24.1436
-38.0346	-44.8927	24.15332
-38.0335	-39.4304	24.1631
-38.0328	-38.8972	24.1729
-38.0321	-43.7066	24.1826
-38.0303	-47.6141	24.1924
-38.0294	-45.1239	24.2021
-38.0301	-42.5576	24.2119
-38.02845	-41.3381	24.22168
-38.0274	-40.21682	24.2314
-38.0265	-41.9418	24.2412
-38.0268	-45.19841	24.251
-38.0253	-47.4676	24.2607
-38.0253	-46.448	24.2705
-38.0237	-42.4607	24.2803
-38.0234	-37.5402	24.29
-38.02079	-41.1087	24.2998
-38.0205	-45.6119	24.30957
-38.0209	-47.899	24.3193
-38.0208	-46.2704	24.3291
-38.01947	-42.146	24.3389
-38.0183	-37.7548	24.3486
-38.0163	-43.20787	24.3584
-38.0162	-44.0168	24.3682
-38.0152	-45.8745	24.37793
-38.0145	-47.3266	24.3877
-38.014	-42.168	24.3975
-38.0122	-41.3201	24.4072
-38.0127	-37.5856	24.417
-38.0109	-43.2704	24.4268
-38.011	-49.1915	24.4365
-38.0103	-47.0689	24.4463
-38.0098	-43.9121	24.4561
-38.0088	-40.5752	24.46582
-38.0069	-41.7021	24.4756
-38.0062	-43.6884	24.4854
-38.0057	-44.0776	24.4951
-38.0047	-46.604	24.5049
-38.0038	-46.401	24.5146
-38.0025	-42.7645	24.5244
-38.0026	-40.014	24.53418
-38.0024	-41.7513	24.5439
-38.0014	-45.83	24.5537
-38.0002	-47.1973	24.5635
-37.9982	-45.9449	24.5732
-37.9982	-43.4183	24.583
-37.9985	-42.1905	24.5928
-37.99712	-41.94381	24.6025
-37.9964	-44.0168	24.6123
-37.995	-45.0308	24.62207
-37.9938	-46.445	24.6318
-37.99313	-45.7179	24.6416
-37.9921	-41.7173	24.6514
-37.9926	-40.3619	24.6611
-37.9912	-42.2185	24.6709
-37.9915	-43.9462	24.6807
-37.9884	-46.1533	24.69043
-37.9899	-43.2957	24.7002
-37.9879	-43.6104	24.71
-37.987	-43.7287	24.7197
-37.9854	-41.0106	24.7295
-37.9852	-43.0461	24.7393
-37.9845	-43.9864	24.749
-37.9829	-48.1116	24.7588
-37.98296	-43.412	24.7686
-37.9819	-39.8265	24.77832
-37.9816	-41.8479	24.7881
-37.9805	-40.4776	24.7979
-37.9799	-44.1929	24.8076
-37.979	-45.1384	24.8174
-37.9789	-45.5893	24.8271
-37.9776	-46.5453	24.8369
-37.9764	-40.2591	24.84668
-37.9743	-39.5089	24.8564
-37.9741	-42.24	24.8662
-37.974	-46.5558	24.876
-37.9741	-48.7877	24.8857
-37.9724	-43.6679	24.8955
-37.972	-40.4727	24.9053
-37.9702	-40.1476	24.915
-37.9701	-42.5756	24.9248
-37.9696	-44.72961	24.93457
-37.9685	-46.8916	24.9443
-37.9683	-47.9483	24.9541
-37.9658	-41.6916	24.9639
-37.9654	-40.1383	24.9736
-37.9653	-38.2955	24.9834
-37.9646	-43.812	24.9932
-37.9636	-47.5613	25.00293
-37.9628	-49.6333	25.0127
-37.9617	-42.1739	25.0225
-37.9619	-39.65	25.0322
-37.9609	-41.2808	25.042
-37.9587	-42.9388	25.0518
-37.9597	-45.2764	25.0615
-37.958	-48.5485	25.0713
-37.9584	-43.9333	25.0811
-37.9558	-41.2413	25.09082
-37.9547	-37.6814	25.1006
-37.9551	-42.6625	25.1104
-37.9536	-46.9734	25.1201
-37.9528	-46.135	25.1299
-37.95174	-45.11401	25.1396
-37.9516	-40.605	25.1494
-37.9504	-39.5645	25.15918
-37.94965	-43.2934	25.1689
-37.9497	-42.1758	25.1787
-37.9468	-46.7482	25.1885
-37.9466	-45.7148	25.1982
-37.9464	-45.5307	25.208
-37.9454	-39.9308	25.2178
-37.9435	-39.0487	25.2275
-37.9436	-44.5649	25.2373
-37.9433	-45.7151	25.24707
-37.9426	-45.5513	25.2568
-37.94244	-44.2224	25.2666
-37.9423	-41.70261	25.2764
-37.9396	-41.9879	25.2861
-37.939	-41.6374	25.2959
-37.9385	-41.3834	25.3057
-37.9372	-45.26	25.31543
-37.9368	-46.9188	25.3252
-37.9353	-41.7118	25.335
-37.934	-41.7612	25.3447
-37.9339	-41.0985	25.3545
-37.9342	-41.6149	25.3643
-37.933	-44.212	25.374
-37.9313	-45.3642	25.3838
-37.9307	-45.1891	25.3936
-37.931	-44.2282	25.40332
-37.9291	-41.5416	25.4131
-37.9292	-41.3991	25.4229
-37.9284	-42.3078	25.4326
-37.9262	-48.9776	25.4424
-37.9258	-46.419	25.4521
-37.9255	-41.27969	25.4619
-37.9247	-40.8393	25.47168
-37.923	-39.6258	25.4814
-37.9223	-44.7942	25.4912
-37.922	-44.6979	25.501
-37.9219	-45.5398	25.5107
-37.92	-48.2959	25.5205
-37.9197	-41.257	25.5303
-37.9193	-39.14	25.54
-37.9182	-40.27776	25.5498
-37.9169	-46.9744	25.55957
-37.9158	-50.07	25.5693
-37.9148	-44.9595	25.5791
-37.9151	-40.8252	25.5889
-37.9132	-40.6769	25.5986
-37.9126	-41.468	25.6084
-37.91161	-45.254	25.6182
-37.9126	-45.9061	25.62793
-37.9111	-46.9116	25.6377
-37.9094	-44.5052	25.6475
-37.9087	-38.9796	25.6572
-37.9088	-39.7095	25.667
-37.9072	-41.7869	25.6768
-37.9078	-47.8551	25.6865
-37.9048	-48.2196	25.6963
-37.9046	-42.4846	25.7061
-37.9042	-41.212	25.71582
-37.903	-41.7123	25.7256
-37.903	-42.3187	25.7354
-37.9007	-44.3714	25.7451
-37.9013	-47.1769	25.7549
-37.9005	-44.7329	25.7646
-37.8985	-44.358	25.7744
-37.898	-38.6207	25.78418
-37.8977	-40.2136	25.7939
-37.896	-46.353	25.8037
-37.89579	-47.3733	25.8135
-37.8947	-46.69083	25.8232
-37.8945	-42.0443	25.833
-37.8929	-41.7132	25.8428
-37.8908	-44.1956	25.8525
-37.8927	-42.6016	25.8623
-37.8917	-45.5199	25.87207
-37.8905	-46.4112	25.8818
-37.8886	-47.26442	25.8916
-37.8883	-43.2364	25.9014
-37.8883	-39.1427	25.9111
-37.8869	-43.9873	25.9209
-37.8858	-44.6642	25.9307
-37.8848	-45.2298	25.94043
-37.8855	-45.95166	25.9502
-37.8824	-45.2958	25.96
-37.8822	-44.3014	25.9697
-37.882	-39.9308	25.9795
-37.8823	-39.7583	25.9893
-37.8809	-45.23	25.999
-37.8801	-48.4431	26.0088
-37.8793	-46.1064	26.0186
-37.8791	-42.851	26.02832
-37.8767	-40.3832	26.0381
-37.8769	-42.0559	26.0479
-37.8759	-44.6113	26.0576
-37.8752	-45.0919	26.0674
-37.8743	-46.4943	26.0771
-37.8717	-45.0532	26.0869
-37.8721	-41.2371	26.09668
-37.87178	-38.8193	26.1064
-37.8716	-42.4426	26.1162
-37.8695	-49.3845	26.126
-37.8691	-48.73455	26.1357
-37.86813	-44.3537	26.1455
-37.8685	-39.7207	26.1553
-37.866	-39.3139	26.165
-37.866	-43.322	26.1748
-37.8649	-44.4753	26.18457
-37.866	-47.0857	26.1943
-37.8647	-48.59552	26.2041
-37.863	-41.0961	26.2139
-37.8624	-39.3643	26.2236
-37.8604	-40.7492	26.2334
-37.8597	-44.6035	26.2432
-37.8603	-50.3824	26.25293
-37.8587	-46.4979	26.2627
-37.8587	-42.1396	26.2725
-37.8571	-39.6129	26.2822
-37.856	-41.4056	26.292
-37.8549	-42.9285	26.3018
-37.8539	-43.3741	26.3115
-37.8526	-47.8015	26.3213
-37.8519	-42.7966	26.3311
-37.8527	-41.9448	26.34082
-37.851	-40.1856	26.3506
-37.85014	-43.0143	26.3604
-37.85	-45.5234	26.3701
-37.8485	-48.9257	26.3799
-37.8471	-44.4604	26.3896
-37.8476	-41.2092	26.3994
-37.8467	-41.0836	26.40918
-37.8452	-41.3179	26.4189
-37.8443	-45.1596	26.4287
-37.84409	-46.72459	26.4385
-37.8436	-45.78875	26.4482
-37.8416	-44.6708	26.458
-37.841	-40.5859	26.4678
-37.8404	-40.76564	26.4775
-37.839	-43.4395	26.4873
-37.8383	-45.4251	26.49707
-37.8385	-47.87199	26.5068
-37.8375	-43.36956	26.5166
-37.8362	-43.1902	26.5264
-37.8364	-43.6548	26.5361
-37.8345	-41.1794	26.5459
-37.83358	-43.1676	26.5557
-37.8328	-44.2277	26.56543
-37.832	-48.4302	26.5752
-37.8311	-44.6244	26.585
-37.83165	-40.3652	26.5947
-37.8296	-42.215	26.6045
-37.82972	-41.8999	26.6143
-37.8279	-45.7286	26.624
-37.8271	-45.4105	26.6338
-37.8265	-44.6859	26.6436
-37.8253	-44.7488	26.65332
-37.8246	-42.46196	26.6631
-37.8243	-39.9603	26.6729
-37.8232	-42.0003	26.6826
-37.8228	-47.2667	26.6924
-37.8212	-48.4864	26.7021
-37.8219	-43.3983	26.7119
-37.8203	-41.4102	26.72168