File: data/processed_data_files/tensile/0.254_hd_dimension_typei_090_r(4).dat
MTS793|BTW|ENU|1|2|.|/|:|1|0|0|A

Data Header:			0.254_hd_dimension_typei_090_r0			Time:	20.0176	s	4/15/2019 3:38:35 PM
Data Acquisition:	Timed
Station Name:	ft40.cfg
Test File Name:	monotonic_0.2540_typei_hd_090_dimension.tst
Displacement	Force	Running Time
mm	N	s
9.98066	-160.679	0.0224609
9.98102	-154.199	0.0419922
9.98152	-159.57	0.0615234
9.98189	-160.76	0.0810547
9.98377	-155.951	0.100586
9.985364	-154.831	0.120117
9.98698	-160.668	0.139648
9.98869	-152.448	0.15918
9.98994	-148.249	0.178711
9.99104	-157.418	0.198242
9.99252	-153.824	0.217773
9.99465	-146.436	0.237305
9.99571	-151.979	0.256836
9.9978	-155.347	0.276367
9.99984	-142.812	0.295898
10.0007	-149.653	0.31543
10.0018	-149.185	0.334961
10.00486	-143.931	0.354492
10.006	-145.553	0.374023
10.0079	-150.222	0.393555
10.00897	-138.523	0.413086
10.0108	-141.728	0.432617
10.0132	-144.75	0.452148
10.014	-140.965	0.47168
10.0151	-134.164	0.491211
10.0176	-143.748	0.510742
10.0183	-138.333	0.530273
10.0207	-136.194	0.549805
10.022	-138.133	0.569336
10.0235	-139.223	0.588867
10.02471	-128.49	0.608398
10.0274	-135.828	0.62793
10.0285	-135.969	0.647461
10.0294	-130.923	0.666992
10.032	-128.269	0.686523
10.0328	-136.838	0.706055
10.0353	-126.815	0.725586
10.0361	-125.366	0.745117
10.0383	-131.258	0.764648
10.0403	-126.813	0.78418
10.0409	-119.891	0.803711
10.0439	-130.895	0.823242
10.0445	-125.96	0.842773
10.0463	-115.56	0.862305
10.0485	-126.941	0.881836
10.0498	-125.715	0.901367
10.0516	-116.002	0.920898
10.0531	-118.875	0.94043
10.0541	-124.171	0.959961
10.0559	-111.863	0.979492
10.0579	-119.139	0.999023
10.0594	-120.946	1.01855
10.0613	-112.6787	1.03809
10.0625	-112.199	1.05762
10.065	-120.4744	1.07715
10.0657	-108.886	1.09668
10.0678	-108.719	1.11621
10.07042	-113.56	1.13574
10.0705	-113.102	1.15527
10.0727	-104.648	1.1748
10.07378	-109.67	1.19434
10.0761	-108.786	1.21387
10.0762	-104.564	1.2334
10.079	-103.742	1.25293
10.0815	-109.291	1.27246
10.0823	-99.6217	1.29199
10.0842	-101.265	1.31152
10.0863	-106.95	1.33105
10.087	-99.0636	1.35059
10.0886	-95.8328	1.37012
10.0901	-104.397	1.38965
10.0923	-99.4528	1.40918
10.0938	-93.4198	1.42871
10.0955	-99.6827	1.44824
10.0965	-98.0598	1.46777
10.0992	-88.5215	1.4873
10.1001	-97.3121	1.50684
10.1024	-96.0552	1.52637
10.10241	-83.9034	1.5459
10.1052	-92.472	1.56543
10.1061	-95.2616	1.58496
10.1074	-85.7477	1.60449
10.1095	-86.988	1.62402
10.1108	-93.6755	1.64355
10.11275	-81.5972	1.66309
10.11475	-85.7026	1.68262
10.1163	-88.1762	1.70215
10.1181	-82.3035	1.72168
10.1194	-78.8909	1.74121
10.1216	-86.5238	1.76074
10.1221	-79.2428	1.78027
10.1242	-75.6391	1.7998
10.126	-78.8983	1.81934
10.1279	-82.7323	1.83887
10.1287	-73.4941	1.8584
10.1308	-75.1594	1.87793
10.1327	-76.6844	1.89746
10.1347	-72.8891	1.91699
10.1364	-70.3187	1.93652
10.1374	-79.6202	1.95605
10.1394	-66.8175	1.97559
10.1412	-66.0393	1.99512
10.1425	-73.5483	2.01465
10.1445	-70.76609	2.03418
10.14686	-62.0428	2.05371
10.1475	-70.7644	2.07324
10.1495	-65.79805	2.09277
10.1511	-60.3765	2.1123
10.1515	-65.558	2.13184
10.1551	-65.9811	2.15137
10.1548	-56.1947	2.1709
10.1576	-62.5729	2.19043
10.1585	-66.0586	2.20996
10.1607	-52.4711	2.22949
10.1626	-58.5365	2.24902
10.16374	-61.7296	2.26855
10.1648	-54.8909	2.28809
10.1667	-52.2343	2.30762
10.169	-59.4033	2.32715
10.1701	-50.6655	2.34668
10.1717	-51.5129	2.36621
10.1728	-55.0579	2.38574
10.1745	-51.981	2.40527
10.1768	-44.8144	2.4248
10.1774	-51.6079	2.44434
10.1791	-48.59026	2.46387
10.182	-42.8545	2.4834
10.1828	-43.4421	2.50293
10.1849	-50.1118	2.52246
10.186	-40.3996	2.54199
10.1882	-41.9645	2.56152
10.1885	-44.4049	2.58105
10.1908	-38.2217	2.60059
10.19284	-37.3732	2.62012
10.1944	-44.9368	2.63965
10.1961	-36.9502	2.65918
10.1976	-31.5836	2.67871
10.1993	-39.9178	2.69824
10.2006	-37.2984	2.71777
10.2029	-30.5206	2.7373
10.20412	-36.0319	2.75684
10.2056	-35.44	2.77637
10.2075	-25.3825	2.7959
10.209	-33.4748	2.81543
10.2111	-33.2425	2.83496
10.2129	-23.7884	2.85449
10.2142	-25.6436	2.87402
10.2153	-32.6507	2.89355
10.2174	-19.4558	2.91309
10.2192	-23.4365	2.93262
10.22064	-27.1511	2.95215
10.2223	-24.847	2.97168
10.2238	-17.72876	2.99121
10.22473	-24.4986	3.01074
10.2269	-18.6619	3.03027
10.2287	-17.1368	3.0498
10.2296	-19.9528	3.06934
10.2326	-20.1541	3.08887
10.2336	-9.77154	3.1084
10.2356	-13.2284	3.12793
10.2373	-18.3555	3.14746
10.2388	-11.2748	3.16699
10.2412	-8.73531	3.18652
10.2423	-16.4996	3.20605
10.243	-7.84855	3.22559
10.2444	-5.41615	3.24512
10.2468	-11.7987	3.26465
10.2478	-6.27886	3.28418
10.2495	0.246956	3.30371
10.2509	-10.7193	3.32324
10.2529	-5.08581	3.34277
10.2543	3.69066	3.3623
10.2562	-4.49742	3.38184
10.258	-7.30543	3.40137
10.26	4.76723	3.4209
10.2614	-0.821868	3.44043
10.2625	-2.92676	3.45996
10.2642	8.24024	3.47949
10.26596	2.70616	3.49902
10.26789	0.253025	3.51855
10.2693	9.02263	3.53809
10.2696	8.99151	3.55762
10.2728	0.252704	3.57715
10.27408	10.8931	3.59668
10.2767	12.0445	3.61621
10.2777	7.5051	3.63574
10.2796	10.7959	3.65527
10.2819	16.3321	3.6748
10.2827	10.5727	3.69434
10.2841	14.5602	3.71387
10.28553	19.1013	3.7334
10.2875	17.1906	3.75293
10.2888	10.161	3.77246
10.2895	23.3284	3.79199
10.2918	20.5053	3.81152
10.2942	16.2795	3.83105
10.2948	23.00465	3.85059
10.2971	27.792	3.87012
10.2984	17.8199	3.88965
10.3007	24.9135	3.90918
10.301	28.4411	3.92871
10.3036	22.337	3.94824
10.3058	23.5798	3.96777
10.30658	36.1309	3.9873
10.3086	25.2958	4.00684
10.3099	26.7363	4.02637
10.3106	37.4755	4.0459
10.3138	31.6682	4.06543
10.3146	28.0641	4.08496
10.3165	38.5838	4.10449
10.3176	36.3796	4.12402
10.3194	30.5749	4.14355
10.3202	43.8731	4.16309
10.3229	38.8481	4.18262
10.3256	33.6279	4.20215
10.32644	40.0639	4.22168
10.3275	46.2316	4.24121
10.3292	37.3564	4.26074
10.3318	42.8627	4.28027
10.3317	46.5407	4.2998
10.3343	43.9937	4.31934
10.3369	40.7007	4.33887
10.338	52.6465	4.3584
10.3399	46.6737	4.37793
10.3416	46.5363	4.39746
10.34213	51.4451	4.41699
10.3453	54.4595	4.43652
10.3462	44.8449	4.45605
10.34747	55.25	4.47559
10.3499	59.5456	4.49512
10.3512	52.6556	4.51465
10.353	54.75914	4.53418
10.3546	62.2669	4.55371
10.3556	51.8929	4.57324
10.3558	60.6916	4.59277
10.3585	65.86293	4.6123
10.3605	59.0159	4.63184
10.3618	57.817	4.65137
10.3626	68.7696	4.6709
10.3646	62.7696	4.69043
10.3669	57.9715	4.70996
10.3686	71.6882	4.72949
10.3701	66.3774	4.74902
10.372	63.3367	4.76855
10.3739	70.32341	4.78809
10.3752	71.6261	4.80762
10.3756	65.017	4.82715
10.378	76.4697	4.84668
10.3798	75.5859	4.86621
10.382	69.6786	4.88574
10.3835	70.7319	4.90527
10.3854	80.5012	4.9248
10.3853	74.4463	4.94434
10.3882	77.1115	4.96387
10.3896	80.3329	4.9834
10.3916	80.6512	5.00293
10.3934	75.2613	5.02246
10.395	85.6032	5.04199
10.3961	84.4568	5.06152
10.3975	79.0458	5.08105
10.4002	87.2016	5.10059
10.4002	91.409	5.12012
10.40381	80.4743	5.13965
10.4053	88.6078	5.15918
10.4056	93.6948	5.17871
10.4074	85.9578	5.19824
10.4082	88.8809	5.21777
10.4101	97.2316	5.2373
10.4131	90.585	5.25684
10.4141	92.2968	5.27637
10.4161	102.887	5.2959
10.4174	95.2475	5.31543
10.4188	89.9667	5.33496
10.4211	103.675	5.35449
10.4227	100.73	5.37402
10.4227	93.5551	5.39355
10.4261	103.998	5.41309
10.4276	104.5722	5.43262
10.4289	98.6027	5.45215
10.4301	104.573	5.47168
10.4312	110.352	5.49121
10.4338	101.0157	5.51074
10.4362	110.496	5.53027
10.4365	111.784	5.5498
10.4383	106.363	5.56934
10.44	104.161	5.58887
10.4414	117.378	5.6084
10.4433	113.0629	5.62793
10.4451	111.8	5.64746
10.4462	114.536	5.66699
10.4484	117.353	5.68652
10.4506	109.58	5.70605
10.4514	119.904	5.72559
10.4525	119.566	5.74512
10.454	112.869	5.76465
10.4569	117.292	5.78418
10.4577	126.516	5.80371
10.4599	115.411	5.82324
10.4609	120.859	5.84277
10.4632	129.536	5.8623
10.46436	122.981	5.88184
10.4669	121.151	5.90137
10.4676	131.321	5.9209
10.4701	124.716	5.94043
10.4716	121.352	5.95996
10.4731	136.631	5.97949
10.4744	128.997	5.99902
10.4763	125.365	6.01855
10.478	134.1077	6.03809
10.479	136.195	6.05762
10.4804	129.186	6.07715
10.4822	137.208	6.09668
10.4842	138.207	6.11621
10.4861	134.505	6.13574
10.4872	136.249	6.15527
10.48904	143.881	6.1748
10.4903	136.565	6.19434
10.492	143.292	6.21387
10.4942	144.93	6.2334
10.4953	145.004	6.25293
10.4967	139.184	6.27246
10.4992	148.886	6.29199
10.4995	149.104	6.31152
10.502	144.9969	6.33105
10.5036	148.808	6.35059
10.5044	153.104	6.37012
10.5074	143.296	6.38965
10.5084	152.548	6.40918
10.5101	158.025	6.42871
10.51192	149.818	6.44824
10.5132	149.698	6.46777
10.515	162.441	6.4873
10.5164	152.181	6.50684
10.518	154.767	6.52637
10.5204	164.0873	6.5459
10.5221	157.4024	6.56543
10.5225	155.954	6.58496
10.5245	166.073	6.60449
10.5261	160.578	6.62402
10.5279	156.98	6.64355
10.5295	167.777	6.66309
10.53146	167.137	6.68262
10.5339	162.619	6.70215
10.5352	166.958	6.72168
10.5355	171.085	6.74121
10.5374	164.591	6.76074
10.53972	172.371	6.78027
10.5411	172.9404	6.7998
10.5426	169.722	6.81934
10.544	168.376	6.83887
10.5464	180.972	6.8584
10.54723	173.288	6.87793
10.5485	173.634	6.89746
10.5506	179.615	6.91699
10.5514	181.465	6.93652
10.5545	172.882	6.95605
10.5561	182.375	6.97559
10.5573	182.681	6.99512
10.5604	178.8974	7.01465
10.5607	180.913	7.03418
10.5615	189.45	7.05371
10.5637	177.396	7.07324
10.5654	184.583	7.09277
10.5672	193.247	7.1123
10.5684	186.106	7.13184
10.5709	181.815	7.15137
10.572	197.177	7.1709
10.5744	189.587	7.19043
10.57536	186.378	7.20996
10.5776	197.16	7.22949
10.5781	194.146	7.24902
10.5811	187.631	7.26855
10.582	199.184	7.28809
10.5824	200.253	7.30762
10.5856	191.309	7.32715
10.5865	202.326	7.34668
10.5882	203.833	7.36621
10.5896	196.668	7.38574
10.5912	199.725	7.40527
10.5929	206.5864	7.4248
10.5954	201.428	7.44434
10.5962	204.777	7.46387
10.5989	207.888	7.4834
10.6003	206.299	7.50293
10.6022	202.132	7.52246
10.6029	214.16	7.54199
10.6048	211.392	7.56152
10.6064	206.447	7.58105
10.6084	209.851	7.60059
10.609	217.752	7.62012
10.6109	207.619	7.63965
10.6125	213.855	7.65918
10.6143	219.041	7.67871
10.6158	213.966	7.69824
10.61749	213.833	7.71777
10.6189	224.446	7.7373
10.62	214.26	7.75684
10.6218	216.855	7.77637
10.6232	228.4929	7.7959
10.6255	222.262	7.81543
10.6286	217.26	7.83496
10.6288	228.198	7.85449
10.6306	225.595	7.87402
10.6322	221.402	7.89355
10.6331	231.965	7.91309
10.6347	228.4287	7.93262
10.6379	223.372	7.95215
10.63883	231.442	7.97168
10.6397	236.802	7.99121
10.6426	225.048	8.01074
10.6436	234.593	8.03027
10.64516	236.9274	8.0498
10.6466	232.065	8.06934
10.6481	233.3	8.08887
10.6501	241.793	8.1084
10.652	235.523	8.12793
10.6536	237.778	8.14746
10.6549	241.779	8.16699
10.6573	242.336	8.18652
10.6585	232.763	8.20605
10.66059	247.628	8.22559
10.6614	246.406	8.24512
10.6626	239.773	8.26465
10.6642	243.5766	8.28418
10.6661	252.014	8.30371
10.6675	241.697	8.32324
10.6702	248.448	8.34277
10.67168	254.7496	8.3623
10.6731	249.412	8.38184
10.6745	245.358	8.40137
10.67643	259.905	8.4209
10.6788	250.872	8.44043
10.67903	249.061	8.45996
10.6816	260.988	8.47949
10.6829	257.224	8.49902
10.6844	251.142	8.51855
10.6855	259.972	8.53809
10.6876	259.786	8.55762
10.6892	254.919	8.57715
10.6911	265.219	8.59668
10.6918	264.453	8.61621
10.6938	256.252	8.63574
10.6967	263.361	8.65527
10.69629	270.724	8.6748
10.69887	264.002	8.69434
10.7002	264.975	8.71387
10.7011	270.273	8.7334
10.704	269.683	8.75293
10.7051	263.913	8.77246
10.7058	274.307	8.79199
10.7083	271.48	8.81152
10.71	269.219	8.83105
10.7113	274.282	8.85059
10.71397	279.281	8.87012
10.7154	267.497	8.88965
10.717	277.106	8.90918
10.7186	283.356	8.92871
10.72	276.1778	8.94824
10.7219	275.998	8.96777
10.7232	284.746	8.9873
10.7252	276.973	9.00684
10.7266	279.305	9.02637
10.7279	288.6662	9.0459
10.7309	282.069	9.06543
10.7311	277.579	9.08496
10.7335	291.662	9.10449
10.73484	287.553	9.12402
10.7364	281.725	9.14355
10.73773	292.4577	9.16309
10.7391	293.244	9.18262
10.7411	285.466	9.20215
10.7429	292.906	9.22168
10.74357	296.023	9.24121
10.7467	288.401	9.26074
10.7489	295.964	9.28027
10.7492	301.75	9.2998
10.7508	294.609	9.31934
10.7524	294.09	9.33887
10.7552	305.642	9.3584
10.7559	298.805	9.37793
10.757	297.243	9.39746
10.7587	304.233	9.41699
10.7607	306.961	9.43652
10.7622	296.98	9.45605
10.7643	308.592	9.47559
10.766	308.83	9.49512
10.7674	302.613	9.51465
10.7693	306.439	9.53418
10.7711	315.629	9.55371
10.7723	303.7496	9.57324
10.7729	309.683	9.59277
10.7754	318.645	9.6123
10.7779	310.125	9.63184
10.7789	307.929	9.65137
10.7794	319.643	9.6709
10.7819	312.515	9.69043
10.78363	312.048	9.70996
10.785	323.517	9.72949
10.7875	320.764	9.74902
10.7883	310.31	9.76855
10.79025	323.555	9.78809
10.7922	323.796	9.80762
10.7938	314.176	9.82715
10.7959	324.6441	9.84668
10.796	326.73	9.86621
10.798	319.339	9.88574
10.79908	326.4	9.90527
10.802	331.911	9.9248
10.8026	323.571	9.94434
10.8046	329.658	9.96387
10.8055	334.692	9.9834
10.808	330.872	10.00293
10.8097	323.266	10.0225
10.8107	337.204	10.042
10.8127	335.532	10.0615
10.8145	331.2854	10.0811
10.8158	336.424	10.1006
10.817	341.66	10.1201
10.8193	331.033	10.1396
10.8204	341.643	10.15918
10.8216	343.5231	10.1787
10.8237	337.099	10.1982
10.826	337.0773	10.2178
10.8271	350.899	10.2373
10.8296	339.537	10.2568
10.8316	341.606	10.2764
10.8326	351.48	10.2959
10.8344	346.46	10.31543
10.8348	341.986	10.335
10.8372	354.024	10.3545
10.8394	349.5412	10.374
10.8403	344.957	10.3936
10.8419	355.945	10.4131
10.8432	356.598	10.4326
10.8463	346.163	10.4521
10.8468	355.147	10.47168
10.8486	359.214	10.4912
10.8506	350.406	10.5107
10.8516	356.189	10.5303
10.8541	362.635	10.5498
10.8554	356.102	10.5693
10.8569	356.2467	10.5889
10.8578	365.791	10.6084
10.8607	358.325	10.62793
10.862	359.3465	10.6475
10.8627	366.882	10.667
10.8651	368.381	10.6865
10.8669	357.805	10.7061
10.8688	369.918	10.7256
10.8698	370.655	10.7451
10.8721	366.174	10.7646
10.8722	367.414	10.78418
10.8744	376.68	10.8037
10.8764	365.5567	10.8232
10.8783	370.704	10.8428
10.8794	380.024	10.8623
10.8814	373.274	10.8818
10.8834	368.24	10.9014
10.8847	383.698	10.9209
10.8856	375.14	10.94043
10.8868	373.513	10.96
10.88961	384.547	10.9795
10.8912	380.1012	10.999
10.8932	372.22	11.0186
10.8953	386.629	11.0381
10.8948	383.7406	11.0576
10.8974	378.111	11.0771
10.8991	387.611	11.09668
10.9012	392.616	11.1162
10.9028	380.256	11.1357
10.9041	384.911	11.1553
10.9066	394.5	11.1748
10.9071	385.11	11.1943
10.9088	388.47	11.2139
10.9103	395.049	11.2334
10.9128	391.516	11.25293
10.9132	387.836	11.2725
10.9144	398.66	11.292
10.9173	395.063	11.3115
10.9189	390.616	11.3311
10.9211	399.325	11.3506
10.9216	401.099	11.3701
10.9226	392.417	11.3896
10.9257	400.998	11.40918
10.9276	405.99	11.4287
10.92811	399.089	11.4482
10.9305	399.244	11.4678
10.9312	411.461	11.4873
10.93198	399.1749	11.5068
10.9348	401.589	11.5264
10.9364	412.933	11.5459
10.9376	407.103	11.56543
10.94	399.918	11.585
10.9412	415.858	11.6045
10.9437	409.938	11.624
10.9455	405.011	11.6436
10.9453	414.901	11.6631
10.9479	416.411	11.6826
10.9505	406.394	11.7021
10.9511	417.818	11.72168
10.9529	420.6918	11.7412
10.9554	409.784	11.7607
10.9552	417.081	11.7803
10.9578	424.227	11.7998
10.9587	414.54	11.8193
10.9605	416.286	11.8389
10.963	426.582	11.8584
10.9647	420.932	11.87793
10.965	419.921	11.8975
10.9683	429.891	11.917
10.969	426.409	11.9365
10.9706	418.24	11.9561
10.9717	430.064	11.9756
10.9745	430.857	11.9951
10.9755	424.42	12.0146
10.9767	429.582	12.03418
10.9787	438.934	12.0537
10.9798	425.317	12.0732
10.9828	433.208	12.0928
10.9843	438.577	12.1123
10.9847	433.514	12.1318
10.9862	430.842	12.1514
10.989	444.532	12.1709
10.9902	434.147	12.19043
10.992	433.441	12.21
10.9939	445.441	12.2295
10.9954	444.627	12.249
10.997	431.3363	12.2686
10.9993	445.344	12.2881
10.9999	444.4411	12.3076
11.001	436.988	12.3271
11.0031	447.273	12.34668
11.0055	451.075	12.3662
11.0057	438.1792	12.3857
11.00838	447.099	12.4053
11.0094	455.144	12.4248
11.0122	443.742	12.4443
11.0127	448.073	12.4639
11.01437	455.988	12.4834
11.01674	447.999	12.50293
11.0179	445.691	12.5225
11.02	456.204	12.542
11.02059	453.631	12.5615
11.023	451.692	12.5811
11.0236	457.944	12.6006
11.0262	461.147	12.6201
11.0282	451.079	12.6396
11.029	461.949	12.65918
11.031	467.601	12.6787
11.0328	457.767	12.6982
11.0342	458.795	12.7178
11.0351	470.293	12.7373
11.0377	458.57	12.7568
11.0392	462.366	12.7764
11.0408	473.1062	12.7959
11.0426	466.677	12.81543
11.04358	460.212	12.835
11.0452	476.909	12.8545
11.0469	469.641	12.874
11.0494	463.5062	12.8936
11.0498	476.395	12.9131
11.0515	475.8515	12.9326
11.0537	465.748	12.9521
11.056	474.482	12.97168
11.0571	476.8602	12.9912
11.0598	469.354	13.0107
11.0603	476.717	13.0303
11.0619	483.275	13.0498
11.0631	473.045	13.0693
11.0647	476.118	13.0889
11.0665	485.771	13.1084
11.068	480.425	13.12793
11.0691	478.2934	13.1475
11.072	486.103	13.167
11.0736	485.563	13.1865
11.0748	479.11	13.2061
11.07618	489.103	13.2256
11.0785	487.653	13.2451
11.0798	482.679	13.2646
11.0813	486.459	13.28418
11.0824	494.833	13.3037
11.08502	481.771	13.3232
11.0866	490.68	13.3428
11.0872	497.269	13.3623
11.0892	492.252	13.3818
11.0907	486.758	13.4014
11.0922	501.123	13.4209
11.0946	492.452	13.44043
11.0962	493.961	13.46
11.0974	503.155	13.4795
11.099	499.468	13.499
11.1012	488.825	13.5186
11.1032	504.514	13.5381
11.1046	505.09	13.5576
11.1059	494.43	13.5771
11.1077	505.228	13.59668
11.1089	510.59	13.6162
11.1115	498.5386	13.6357
11.1114	505.152	13.6553
11.1134	511.156	13.6748
11.11603	502.264	13.6943
11.117	506.759	13.7139
11.1187	517.165	13.7334
11.1209	505.985	13.75293
11.122	504.867	13.7725
11.1241	516.48	13.792
11.1245	512.852	13.8115
11.126	508.892	13.8311
11.128	516.7912	13.8506
11.1303	518.942	13.8701
11.1315	509.491	13.8896
11.1333	519.978	13.90918
11.13516	522.4173	13.9287
11.1359	516.338	13.9482
11.1387	518.606	13.9678
11.139	529.249	13.9873
11.1411	516.603	14.0068
11.1433	519.243	14.0264
11.1451	529.43	14.0459
11.14631	525.414	14.06543
11.1485	518.147	14.085
11.1497	532.299	14.1045
11.1518	524.463	14.124
11.1522	520.994	14.1436
11.1553	533.101	14.1631
11.1562	533.1	14.1826
11.158	520.76	14.2021
11.1589	533.4903	14.22168
11.1612	537.89	14.2412
11.1618	528.188	14.2607
11.1648	533.068	14.2803
11.1656	541.549	14.2998
11.1665	530.743	14.3193
11.169	536.392	14.3389
11.1709	541.204	14.3584
11.1734	535.065	14.37793
11.1748	536.632	14.3975
11.1766	544.534	14.417
11.1774	543.8031	14.4365
11.1792	535.285	14.4561
11.1811	545.829	14.4756
11.1826	545.28	14.4951
11.1834	541.859	14.5146
11.1861	546.619	14.53418
11.187	549.874	14.5537
11.18838	541.255	14.5732
11.1904	547.124	14.5928
11.1923	554.01	14.6123
11.1937	548.9342	14.6318
11.1956	544.9743	14.6514
11.1967	560.2323	14.6709
11.1987	550.867	14.69043
11.1999	550.125	14.71
11.2025	559.274	14.7295
11.203	558.553	14.749
11.20489	548.026	14.7686
11.2067	562.331	14.7881
11.20831	559.267	14.8076
11.21032	553.079	14.8271
11.2103	560.85	14.84668
11.2127	566.528	14.8662
11.2126	554.499	14.8857
11.217	561.416	14.9053
11.2178	567.223	14.9248
11.2189	560.201	14.9443
11.2214	560.762	14.9639
11.22308	570.709	14.9834
11.2244	563.188	15.00293
11.22529	563.902	15.0225
11.2273	572.554	15.042
11.2294	566.226	15.0615
11.2308	565.006	15.0811
11.2334	572.823	15.1006
11.2347	575.453	15.1201
11.2352	565.484	15.1396
11.2375	573.545	15.15918
11.2384	575.404	15.1787
11.2408	572.477	15.1982
11.2431	573.693	15.2178
11.2438	581.2995	15.2373
11.2468	571.454	15.2568
11.2477	573.531	15.2764
11.2494	584.464	15.2959
11.25	579.032	15.31543
11.2528	570.794	15.335
11.2532	586.9649	15.3545
11.2549	581.626	15.374
11.2562	578.123	15.3936
11.2593	586.828	15.4131
11.26053	588.434	15.4326
11.2612	578.862	15.4521
11.2641	591.118	15.47168
11.2651	589.629	15.4912
11.2667	582.1095	15.5107
11.2691	588.419	15.5303
11.27	597.39	15.5498
11.272	585.111	15.5693
11.273	589.256	15.5889
11.27589	597.269	15.6084
11.2763	591.561	15.62793
11.2787	590.972	15.6475
11.2793	599.514	15.667
11.28114	594.791	15.6865
11.2832	590.123	15.7061
11.2839	601.364	15.7256
11.2861	600.271	15.7451
11.2884	594.459	15.7646
11.2895	598.266	15.78418
11.2913	606.5874	15.8037
11.2935	596.169	15.8232
11.2943	600.274	15.8428
11.296	607.37	15.8623
11.2974	602.273	15.8818
11.29879	600.753	15.9014
11.3009	611.3927	15.9209
11.3037	602.598	15.94043
11.3056	603.45	15.96
11.3065	613.608	15.9795
11.3071	613.462	15.999
11.3085	600.063	16.0186
11.3109	616.5011	16.0381
11.3118	613.176	16.0576
11.314	607.909	16.0771
11.3158	615.076	16.09668
11.3175	620.078	16.1162
11.3185	607.538	16.1357
11.3215	617.481	16.1553
11.3221	621.298	16.1748
11.3236	611.801	16.1943
11.3265	616.197	16.2139
11.3263	625.515	16.2334
11.3269	615.605	16.25293
11.3293	614.935	16.2725
11.332	625.657	16.292
11.3336	622.603	16.3115
11.3342	620.0788	16.3311
11.337	628.285	16.3506
11.3379	626.084	16.3701
11.3404	618.395	16.3896
11.3419	628.1178	16.40918
11.3425	631.647	16.4287
11.3452	623.029	16.4482
11.346	626.173	16.4678
11.3465	636.632	16.4873
11.3492	626.749	16.5068
11.3517	629.56	16.5264
11.353	637.363	16.5459
11.3542	633.788	16.56543
11.3562	628.533	16.585
11.3577	644.33	16.6045
11.3592	635.172	16.624
11.3612	631.13	16.6436
11.3623	641.024	16.6631
11.3652	642.9176	16.6826
11.3667	631.384	16.7021
11.3681	642.107	16.72168
11.3696	644.053	16.7412
11.3712	637.803	16.7607
11.3726	641.897	16.7803
11.3734	650.461	16.7998
11.376	637.181	16.8193
11.3781	642.551	16.8389
11.3784	651.5329	16.8584
11.3809	645.503	16.87793
11.3823	641.604	16.8975
11.3841	653.5	16.917
11.3861	648.966	16.9365
11.3874	645.905	16.9561
11.3892	652.553	16.9756
11.3906	652.925	16.9951
11.392	646.997	17.0146
11.3947	654.293	17.03418
11.3961	658.405	17.0537
11.3967	649.138	17.0732
11.39889	654.603	17.0928
11.3993	661.8208	17.1123
11.4017	656.457	17.1318
11.4029	651.959	17.1514
11.40563	665.343	17.1709
11.4071	655.43	17.19043
11.4089	658.1225	17.21
11.4096	664.373	17.2295
11.4112	663.126	17.249
11.4142	654.786	17.2686
11.4158	669.838	17.2881
11.4155	666.648	17.3076
11.4188	659.6189	17.3271
11.4193	666.613	17.34668
11.4216	673.565	17.3662
11.4229	659.63	17.3857
11.424	668.8	17.4053
11.4262	672.795	17.4248
11.4296	667.818	17.4443
11.4298	667.296	17.4639
11.431	678.767	17.4834
11.4325	667.944	17.50293
11.4342	669.716	17.5225
11.4356	677.501	17.542
11.4388	674.0813	17.5615
11.4382	670.808	17.5811
11.4408	677.61	17.6006
11.4421	679.6026	17.6201
11.44484	671.832	17.6396
11.4461	680.055	17.65918
11.4471	681.599	17.6787
11.4499	676.382	17.6982
11.4507	680.126	17.7178
11.4534	689.315	17.7373
11.45372	677.833	17.7568
11.4553	680.225	17.7764
11.4576	688.704	17.7959
11.4579	685.149	17.81543
11.4609	676.861	17.835
11.4627	691.367	17.8545
11.4634	687.617	17.874
11.4653	682.925	17.8936
11.4661	692.309	17.9131
11.4692	692.964	17.9326
11.4694	681.851	17.9521
11.472	694.536	17.97168
11.47369	696.367	17.9912
11.4742	687.021	18.0107
11.4769	691.262	18.0303
11.4778	701.222	18.0498
11.4804	687.897	18.0693
11.4817	693.987	18.0889
11.4835	701.246	18.1084
11.4843	694.121	18.12793
11.4859	693.617	18.1475
11.4875	705.494	18.167
11.4902	697.856	18.1865
11.4914	693.417	18.2061
11.4928	703.892	18.2256
11.4944	703.152	18.2451
11.4971	698.219	18.2646
11.4974	703.117	18.28418
11.4993	706.375	18.3037
11.5012	700.207	18.3232
11.5021	705.125	18.3428
11.5052	710.046	18.3623
11.505	703.9848	18.3818
11.5075	703.757	18.4014
11.5097	713.39	18.4209
11.5103	706.114	18.44043
11.5123	703.3512	18.46
11.5138	715.757	18.4795
11.5156	713.439	18.499
11.5173	705.933	18.5186
11.51916	717.926	18.5381
11.5209	712.842	18.5576
11.52305	706.8	18.5771
11.524	716.371	18.59668
11.5256	721.438	18.6162
11.5272	707.259	18.6357
11.5291	715.776	18.6553
11.52969	723.693	18.6748
11.5302	716.555	18.6943
11.5334	715.236	18.7139
11.5346	727.697	18.7334
11.5368	716.146	18.75293
11.5386	718.344	18.7725
11.5407	725.37	18.792
11.5418	720.022	18.8115
11.54223	716.86	18.8311
11.54545	728.245	18.8506
11.5468	727.425	18.8701
11.5491	720.6308	18.8896
11.5495	725.85	18.90918
11.5518	730.526	18.9287
11.5535	724.601	18.9482
11.555	727.97	18.9678
11.5566	734.312	18.9873
11.558	727.802	19.0068
11.5594	729.12	19.0264
11.56084	737.6684	19.0459
11.5632	733.351	19.06543
11.5639	725.049	19.085
11.566	738.781	19.1045
11.5677	735.5415	19.124
11.5698	730.465	19.1436
11.5712	737.965	19.1631
11.5724	740.711	19.1826
11.5748	730.429	19.2021
11.5755	740.53	19.22168
11.5784	741.049	19.2412
11.5796	733.735	19.2607
11.5814	739.002	19.2803
11.5817	749.264	19.2998
11.5837	734.703	19.3193
11.5859	740.618	19.3389
11.588	748.353	19.3584
11.5898	743.921	19.37793
11.5902	740.964	19.3975
11.5918	749.699	19.417
11.593	743.889	19.4365
11.5956	742.736	19.4561
11.5973	750.994	19.4756
11.6001	750.321	19.4951
11.6009	743.472	19.5146
11.602	750.8	19.53418
11.6043	752.051	19.5537
11.605	746.555	19.5732
11.6067	750.547	19.5928
11.6088	756.135	19.6123
11.6097	750.793	19.6318
11.6121	748.819	19.6514
11.6138	758.879	19.6709
11.6143	752.016	19.69043
11.6162	750.884	19.71
11.6194	760.849	19.7295
11.6187	758.845	19.749
11.6219	747.8717	19.7686
11.6235	762.863	19.7881
11.6246	761.668	19.8076
11.6259	754.28	19.8271
11.628	760.881	19.84668
11.6307	765.791	19.8662
11.6304	754.048	19.8857
11.63231	763.238	19.9053
11.6342	768.2746	19.9248
11.6356	758.254	19.9443
11.6374	760.9104	19.9639
11.6394	773.003	19.9834
11.6399	762.495	20.00293
11.6422	758.716	20.0127

Data Header:			0.254_hd_dimension_typei_090_r0			Time:	40.0173	s	4/15/2019 3:38:55 PM
Data Acquisition:	Timed
Station Name:	ft40.cfg
Test File Name:	monotonic_0.2540_typei_hd_090_dimension.tst
Displacement	Force	Running Time
mm	N	s
11.6428	761.573	20.0225
11.6442	769.671	20.042
11.64562	769.4408	20.0615
11.6476	762.797	20.0811
11.6497	771.654	20.1006
11.6502	768.4881	20.1201
11.6524	764.036	20.1396
11.6533	771.609	20.15918
11.6567	774.177	20.1787
11.6576	766.483	20.1982
11.6589	770.888	20.2178
11.6604	777.156	20.2373
11.6626	769.227	20.2568
11.6627	770.25	20.2764
11.6662	779.44	20.2959
11.66774	774.258	20.31543
11.6685	771.177	20.335
11.67	781.415	20.3545
11.6722	776.689	20.374
11.6734	771.687	20.3936
11.6733	782.353	20.4131
11.6767	785.399	20.4326
11.6799	772.0722	20.4521
11.6801	781.947	20.47168
11.6811	784.597	20.4912
11.6843	776.423	20.5107
11.685	780.316	20.5303
11.6865	788.125	20.5498
11.6886	775.195	20.5693
11.69031	781.2558	20.5889
11.69127	788.594	20.6084
11.6933	783.002	20.62793
11.6944	779.879	20.6475
11.6968	792.518	20.667
11.6985	786.206	20.6865
11.7	783.248	20.7061
11.7007	788.6817	20.7256
11.7031	790.084	20.7451
11.7045	784.028	20.7646
11.7065	791.217	20.78418
11.7077	791.917	20.8037
11.7104	784.789	20.8232
11.7107	787.7558	20.8428
11.7125	796.961	20.8623
11.7147	789.908	20.8818
11.716	787.197	20.9014
11.717	798.322	20.9209
11.7184	793.442	20.94043
11.7209	790.9151	20.96
11.7235	799.145	20.9795
11.725	797.154	20.999
11.7252	790.395	21.0186
11.72791	801.658	21.0381
11.72935	798.5799	21.0576
11.7296	791.248	21.0771
11.7326	798.56	21.09668
11.7335	806.1925	21.1162
11.7357	791.727	21.1357
11.7367	798.572	21.1553
11.7386	802.553	21.1748
11.7406	796.62	21.1943
11.7426	798.128	21.2139
11.7429	808.469	21.2334
11.7445	796.043	21.25293
11.747	800.4718	21.2725
11.74824	808.254	21.292
11.7511	806.922	21.3115
11.7517	797.69	21.3311
11.7529	809.218	21.3506
11.7565	807.021	21.3701
11.7567	801.471	21.3896
11.7591	805.645	21.40918
11.7603	811.503	21.4287
11.76151	802.693	21.4482
11.763	807.503	21.4678
11.7661	812.274	21.4873
11.76641	804.571	21.5068
11.7677	805.482	21.5264
11.769	815.036	21.5459
11.7706	809.867	21.56543
11.772	804.385	21.585
11.7748	814.251	21.6045
11.7754	811.842	21.624
11.7769	806.109	21.6436
11.7797	814.618	21.6631
11.7811	817.44	21.6826
11.7818	805.462	21.7021
11.7849	817.9881	21.72168
11.7857	819.2926	21.7412
11.7887	808.669	21.7607
11.7901	812.993	21.7803
11.7909	824.891	21.7998
11.7925	811.746	21.8193
11.7941	815.76	21.8389
11.7958	821.111	21.8584
11.798	817.692	21.87793
11.799	815.597	21.8975
11.8007	826.125	21.917
11.8029	816.892	21.9365
11.8036	816.12	21.9561
11.805	821.903	21.9756
11.80724	823.672	21.9951
11.8091	815.389	22.0146
11.8089	823.18	22.03418
11.8114	822.381	22.0537
11.8145	818.836	22.0732
11.8145	821.003	22.0928
11.8172	827.9939	22.1123
11.8187	821.397	22.1318
11.82016	822.167	22.1514
11.8207	829.78	22.1709
11.8231	824.414	22.19043
11.8242	818.518	22.21
11.8265	831.151	22.2295
11.8281	830.154	22.249
11.8301	819.047	22.2686
11.832	828.879	22.2881
11.8331	828.448	22.3076
11.83474	822.311	22.3271
11.8364	828.339	22.34668
11.8386	833.878	22.3662
11.8398	820.107	22.3857
11.8414	828.152	22.4053
11.843	834.635	22.4248
11.8452	826.471	22.4443
11.8461	827.7489	22.4639
11.8486	838.05	22.4834
11.8487	825.171	22.50293
11.8512	826.883	22.5225
11.8518	835.758	22.542
11.8552	833.071	22.5615
11.8555	827.911	22.5811
11.8572	838.5896	22.6006
11.8585	832.8645	22.6201
11.8606	828.133	22.6396
11.8617	833.734	22.65918
11.8655	839.019	22.6787
11.8659	830.504	22.6982
11.8666	833.028	22.7178
11.869	838.292	22.7373
11.8693	832.357	22.7568
11.8715	832.916	22.7764
11.873	839.823	22.7959
11.8745	834.866	22.81543
11.8776	829.972	22.835
11.8778	841.399	22.8545
11.8812	838.841	22.874
11.8819	830.846	22.8936
11.8831	839.246	22.9131
11.8848	844.304	22.9326
11.8875	832.05	22.9521
11.8884	839.882	22.97168
11.8897	840.902	22.9912
11.8921	833.908	23.0107
11.8933	837.9881	23.0303
11.8947	848.29	23.0498
11.8962	832.7569	23.0693
11.89805	839.968	23.0889
11.9005	846.057	23.1084
11.9006	841.58	23.12793
11.9029	835.6568	23.1475
11.9046	847.839	23.167
11.9077	840.203	23.1865
11.9084	839.497	23.2061
11.9095	845.061	23.2256
11.9113	844.502	23.2451
11.9118	836.047	23.2646
11.9136	846.088	23.28418
11.9154	845.931	23.3037
11.9182	838.752	23.3232
11.9194	842.301	23.3428
11.9204	847.975	23.3623
11.9218	840.784	23.3818
11.9252	842.446	23.4014
11.925	848.576	23.4209
11.928	841.578	23.44043
11.9293	838.763	23.46
11.93036	848.316	23.4795
11.9325	846.283	23.499
11.9337	838.209	23.5186
11.9359	846.894	23.5381
11.9368	848.923	23.5576
11.9391	839.401	23.5771
11.93952	845.471	23.59668
11.9418	852.156	23.6162
11.9443	839.7	23.6357
11.9458	846.942	23.6553
11.9473	851.303	23.6748
11.9491	844.25	23.6943
11.95096	842.499	23.7139
11.9517	856.823	23.7334
11.9542	843.086	23.75293
11.9549	844.811	23.7725
11.9571	852.1275	23.792
11.9589	850.492	23.8115
11.9597	844.003	23.8311
11.9622	852.341	23.8506
11.9637	847.354	23.8701
11.9654	843.289	23.8896
11.9671	848.5979	23.90918
11.9686	854.411	23.9287
11.97095	843.229	23.9482
11.9712	850.07	23.9678
11.9727	853.913	23.9873
11.9747	847.763	24.0068
11.9759	846.023	24.0264
11.97723	854.876	24.0459
11.9798	850.793	24.06543
11.9813	846.02	24.085
11.9818	853.93	24.1045
11.9847	851.137	24.124
11.9865	843.316	24.1436
11.9881	853.25	24.1631
11.9889	854.804	24.1826
11.9903	843.077	24.2021
11.9931	851.077	24.22168
11.9951	856.437	24.2412
11.9954	846.093	24.2607
11.9978	848.716	24.2803
11.9991	857.087	24.2998
12.0005	845.663	24.3193
12.0019	850.865	24.3389
12.00377	857.362	24.3584
12.0056	850.179	24.37793
12.00864	846.132	24.3975
12.0092	859.313	24.417
12.0104	851.127	24.4365
12.0129	849.099	24.4561
12.014	853.165	24.4756
12.015	855.051	24.4951
12.0173	848.373	24.5146
12.0173	855.879	24.53418
12.0197	854.232	24.5537
12.0213	849.455	24.5732
12.0228	851.096	24.5928
12.0255	859.618	24.6123
12.0275	849.827	24.6318
12.0285	850.101	24.6514
12.0293	858.456	24.6709
12.0316	852.649	24.69043
12.0337	846.58	24.71
12.0357	856.046	24.7295
12.0369	855.158	24.749
12.0383	846.902	24.7686
12.0395	857.005	24.7881
12.0413	855.892	24.8076
12.0445	846.9834	24.8271
12.0449	853.639	24.84668
12.0462	861.286	24.8662
12.0488	847.57	24.8857
12.0508	851.777	24.9053
12.0513	858.503	24.9248
12.0525	852.029	24.9443
12.0547	849.424	24.9639
12.0567	860.483	24.9834
12.0568	849.214	25.00293
12.0605	850.734	25.0225
12.061	857.697	25.042
12.0626	855.281	25.0615
12.0642	847.229	25.0811
12.0657	860.855	25.1006
12.0661	854.42	25.1201
12.069	849.41	25.1396
12.07117	853.656	25.15918
12.0729	858.476	25.1787
12.07366	849.126	25.1982
12.0754	855.224	25.2178
12.0766	856.41	25.2373
12.07888	850.495	25.2568
12.0809	849.113	25.2764
12.0822	861.367	25.2959
12.0837	853.212	25.31543
12.0854	848.72	25.335
12.0879	855.726	25.3545
12.0886	857.376	25.374
12.09021	847.939	25.3936
12.0921	854.067	25.4131
12.0937	857.332	25.4326
12.0955	847.679	25.4521
12.0961	854.271	25.47168
12.0982	857.627	25.4912
12.1	848.261	25.5107
12.1015	854.1463	25.5303
12.103	860.965	25.5498
12.1051	849.472	25.5693
12.1062	849.177	25.5889
12.109	858.211	25.6084
12.1101	851.453	25.62793
12.1117	847.28	25.6475
12.1136	858.176	25.667
12.1146	851	25.6865
12.117	848.101	25.7061
12.1182	855.731	25.7256
12.1195	857.169	25.7451
12.1224	847.423	25.7646
12.1232	855.205	25.78418
12.1243	854.202	25.8037
12.1269	850.338	25.8232
12.1281	849.34	25.8428
12.1283	858.375	25.8623
12.1308	849.448	25.8818
12.1329	851.041	25.9014
12.1354	855.4223	25.9209
12.136	852.1239	25.94043
12.1373	847.162	25.96
12.1391	857.9588	25.9795
12.14	854.144	25.999
12.1422	847.4137	26.0186
12.1437	852.733	26.0381
12.1455	855.46	26.0576
12.1473	845.444	26.0771
12.1503	852.37	26.09668
12.1509	856.609	26.1162
12.15169	844.906	26.1357
12.1534	850.815	26.1553
12.155	858.204	26.1748
12.15712	846.565	26.1943
12.159	846.713	26.2139
12.1599	858.8924	26.2334
12.1622	849.378	26.25293
12.1635	846.3692	26.2725
12.1656	852.56	26.292
12.1668	852.157	26.3115
12.1688	845.193	26.3311
12.1709	856.956	26.3506
12.1709	849.737	26.3701
12.1732	845.608	26.3896
12.1751	849.305	26.40918
12.1766	855.9339	26.4287
12.1782	845.426	26.4482
12.1787	850.617	26.4678
12.1814	851.958	26.4873
12.1833	849.275	26.5068
12.1847	842.632	26.5264
12.1859	855.584	26.5459
12.1879	848.036	26.56543
12.19004	847.617	26.585
12.1907	854.413	26.6045
12.1931	850.558	26.624
12.1939	841.17	26.6436
12.1968	851.026	26.6631
12.1977	853.157	26.6826
12.1985	843.502	26.7021
12.2021	849.657	26.72168
12.2031	852.684	26.7412
12.2041	842.9657	26.7607
12.2061	848.095	26.7803
12.2083	856.058	26.7998
12.2089	843.564	26.8193
12.2108	845.519	26.8389
12.2122	853.1355	26.8584
12.2134	846.815	26.87793
12.215	843.793	26.8975
12.2177	854.853	26.917
12.2192	847.154	26.9365
12.2218	843.513	26.9561
12.2219	847.836	26.9756
12.2246	849.164	26.9951
12.22586	841.596	27.0146
12.2268	851.738	27.03418
12.2282	850.186	27.0537
12.2299	843.713	27.0732
12.2315	843.717	27.0928
12.2338	853.479	27.1123
12.2356	844.437	27.1318
12.23594	845.8136	27.1514
12.238	848.916	27.1709
12.2399	848.203	27.19043
12.2419	841.326	27.21
12.2439	852.302	27.2295
12.245	847.885	27.249
12.2466	840.2074	27.2686
12.2487	849.037	27.2881
12.2504	851.218	27.3076
12.2519	839.0304	27.3271
12.2533	846.948	27.34668
12.2545	849.943	27.3662
12.2559	839.813	27.3857
12.2579	843.9162	27.4053
12.2594	849.6488	27.4248
12.2612	841.791	27.4443
12.2633	842.991	27.4639
12.265	853.663	27.4834
12.2657	842.612	27.50293
12.2681	839.822	27.5225
12.2696	848.67	27.542
12.2711	845.767	27.5615
12.2728	838.696	27.5811
12.2738	850.196	27.6006
12.2754	844.3172	27.6201
12.2774	840.026	27.6396
12.2783	845.537	27.65918
12.2808	848.7832	27.6787
12.2823	838.71	27.6982
12.284	844.287	27.7178
12.2859	848.219	27.7373
12.2883	842.04	27.7568
12.2888	836.739	27.7764
12.2899	849.8714	27.7959
12.292	844.525	27.81543
12.2936	840.293	27.835
12.2946	845.665	27.8545
12.2972	845.546	27.874
12.2989	837.836	27.8936
12.30049	848.123	27.9131
12.3021	849.625	27.9326
12.3039	836.323	27.9521
12.3047	842.9704	27.97168
12.3071	849.349	27.9912
12.3082	836.761	28.0107
12.3095	840.7229	28.0303
12.3116	851.008	28.0498
12.3141	838.63	28.0693
12.3143	839.553	28.0889
12.3179	848.418	28.1084
12.3175	840.046	28.12793
12.3196	835.786	28.1475
12.321	849.22	28.167
12.3225	840.515	28.1865
12.3243	836.553	28.2061
12.3264	843.013	28.2256
12.3285	845.673	28.2451
12.3294	836.934	28.2646
12.3312	844.566	28.28418
12.3336	843.334	28.3037
12.33317	838.591	28.3232
12.3357	840.1795	28.3428
12.3379	847.831	28.3623
12.3398	837.751	28.3818
12.3417	839.418	28.4014
12.3427	846.353	28.4209
12.3445	843.303	28.44043
12.3457	835.368	28.46
12.3482	845.68	28.4795
12.35	841.968	28.499
12.3508	838.2262	28.5186
12.3537	840.855	28.5381
12.3537	844.882	28.5576
12.3551	833.039	28.5771
12.3576	841.211	28.59668
12.3597	847.486	28.6162
12.3604	834.911	28.6357
12.36093	837.223	28.6553
12.3635	847.933	28.6748
12.3652	837.325	28.6943
12.367	836.767	28.7139
12.3678	846.871	28.7334
12.3709	836.4057	28.75293
12.3715	837.1806	28.7725
12.37369	844.971	28.792
12.3752	840.1839	28.8115
12.3764	834.845	28.8311
12.3784	846.592	28.8506
12.3799	841.362	28.8701
12.3814	835.108	28.8896
12.383	840.794	28.90918
12.3845	845.662	28.9287
12.3865	833.962	28.9482
12.3882	841.739	28.9678
12.3888	842.069	28.9873
12.3926	836.755	29.0068
12.3924	834.142	29.0264
12.39432	845.905	29.0459
12.3952	836.411	29.06543
12.397	834.553	29.085
12.3998	842.306	29.1045
12.4004	842.881	29.124
12.4023	832.98	29.1436
12.4055	842.404	29.1631
12.4066	841.757	29.1826
12.4083	834.255	29.2021
12.41	839.372	29.22168
12.41078	844.244	29.2412
12.4119	832.487	29.2607
12.4141	837.869	29.2803
12.416	845.966	29.2998
12.4175	835.049	29.3193
12.4195	833.716	29.3389
12.4205	844.37	29.3584
12.423	837.013	29.37793
12.42382	833.126	29.3975
12.4262	845.797	29.417
12.427	837.672	29.4365
12.4298	833.28	29.4561
12.4303	841.912	29.4756
12.43219	841.406	29.4951
12.4334	831.548	29.5146
12.43537	840.673	29.53418
12.4362	840.451	29.5537
12.4393	833.91	29.5732
12.4406	836.116	29.5928
12.4403	841.775	29.6123
12.4434	833.877	29.6318
12.445	836.56	29.6514
12.447	840.989	29.6709
12.4485	836.969	29.69043
12.4493	831.211	29.71
12.4521	842.931	29.7295
12.4522	839.226	29.749
12.4543	833.281	29.7686
12.4566	838.54	29.7881
12.4582	841.55	29.8076
12.4598	830.264	29.8271
12.4608	837.988	29.84668
12.4624	842.196	29.8662
12.4648	832.194	29.8857
12.4666	834.822	29.9053
12.4673	842.777	29.9248
12.4699	832.5	29.9443
12.4714	831.973	29.9639
12.4725	845.182	29.9834
12.4743	836.48	30.00293
12.4758	829.415	30.0225
12.47767	841.113	30.042
12.4793	837.344	30.0615
12.4803	829.947	30.0811
12.4823	843.092	30.1006
12.4836	836.47	30.1201
12.485	832.136	30.1396
12.487	838.447	30.15918
12.4882	842.475	30.1787
12.4908	830.372	30.1982
12.4927	838.922	30.2178
12.493	838.788	30.2373
12.4956	834.386	30.2568
12.4972	832.211	30.2764
12.4993	841.954	30.2959
12.5007	835.436	30.31543
12.5027	833.374	30.335
12.5037	838.814	30.3545
12.5056	838.929	30.374
12.5061	828.46	30.3936
12.508	841.174	30.4131
12.5105	839.269	30.4326
12.5113	831.9704	30.4521
12.5141	835.1344	30.47168
12.5147	841.995	30.4912
12.5166	830.844	30.5107
12.5186	833.281	30.5303
12.5194	843.068	30.5498
12.5221	829.46	30.5693
12.52264	830.101	30.5889
12.52507	842.621	30.6084
12.5269	832.509	30.62793
12.52786	827.864	30.6475
12.5302	841.604	30.667
12.5317	836.6778	30.6865
12.5325	828.165	30.7061
12.5354	836.521	30.7256
12.5364	836.864	30.7451
12.5378	827.653	30.7646
12.5392	838.756	30.78418
12.5409	837.502	30.8037
12.5436	829.74	30.8232
12.5449	833.91	30.8428
12.5457	841.0719	30.8623
12.5475	832.0083	30.8818
12.5501	831.701	30.9014
12.5516	837.6156	30.9209
12.5529	835.1521	30.94043
12.5539	827.785	30.96
12.5564	839.206	30.9795
12.5569	835.667	30.999
12.5593	830.771	31.0186
12.5602	835.879	31.0381
12.5634	839.204	31.0576
12.5636	826.282	31.0771
12.5656	832.678	31.09668
12.5671	839.147	31.1162
12.5687	830.32	31.1357
12.5698	831.837	31.1553
12.57163	840.891	31.1748
12.5729	828.576	31.1943
12.5747	830.772	31.2139
12.5767	841.235	31.2334
12.5782	831.015	31.25293
12.5797	829.813	31.2725
12.58272	840.005	31.292
12.5834	835.524	31.3115
12.5848	826.161	31.3311
12.5875	837.521	31.3506
12.5877	836.705	31.3701
12.5891	828.426	31.3896
12.5917	832.942	31.40918
12.5927	837.374	31.4287
12.595	828.018	31.4482
12.5961	835.275	31.4678
12.59834	838.463	31.4873
12.5999	831.4	31.5068
12.6013	828.056	31.5264
12.6029	839.979	31.5459
12.60475	833.06	31.56543
12.6063	831.285	31.585
12.6073	835.478	31.6045
12.6102	836.182	31.624
12.6109	827.497	31.6436
12.61361	837.142	31.6631
12.6147	836.229	31.6826
12.61544	828.6712	31.7021
12.618	832.599	31.72168
12.6197	840.076	31.7412
12.6202	826.548	31.7607
12.6221	831.443	31.7803
12.6242	838.764	31.7998
12.6265	830.348	31.8193
12.6279	829.298	31.8389
12.6277	838.609	31.8584
12.6304	830.7403	31.87793
12.6316	828.564	31.8975
12.6333	839.735	31.917
12.6345	832.082	31.9365
12.638	825.636	31.9561
12.6391	835.798	31.9756
12.6402	836.883	31.9951
12.6431	826.0611	32.0146
12.6432	833.435	32.03418
[...]
13.3682	831.486	40.7256
13.3685	835.1366	40.7354
13.3703	827.833	40.7451
13.3702	823.113	40.7549
13.3716	822.515	40.7646
13.3721	822.348	40.7744
13.3727	831.707	40.78418
13.37345	833.927	40.7939
13.3744	832.4837	40.8037
13.3751	828.047	40.8135
13.3754	818.656	40.8232
13.37658	821.194	40.833
13.3773	826.534	40.8428
13.378	832.3548	40.8525
13.3794	831.903	40.8623
13.37993	825.209	40.87207
13.3797	823.411	40.8818
13.3815	822.335	40.8916
13.3832	823.865	40.9014
13.3835	829.449	40.9111
13.3833	832.958	40.9209
13.3852	830.833	40.9307
13.385	824.127	40.94043
13.3863	821.384	40.9502
13.3871	822.314	40.96
13.3882	827.327	40.9697
13.3892	830.802	40.9795
13.3893	830.2655	40.9893
13.3911	825.08	40.999
13.39073	825.709	41.0088
13.3918	821.49	41.0186
13.3927	824.335	41.02832
13.39457	830.277	41.0381
13.3947	832.101	41.0479
13.3948	828.997	41.0576
13.3974	824.8266	41.0674
13.398	819.446	41.0771
13.3974	824.589	41.0869
13.399	828.489	41.09668
13.3985	830.653	41.1064
13.4001	831.179	41.1162
13.40086	829.803	41.126
13.4018	824.633	41.1357
13.4037	821.138	41.1455
13.4034	826.235	41.1553
13.4051	830.474	41.165
13.4052	832.408	41.1748
13.4069	829.3349	41.18457
13.4062	822.346	41.1943
13.409	821.68	41.2041
13.4084	826.407	41.2139
13.4096	826.587	41.2236
13.4106	831.923	41.2334
13.4114	832.889	41.2432
13.4119	826.067	41.25293
13.4139	821.46	41.2627
13.4137	819.055	41.2725
13.4139	825.843	41.2822
13.4152	833.283	41.292
13.4149	832.726	41.3018
13.4172	828.094	41.3115
13.4173	822.078	41.3213
13.4191	821.023	41.3311
13.4185	825.052	41.34082
13.42	830.677	41.3506
13.4213	835.0683	41.3604
13.4214	832.031	41.3701
13.42341	825.514	41.3799
13.4226	819.357	41.3896
13.4237	820.782	41.3994
13.4239	831.072	41.40918
13.426	834.653	41.4189
13.427	830.263	41.4287
13.4274	826.711	41.4385
13.4278	822.088	41.4482
13.4283	821.848	41.458
13.4296	827.31	41.4678
13.4304	830.852	41.4775
13.4313	834.765	41.4873
13.4325	828.838	41.49707
13.4329	821.054	41.5068
13.43326	819.481	41.5166
13.4348	824.6	41.5264
13.4352	832.116	41.5361
13.4364	831.81	41.5459
13.4371	827.857	41.5557
13.4376	827.405	41.56543
13.4379	821.716	41.5752
13.4384	823.885	41.585
13.4401	826.542	41.5947
13.4408	831.849	41.6045
13.4429	832.105	41.6143
13.4425	823.861	41.624
13.4436	823.02	41.6338
13.4433	822.331	41.6436
13.4459	824.3	41.65332
13.4462	830.39	41.6631
13.4456	829.691	41.6729
13.44752	828.341	41.6826
13.4475	825.773	41.6924
13.4488	820.21	41.7021
13.4504	820.5047	41.7119
13.4509	826.403	41.72168
13.4527	831.674	41.7314
13.4527	829.7254	41.7412
13.4534	824.858	41.751
13.4538	819.413	41.7607
13.4546	823.029	41.7705
13.4555	824.862	41.7803
13.4565	830.13	41.79
13.458	830.848	41.7998
13.458	830.062	41.80957
13.4582	825.208	41.8193
13.4601	818.4046	41.8291
13.46195	821.987	41.8389
13.4614	828.797	41.8486
13.4623	832.423	41.8584
13.4635	831.238	41.8682
13.4645	820.171	41.87793
13.4638	821.545	41.8877
13.4649	821.444	41.8975
13.4659	824.678	41.9072
13.4672	831.421	41.917
13.4689	832.716	41.9268
13.469	828.759	41.9365
13.4699	821.948	41.9463
13.4692	817.235	41.9561
13.4723	823.0188	41.96582
13.4719	832.125	41.9756
13.4728	834.308	41.9854
13.473	827.319	41.9951
13.4744	822.496	42.0049
13.4757	820.497	42.0146
13.4768	821.268	42.0244
13.4772	828.0578	42.03418
13.477	831.967	42.0439
13.4779	830.882	42.0537
13.4787	826.6106	42.0635
13.4813	818.797	42.0732
13.4805	821.791	42.083
13.4804	827.392	42.0928
13.48261	832.775	42.1025
13.4829	831.244	42.1123
13.4839	826.577	42.12207
13.4855	821.687	42.1318
13.486	822.153	42.1416
13.486	823.369	42.1514
13.4877	826.3125	42.1611
13.4882	833.716	42.1709
13.4896	829.309	42.1807
13.4892	823.888	42.19043
13.4906	821.737	42.2002
13.4918	821.578	42.21
13.4918	828.547	42.2197
13.49258	830.465	42.2295
13.4935	830.427	42.2393
13.4949	827.734	42.249
13.4952	822.931	42.2588
13.4974	822.724	42.2686
13.4981	824.44	42.27832
13.4973	828.483	42.2881
13.49833	832.839	42.2979
13.4993	828.472	42.3076
13.5001	824.757	42.3174
13.50163	820.2301	42.3271
13.5019	824.784	42.3369
13.5024	827.737	42.34668
13.5037	829.223	42.3564
13.5046	829.498	42.3662
13.5064	828.251	42.376
13.5059	821.301	42.3857
13.507	819.07	42.3955
13.5093	822.1272	42.4053
13.5082	829.8194	42.415
13.5093	831.569	42.4248
13.5103	826.415	42.43457
13.51115	821.488	42.4443
13.5121	821.648	42.4541
13.5139	821.21	42.4639
13.51441	825.809	42.4736
13.5145	828.972	42.4834
13.5142	831.1405	42.4932
13.5161	825.371	42.50293
13.5165	819.1228	42.5127
13.5179	820.402	42.5225
13.5199	826.733	42.5322
13.5189	831.9743	42.542
13.5211	832.996	42.5518
13.5206	823.2854	42.5615
13.5209	821.36	42.5713
13.5227	820.057	42.5811
13.5234	823.145	42.59082
13.5241	829.454	42.6006
13.5253	831.669	42.6104
13.5261	831.157	42.6201
13.5273	822.0838	42.6299
13.5272	816.561	42.6396
13.528	822.294	42.6494
13.5289	828.4342	42.65918
13.5308	833.914	42.6689
13.53027	829.262	42.6787
13.5313	825.539	42.6885
13.5316	821.377	42.6982
13.5333	819.232	42.708
13.5324	826.112	42.7178
13.5348	831.02	42.7275
13.5359	833.444	42.7373
13.5368	827.659	42.74707
13.5378	820.596	42.7568
13.5381	819.688	42.7666
13.53903	825.399	42.7764
13.5394	830.064	42.7861
13.5402	831.335	42.7959
13.5414	827.255	42.8057
13.5409	823.522	42.81543
13.5433	822.5321	42.8252
13.544	822.845	42.835
13.5456	825.371	42.8447
13.5449	830.702	42.8545
13.5458	830.235	42.8643
13.5461	826.138	42.874
13.548	821.8656	42.8838
13.5496	822.056	42.8936
13.5489	827.449	42.90332
13.55048	827.938	42.9131
13.5508	830.7915	42.9229
13.5526	827.188	42.9326
13.553	825.674	42.9424
13.5541	821.727	42.9521
13.5543	820.515	42.9619
13.5555	827.359	42.97168
13.5569	830.137	42.9814
13.5568	827.589	42.9912
13.5565	825.927	43.001
13.5583	819.844	43.0107
13.5581	822.398	43.0205
13.5598	823.658	43.0303
13.5606	827.072	43.04
13.5619	831.242	43.0498
13.5622	828.726	43.05957
13.5629	823.946	43.0693
13.5642	818.646	43.0791
13.5652	820.754	43.0889
13.5661	828.945	43.0986
13.5668	830.777	43.1084
13.5678	829.042	43.1182
13.5676	823.153	43.12793
13.5688	820.537	43.1377
13.5686	821.122	43.1475
13.5711	822.072	43.1572
13.5714	829.291	43.167
13.572	832.93	43.1768
13.5722	828.122	43.1865
13.5732	819.142	43.1963
13.5758	816.759	43.2061
13.5758	822.456	43.21582
13.5764	830.911	43.2256
13.5767	831.49	43.2354
13.5771	828.749	43.2451
13.5795	825.005	43.2549
13.579	819.599	43.2646
13.5796	820.08	43.2744
13.5813	826.4538	43.28418
13.5821	832.533	43.2939
13.5821	834.306	43.3037
13.5826	823.101	43.3135
13.5841	818.7005	43.3232
13.5849	818.851	43.333
13.5866	826.734	43.3428
13.5863	832.678	43.3525
13.5869	827.6734	43.3623
13.5878	827.859	43.37207
13.5901	821.047	43.3818
13.5902	818.911	43.3916
13.5912	822.9176	43.4014
13.5908	827.112	43.4111
13.59232	833.438	43.4209
13.593	830.719	43.4307
13.5954	820.713	43.44043
13.5951	819.828	43.4502
13.5959	822.104	43.46
13.597	827.758	43.4697
13.5977	830.912	43.4795
13.5975	828.891	43.4893
13.5999	827.637	43.499
13.6004	822.927	43.5088
13.6015	818.906	43.5186
13.6007	823.607	43.52832
13.6026	828.7818	43.5381
13.6031	831.689	43.5479
13.6044	827.753	43.5576
13.6037	822.855	43.5674
13.6048	821.986	43.5771
13.6068	822.409	43.5869
13.60759	825.183	43.59668
13.6071	829.042	43.6064
13.60866	828.719	43.6162
13.6097	827.079	43.626
13.6101	820.657	43.6357
13.6115	818.765	43.6455
13.612	824.896	43.6553
13.6129	829.235	43.665
13.613	829.9989	43.6748
13.6143	827.85	43.68457
13.61548	819.459	43.6943
13.6156	819.966	43.7041
13.6168	821.168	43.7139
13.6172	823.498	43.7236
13.6185	831.372	43.7334
13.61975	828.852	43.7432
13.6209	826.368	43.75293
13.62094	818.206	43.7627
13.6217	816.933	43.7725
13.6227	826.355	43.7822
13.6229	829.546	43.792
13.6245	831.655	43.8018
13.6247	824.161	43.8115
13.6263	821.062	43.8213
13.6263	820.658	43.8311
13.6278	820.364	43.84082
13.6292	828.925	43.8506
13.6283	831.869	43.8604
13.6305	830.21	43.8701
13.63089	821.798	43.8799
13.6312	815.906	43.8896
13.6332	819.485	43.8994
13.6335	829.938	43.90918
13.6337	830.15	43.9189
13.6347	827.5	43.9287
13.636	824.098	43.9385
13.6363	819.8692	43.9482
13.6377	820.24	43.958
13.6388	823.946	43.9678
13.6381	829.102	43.9775
13.6401	831.783	43.9873
13.6407	825.011	43.99707
13.6411	820.142	44.0068
13.6422	817.061	44.0166
13.6433	824.445	44.0264
13.6432	828.4682	44.0361
13.64484	828.722	44.0459
13.6452	828.576	44.0557
13.6458	823.755	44.06543
13.6466	819.132	44.0752
13.648	821.802	44.085
13.6478	823.431	44.0947
13.6496	830.123	44.1045
13.6508	831.281	44.1143
13.65235	823.08	44.124
13.6517	820.622	44.1338
13.65324	819.4447	44.1436
13.6532	824.401	44.15332
13.6549	827.237	44.1631
13.6548	828.876	44.1729
13.6557	828.3764	44.1826
13.65603	823.025	44.1924
13.6572	819.264	44.2021
13.6582	820.079	44.2119
13.6593	825.207	44.22168
13.6604	832.473	44.2314
13.6611	827.273	44.2412
13.6617	824.274	44.251
13.6625	820.74	44.2607
13.6631	820.792	44.2705
13.6643	822.858	44.2803
13.6654	826.897	44.29
13.66589	829.717	44.2998
13.6654	829.179	44.30957
13.6672	821.676	44.3193
13.6676	817.491	44.3291
13.6688	820.066	44.3389
13.6681	825.281	44.3486
13.6708	831.505	44.3584
13.671	828.071	44.3682
13.6722	823.142	44.37793
13.67407	819.559	44.3877
13.674	819.226	44.3975
13.6754	823.18	44.4072
13.6748	829.551	44.417
13.6756	831.227	44.4268
13.6773	826.989	44.4365
13.67805	817.794	44.4463
13.6787	817.949	44.4561
13.6797	823.432	44.46582
13.6805	829.195	44.4756
13.6811	831.605	44.4854
13.682	824.311	44.4951
13.6832	822.166	44.5049
13.6845	818.067	44.5146
13.6841	816.6377	44.5244
13.6846	824.504	44.53418
13.6859	830.5	44.5439
13.6875	831.163	44.5537
13.68747	824.424	44.5635
13.6897	814.254	44.5732
13.6891	818.754	44.583
13.6899	825.634	44.5928
13.6906	829.302	44.6025
13.6917	829.789	44.6123
13.6929	824.045	44.62207
13.69367	821.723	44.6318
13.6943	817.625	44.6416
13.6955	821.703	44.6514
13.6956	827.728	44.6611
13.6965	829.662	44.6709
13.69739	828.15	44.6807
13.6982	819.051	44.69043
13.6992	815.981	44.7002
13.6994	821.041	44.71
13.7005	824.644	44.7197
13.7008	826.889	44.7295
13.7023	828.259	44.7393
13.7026	822.869	44.749
13.7044	820.117	44.7588
13.7036	819.113	44.7686
13.7053	821.052	44.77832
13.7068	828.39	44.7881
13.7081	828.812	44.7979
13.7083	823.835	44.8076
13.7099	820.443	44.8174
13.7107	817.853	44.8271
13.7104	824.137	44.8369
13.7118	824.712	44.84668
13.7125	826.4314	44.8564
13.7133	827.336	44.8662
13.7134	822.927	44.876
13.7148	820.158	44.8857
13.7151	816.421	44.8955
13.71638	821.821	44.9053
13.7168	827.259	44.915
13.718	827.804	44.9248
13.7192	826.1391	44.93457
13.719	820.722	44.9443
13.7202	818.237	44.9541
13.7216	819.495	44.9639
13.722	823.0578	44.9736
13.7228	829.0733	44.9834
13.7239	829.007	44.9932
13.7245	823.567	45.00293
13.7253	818.321	45.0127
13.7266	816.636	45.0225
13.7272	824.852	45.0322
13.727	828.428	45.042
13.72826	829.472	45.0518
13.7291	823.667	45.0615
13.7303	821.009	45.0713
13.7306	817.2724	45.0811
13.73091	820.375	45.09082
13.7326	824.754	45.1006
13.7336	832.136	45.1104
13.735	828.6546	45.1201
13.7348	818.636	45.1299
13.7351	815.569	45.1396
13.7368	818.931	45.1494
13.7374	824.857	45.15918
13.7381	830.136	45.1689
13.7388	824.981	45.1787
13.7397	824.213	45.1885
13.7409	817.4704	45.1982
13.74109	815.464	45.208
13.7425	824.049	45.2178
13.743	827.04	45.2275
13.7436	832.283	45.2373
13.74318	824.7793	45.24707
13.7464	815.704	45.2568
13.74646	816.224	45.2666
13.7469	821.1145	45.2764
13.7474	826.858	45.2861
13.7491	827.275	45.2959
13.75	825.757	45.3057
13.74868	821.577	45.31543
13.7517	816.015	45.3252
13.7524	819.0285	45.335
13.7528	823.6	45.3447
13.7538	828.704	45.3545
13.7544	829.09	45.3643
13.7549	821.61	45.374
13.7564	818.01	45.3838
13.7563	820.7594	45.3936
13.7575	821.691	45.40332
13.7584	824.784	45.4131
13.7601	827.19	45.4229
13.7601	825.152	45.4326
13.7614	821.794	45.4424
13.7619	817.987	45.4521
13.7625	818.012	45.4619
13.7632	826.558	45.47168
13.7645	827.879	45.4814
13.7652	825.2	45.4912
13.766	820.965	45.501
13.7668	817.504	45.5107
13.7671	820.197	45.5205
13.7687	819.252	45.5303
13.7687	824.709	45.54
13.7695	826.485	45.5498
13.7712	825.773	45.55957
13.771	820.717	45.5693
13.7728	814.156	45.5791
13.773	820.794	45.5889
13.7742	824.808	45.5986
13.7755	826.045	45.6084
13.7757	827.527	45.6182
13.7767	821.354	45.62793
13.7772	819.468	45.6377
13.7789	818.859	45.6475
13.7789	819.274	45.6572
13.7789	827.031	45.667
13.7801	828.452	45.6768
13.7807	824.47	45.6865
13.7817	817.231	45.6963
13.78278	815.6228	45.7061
13.784	821.475	45.71582
13.7846	826.14	45.7256
13.7857	828.588	45.7354
13.7861	825.791	45.7451
13.7872	820.059	45.7549
13.7884	816.951	45.7646
13.7889	816.543	45.7744
13.7888	821.47	45.78418
13.7902	828.634	45.7939
13.7913	829.15	45.8037
13.7924	820.883	45.8135
13.7938	816.114	45.8232
13.7923	815.718	45.833
13.7934	821.095	45.8428
13.7944	827.327	45.8525
13.7954	827.638	45.8623
13.7969	824.857	45.87207
13.7977	817.631	45.8818
13.7989	815.35	45.8916
13.7989	819.322	45.9014
13.8003	824.655	45.9111
13.8008	830.496	45.9209
13.802	824.955	45.9307
13.80237	818.644	45.94043
13.8034	815.01	45.9502
13.80481	817.169	45.96
13.806	824.084	45.9697
13.8053	825.489	45.9795
13.8064	826.089	45.9893
13.8081	823.09	45.999
13.80814	815.352	46.0088
13.8096	816.803	46.0186
13.8094	818.803	46.02832
13.8106	824.368	46.0381
13.8113	827.368	46.0479
13.8126	820.602	46.0576
13.8135	817.693	46.0674
13.8145	816.533	46.0771
13.8151	819.647	46.0869
13.8156	820.8576	46.09668
13.816	824.738	46.1064
13.817	825.013	46.1162
13.818	822.129	46.126
13.8184	813.804	46.1357
13.8193	813.864	46.1455
13.8209	818.719	46.1553
13.8204	825.753	46.165
13.8219	825.088	46.1748
13.8231	821.952	46.18457
13.8236	818.945	46.1943
13.82444	816.684	46.2041
13.8256	815.154	46.2139
13.8255	819.975	46.2236
13.827	824.954	46.2334
13.8281	826.629	46.2432
13.8281	819.65	46.25293
13.82935	811.782	46.2627
13.8303	814.297	46.2725
13.8309	821.247	46.2822
13.8313	825.067	46.292
13.8327	827.215	46.3018
13.8339	820.499	46.3115
13.8347	817.169	46.3213
13.8344	813.307	46.3311
13.8363	815.0993	46.34082
13.8365	822.614	46.3506
13.8377	825.037	46.3604
13.8375	823.064	46.3701
13.839	815.148	46.3799
13.8395	810.685	46.3896
13.8409	814.942	46.3994
13.8414	818.752	46.40918
13.8428	823.832	46.4189
13.843	820.848	46.4287
13.8443	816.6405	46.4385
13.84431	811.233	46.4482
13.8443	806.229	46.458
13.8528	-101.488	46.4678
13.8541	-62.111	46.4775
13.8537	-39.9172	46.4873
13.8537	-52.4595	46.49707
13.8544	-42.30925	46.5068
13.85323	-50.99596	46.5166
13.8535	-42.8999	46.5264
13.8543	-43.3144	46.5361
13.8542	-41.6456	46.5459
13.8545	-41.5937	46.5557
13.8556	-48.7174	46.56543
13.8566	-53.6692	46.5752
13.85708	-50.1443	46.585
13.8578	-45.8982	46.5947
13.858	-39.4965	46.6045
13.8597	-40.6892	46.6143
13.8598	-46.5306	46.624
13.86164	-52.429	46.6338
13.861	-51.1421	46.6436
13.8618	-45.1212	46.65332
13.863	-44.7402	46.6631
13.8641	-40.8888	46.6729
13.86463	-42.6215	46.6826
13.8652	-47.9416	46.6924
13.8663	-49.837	46.7021
13.8677	-50.3423	46.7119
13.86826	-40.893	46.72168
13.8697	-39.7872	46.7314
13.86981	-43.8918	46.7412
13.8702	-45.22863	46.751
13.8707	-49.552	46.7607
13.87142	-48.9083	46.7705
13.8731	-48.588	46.7803
13.8739	-42.1812	46.79
13.8748	-38.6605	46.7998
13.8759	-43.61248	46.80957
13.877	-48.6584	46.8193
13.8768	-50.8411	46.8291
13.8787	-48.2839	46.8389
13.8787	-41.2168	46.8486
13.8787	-41.1109	46.8584
13.8802	-39.3968	46.8682
13.8804	-44.9762	46.87793
13.8813	-49.5885	46.8877
13.8826	-50.6167	46.8975
13.8837	-49.1493	46.9072
13.8839	-42.397	46.917
13.8858	-37.3548	46.9268
13.8862	-43.5471	46.9365
13.8872	-50.58429	46.9463
13.8879	-51.6213	46.9561
13.8887	-47.8836	46.96582
13.8888	-42.0441	46.9756
13.8906	-38.6096	46.9854
13.8898	-41.9569	46.9951
13.8917	-45.4218	47.0049
13.8921	-53.021	47.0146
13.894	-50.4555	47.0244
13.8934	-44.7065	47.03418
13.8953	-38.4946	47.0439
13.895	-38.3731	47.0537
13.8961	-48.3878	47.0635
13.8965	-52.067	47.0732
13.8974	-51.77486	47.083
13.8991	-46.8779	47.0928
13.8998	-39.1411	47.1025
13.9007	-40.7503	47.1123
13.9009	-43.4189	47.12207
13.9025	-47.6598	47.1318
13.90314	-53.8033	47.1416
13.9045	-49.127	47.1514
13.9045	-43.5699	47.1611
13.90451	-38.30835	47.1709
13.9046	-41.4263	47.1807
13.906	-50.45549	47.19043
13.9081	-51.217	47.2002
13.9085	-46.7207	47.21
13.9096	-46.1845	47.2197
13.9108	-41.2384	47.2295
13.9108	-40.9087	47.2393
13.9114	-41.9936	47.249
13.9141	-49.707	47.2588
13.9131	-50.229	47.2686
13.9143	-45.4619	47.27832
13.9146	-40.3538	47.2881
13.9164	-37.6934	47.2979
13.9163	-43.74165	47.3076
13.9182	-48.61319	47.3174
13.9183	-49.2396	47.3271
13.92	-47.4321	47.3369
13.9204	-45.887	47.34668
13.9208	-39.5658	47.3564
13.9218	-41.9248	47.3662
13.9237	-45.10096	47.376
13.9223	-49.8612	47.3857
13.92417	-51.6532	47.3955
13.9241	-43.3156	47.4053
13.9251	-41.1337	47.415
13.9271	-41.8454	47.4248
13.9271	-44.0751	47.43457
13.9288	-47.1251	47.4443
13.9283	-47.9622	47.4541
13.92918	-49.2894	47.4639
13.9304	-44.9653	47.4736
13.9308	-39.4419	47.4834
13.9325	-40.059	47.4932
13.9325	-45.7799	47.50293
13.9338	-51.0557	47.5127
13.9351	-49.1386	47.5225
13.936	-43.9394	47.5322
13.9358	-43.0205	47.542
13.9377	-39.7877	47.5518
13.9376	-43.3697	47.5615
13.9385	-48.8343	47.5713
13.94	-51.3682	47.5811
13.9401	-49.8852	47.59082
13.9407	-43.2672	47.6006
13.9428	-36.8681	47.6104
13.943	-41.7723	47.6201
13.944	-46.82988	47.6299
13.9444	-51.6225	47.6396
13.945	-49.1347	47.6494
13.9461	-44.2619	47.65918
13.947	-40.92244	47.6689
13.9481	-39.5766	47.6787
13.9477	-43.6105	47.6885
13.9495	-51.0938	47.6982
13.9503	-52.081	47.708
13.95042	-47.7924	47.7178
13.95206	-39.9001	47.7275
13.95267	-37.6289	47.7373
13.9531	-45.6993	47.74707
13.954	-49.5623	47.7568
13.95516	-52.1525	47.7666
13.9556	-47.1824	47.7764
13.9575	-41.0655	47.7861
13.9578	-42.21172	47.7959
13.9581	-41.22031	47.8057
13.9582	-46.70512	47.81543
13.959	-51.7391	47.8252
13.9607	-50.8242	47.835
13.9614	-44.9276	47.8447
13.9624	-38.0341	47.8545
13.9634	-40.5886	47.8643
13.9632	-47.9367	47.874
13.964	-49.85173	47.8838
13.9655	-50.2401	47.8936
13.9662	-45.4913	47.90332
13.9667	-43.6362	47.9131
13.9677	-41.7584	47.9229
13.9687	-40.7752	47.9326
13.9696	-48.4081	47.9424
13.9705	-49.5189	47.9521
13.9718	-48.55	47.9619
13.9711	-42.7402	47.97168
13.9734	-39.4823	47.9814
13.9742	-42.3628	47.9912
13.9747	-46.8423	48.001
13.9755	-47.9141	48.0107
13.9759	-50.8045	48.0205
13.976	-47.9704	48.0303
13.9778	-43.1917	48.04
13.97915	-39.8304	48.0498
13.9795	-42.6695	48.05957
13.9796	-48.5705	48.0693
13.9815	-50.1961	48.0791
13.9821	-47.5478	48.0889
13.9827	-44.7315	48.0986
13.9845	-40.081	48.1084
13.9842	-43.07233	48.1182
13.9852	-46.9382	48.12793
13.9855	-48.3245	48.1377
13.9863	-52.7789	48.1475
13.9878	-47.1794	48.1572
13.9885	-41.8925	48.167
13.988	-38.31649	48.1768
13.9897	-43.0764	48.1865
13.9901	-51.2462	48.1963
13.9921	-50.59211	48.2061
13.99287	-46.7738	48.21582
13.9934	-44.4513	48.2256
13.9936	-39.1668	48.2354
13.9935	-42.9599	48.2451
13.9961	-44.9486	48.2549
13.9965	-52.3694	48.2646
13.9966	-52.8617	48.2744
13.998	-45.2489	48.28418
13.9988	-38.6958	48.2939
13.9999	-39.8347	48.3037
14.0009	-46.9528	48.3135
14.00129	-52.2504	48.3232
14.0023	-49.9316	48.333
14.0029	-47.3393	48.3428
14.0047	-40.9617	48.3525
14.0038	-39.2334	48.3623
14.0043	-43.6249	48.37207
14.0051	-48.8337	48.3818
14.00705	-54.2528	48.3916
14.0074	-50.8152	48.4014
14.0085	-41.4322	48.4111
14.0092	-38.6435	48.4209
14.0104	-42.6298	48.4307
14.01053	-47.7056	48.44043
14.0119	-51.0452	48.4502
14.0134	-47.2688	48.46
14.01404	-45.3786	48.4697
14.01426	-42.6526	48.4795
14.0148	-39.3305	48.4893
14.0164	-44.9414	48.499
14.0176	-50.7173	48.5088
14.0174	-52.1347	48.5186
14.0184	-47.9834	48.52832
14.0194	-40.1663	48.5381
14.01998	-40.4169	48.5479
14.0197	-45.6052	48.5576
14.0212	-48.1053	48.5674
14.0221	-50.2889	48.5771
14.0237	-46.9381	48.5869
14.0237	-45.0807	48.59668
14.0247	-40.9202	48.6064
14.0257	-38.93824	48.6162
14.0269	-48.2743	48.626
14.0277	-49.6628	48.6357
14.0278	-50.2068	48.6455
14.0288	-46.1251	48.6553
14.0289	-40.5347	48.665
14.03074	-43.4411	48.6748
14.03215	-45.0267	48.68457
14.0318	-46.37077	48.6943
14.0325	-50.6339	48.7041
14.0336	-49.98032	48.7139
14.03477	-45.1003	48.7236
14.035	-39.4838	48.7334
14.0366	-42.1238	48.7432