File: data/processed_data_files/tensile/0.254_hd_uprint_typei_4545_r(1).dat
MTS793|BTW|ENU|1|2|.|/|:|1|0|0|A

Data Header:			0.254_hd_uprint_typei_4545_r0			Time:	20.0178	s	4/15/2019 4:17:56 PM
Data Acquisition:	Timed
Station Name:	ft40.cfg
Test File Name:	monotonic_0.2540_typei_hd_4545_uprint.tst
Displacement	Force	Running Time
mm	N	s
9.98169	-199.092	0.0227051
9.97942	-185.036	0.0422363
9.98183	-201.057	0.0617676
9.98272	-203.059	0.0812988
9.98342	-190.905	0.10083
9.98574	-194.543	0.120361
9.98676	-204.609	0.139893
9.98785	-189.703	0.159424
9.990962	-191.037	0.178955
9.99197	-200.799	0.198486
9.99339	-194.79	0.218018
9.99425	-187.8781	0.237549
9.99627	-200.881	0.25708
9.99756	-191.941	0.276611
9.99877	-183.335	0.296143
10.0015	-196.23	0.315674
10.0027	-198.685	0.335205
10.0039	-181.854	0.354736
10.0059	-191.365	0.374268
10.0081	-194.825	0.393799
10.0094	-181.874	0.41333
10.0111	-187.265	0.432861
10.01237	-198.624	0.452393
10.015	-181.266	0.471924
10.015	-183.902	0.491455
10.0181	-194.278	0.510986
10.0185	-184.5116	0.530518
10.0208	-180.089	0.550049
10.0215	-195.935	0.56958
10.0242	-186.0587	0.589111
10.0253	-176.647	0.608643
10.0266	-188.7067	0.628174
10.0288	-186.237	0.647705
10.0297	-177.143	0.667236
10.0314	-187.542	0.686768
10.0349	-188.382	0.706299
10.0352	-172.506	0.72583
10.0363	-179.366	0.745361
10.0391	-188.769	0.764893
10.0406	-179.11	0.784424
10.0428	-175.801	0.803955
10.0437	-185.909	0.823486
10.0448	-175.717	0.843018
10.0463	-170.6031	0.862549
10.0487	-184.012	0.88208
10.0503	-181.601	0.901611
10.0518	-167.564	0.921143
10.0531	-182.798	0.940674
10.0553	-179.219	0.960205
10.0571	-166.896	0.979736
10.0589	-175.121	0.999268
10.0592	-184.6882	1.0188
10.0619	-165.82	1.03833
10.0627	-172.808	1.05786
10.0651	-180.254	1.07739
10.0672	-166.99	1.09692
10.0674	-166.276	1.11646
10.0689	-182.27	1.13599
10.071	-166.5856	1.15552
10.0731	-162.013	1.17505
10.0748	-175.343	1.19458
10.0759	-170.232	1.21411
10.07815	-160.631	1.23364
10.0801	-175.165	1.25317
10.081	-170.52	1.27271
10.0822	-160.21	1.29224
10.085	-168.491	1.31177
10.0854	-171.834	1.3313
10.0879	-159.288	1.35083
10.0889	-164.602	1.37036
10.0911	-172.04	1.38989
10.0925	-158.489	1.40942
10.0944	-158.225	1.42896
10.09634	-169.246	1.44849
10.0968	-162.173	1.46802
10.099	-155.876	1.48755
10.1005	-168.598	1.50708
10.1018	-159.336	1.52661
10.10377	-151.469	1.54614
10.1054	-161.593	1.56567
10.106	-165.255	1.58521
10.1083	-147.992	1.60474
10.1099	-158.981	1.62427
10.1117	-163.429	1.6438
10.11323	-148.119	1.66333
10.11536	-151.971	1.68286
10.1174	-163.914	1.70239
10.1191	-148.287	1.72192
10.1196	-149.223	1.74146
10.1217	-158.989	1.76099
10.1234	-148.107	1.78052
10.1242	-142.301	1.80005
10.12633	-162.505	1.81958
10.1282	-150.8717	1.83911
10.1289	-141.977	1.85864
10.1299	-151.388	1.87817
10.1322	-151.401	1.89771
10.1349	-140.249	1.91724
10.1357	-150.807	1.93677
10.138	-152.378	1.9563
10.1396	-140.146	1.97583
10.141	-144.516	1.99536
10.1415	-151.395	2.01489
10.1448	-138.433	2.03442
10.146	-141.228	2.05396
10.14663	-149.749	2.07349
10.1492	-139.93	2.09302
10.1517	-133.872	2.11255
10.1532	-146.735	2.13208
10.1546	-142.759	2.15161
10.1558	-134.733	2.17114
10.1575	-143.916	2.19067
10.1601	-141.256	2.21021
10.16	-129.1299	2.22974
10.1615	-137.711	2.24927
10.1648	-145.285	2.2688
10.166	-126.872	2.28833
10.1675	-131.069	2.30786
10.1686	-138.978	2.32739
10.1692	-129.298	2.34692
10.172	-128.3954	2.36646
10.1741	-142.396	2.38599
10.1748	-126.592	2.40552
10.1765	-124.026	2.42505
10.1781	-136.744	2.44458
10.1801	-128.508	2.46411
10.1822	-116.826	2.48364
10.1831	-134.581	2.50317
10.18464	-128.526	2.52271
10.1862	-118.863	2.54224
10.1874	-125.6886	2.56177
10.1897	-129.475	2.5813
10.1905	-117.423	2.60083
10.1933	-124.678	2.62036
10.1947	-129.226	2.63989
10.1966	-114.7474	2.65942
10.19847	-115.519	2.67896
10.1996	-129.144	2.69849
10.2014	-116.7089	2.71802
10.202	-115.018	2.73755
10.20458	-123.159	2.75708
10.2059	-120.717	2.77661
10.2081	-109.112	2.79614
10.20928	-119.218	2.81567
10.2112	-118.075	2.83521
10.2131	-107.618	2.85474
10.2146	-114.497	2.87427
10.2153	-119.518	2.8938
10.2168	-104.149	2.91333
10.2182	-109.722	2.93286
10.2202	-123.253	2.95239
10.2223	-106.2049	2.97192
10.2241	-105.775	2.99146
10.2262	-115.54	3.01099
10.2278	-105.759	3.03052
10.2289	-100.786	3.05005
10.2309	-116.076	3.06958
10.2322	-106.068	3.08911
10.2338	-96.7938	3.10864
10.2354	-108.885	3.12817
10.2368	-108.948	3.14771
10.2386	-93.8174	3.16724
10.2413	-106.954	3.18677
10.2426	-106.057	3.2063
10.2426	-95.7994	3.22583
10.2452	-98.1128	3.24536
10.247	-105.59	3.26489
10.2479	-91.2696	3.28442
10.2511	-96.1874	3.30396
10.2508	-104.438	3.32349
10.2528	-94.5531	3.34302
10.2546	-86.4404	3.36255
10.2556	-99.6621	3.38208
10.2582	-95.4303	3.40161
10.2607	-88.6629	3.42114
10.2618	-94.6952	3.44067
10.2634	-93.397	3.46021
10.265	-82.5575	3.47974
10.266	-93.1999	3.49927
10.2679	-95.81929	3.5188
10.2702	-82.2107	3.53833
10.2703	-84.7721	3.55786
10.2725	-94.5321	3.57739
10.2745	-81.9502	3.59692
10.2762	-80.9546	3.61646
10.2772	-93.3137	3.63599
10.2798	-83.8638	3.65552
10.2796	-76.688	3.67505
10.2827	-86.978	3.69458
10.2836	-80.9809	3.71411
10.2857	-69.443	3.73364
10.2865	-89.2965	3.75317
10.29	-82.1265	3.77271
10.2903	-70.2811	3.79224
10.2928	-77.3881	3.81177
10.29306	-81.8591	3.8313
10.2961	-67.6242	3.85083
10.2966	-77.4867	3.87036
10.2989	-80.1917	3.88989
10.3003	-67.8767	3.90942
10.3013	-68.1483	3.92896
10.303	-80.02507	3.94849
10.3057	-66.1326	3.96802
10.3069	-65.2818	3.98755
10.3084	-75.9835	4.00708
10.3104	-69.72	4.02661
10.312	-59.7446	4.04614
10.3135	-70.426	4.06567
10.3149	-69.2786	4.08521
10.3164	-61.2369	4.10474
10.3182	-64.2317	4.12427
10.319	-69.3149	4.1438
10.3208	-53.6259	4.16333
10.3225	-61.1915	4.18286
10.3244	-69.5149	4.20239
10.3267	-58.3913	4.22192
10.3277	-53.9485	4.24146
10.3294	-67.28138	4.26099
10.33255	-57.367	4.28052
10.33386	-49.2803	4.30005
10.3349	-64.1972	4.31958
10.3365	-57.8708	4.33911
10.3386	-47.0505	4.35864
10.3394	-58.1305	4.37817
10.341	-58.584	4.39771
10.3424	-42.915	4.41724
10.3446	-55.8508	4.43677
10.34577	-58.894	4.4563
10.34656	-44.80658	4.47583
10.3493	-48.0418	4.49536
10.3508	-55.1145	4.51489
10.3526	-41.3527	4.53442
10.3537	-45.8107	4.55396
10.3557	-51.1168	4.57349
10.3577	-43.4501	4.59302
10.3595	-35.6368	4.61255
10.3598	-50.9154	4.63208
10.3619	-43.98106	4.65161
10.3628	-36.5123	4.67114
10.3663	-43.8365	4.69067
10.3668	-44.5566	4.71021
10.369	-32.5245	4.72974
10.37105	-39.4069	4.74927
10.37182	-41.6422	4.7688
10.3737	-33.1103	4.78833
10.3759	-33.4902	4.80786
10.376	-44.839	4.82739
10.3789	-28.42564	4.84692
10.3803	-29.5117	4.86646
10.3819	-41.3624	4.88599
10.382	-33.6983	4.90552
10.3851	-24.1486	4.92505
10.3869	-36.51844	4.94458
10.3882	-30.7846	4.96411
10.3902	-21.707	4.98364
10.392	-35.2159	5.00317
10.3938	-32.3117	5.02271
10.395	-17.0335	5.04224
10.39625	-27.2171	5.06177
10.397	-31.0874	5.0813
10.3994	-16.5079	5.10083
10.4004	-23.7669	5.12036
10.4031	-32.505	5.13989
10.4045	-18.1252	5.15942
10.406	-17.9908	5.17896
10.4083	-27.6883	5.19849
10.4094	-14.54734	5.21802
10.4104	-15.0925	5.23755
10.4122	-23.763	5.25708
10.4144	-17.5625	5.27661
10.416	-7.75544	5.29614
10.4168	-20.3019	5.31567
10.4198	-18.2597	5.33521
10.4206	-8.308794	5.35474
10.4227	-15.2368	5.37427
10.4237	-18.2918	5.3938
10.4249	-2.23493	5.41333
10.4275	-8.11574	5.43286
10.4297	-15.5285	5.45239
10.4305	-6.11116	5.47192
10.4318	-1.51188	5.49146
10.4338	-16.12805	5.51099
10.4348	-2.64048	5.53052
10.4374	0.939621	5.55005
10.4385	-10.8668	5.56958
10.4404	-7.49325	5.58911
10.44154	5.05585	5.60864
10.4429	-7.39178	5.62817
10.4453	-3.42555	5.64771
10.4474	7.38953	5.66724
10.4488	-2.10407	5.68677
10.44939	-7.01173	5.7063
10.4516	11.2858	5.72583
10.4536	5.23175	5.74536
10.455	-3.78385	5.76489
10.4566	10.9924	5.78442
10.4583	9.59151	5.80396
10.4593	-2.28039	5.82349
10.4611	9.83104	5.84302
10.4638	16.2514	5.86255
10.4656	1.87704	5.88208
10.4658	10.6692	5.90161
10.4679	16.6592	5.92114
10.469	5.74989	5.94067
10.4716	7.61937	5.96021
10.4737	21.561	5.97974
10.4747	12.6497	5.99927
10.4768	11.8119	6.0188
10.4768	18.4258	6.03833
10.4797	18.6485	6.05786
10.4812	9.02466	6.07739
10.4839	26.4747	6.09692
10.4835	22.4141	6.11646
10.4858	12.1551	6.13599
10.4868	20.056	6.15552
10.489	29.02326	6.17505
10.49002	15.5377	6.19458
10.4922	23.4641	6.21411
10.4943	31.1379	6.23364
10.4961	21.0324	6.25317
10.4976	20.8644	6.27271
10.4996	36.9084	6.29224
10.5006	23.9126	6.31177
10.50261	23.0163	6.3313
10.5026	37.8679	6.35083
10.5048	31.04282	6.37036
10.5075	21.2992	6.38989
10.5088	37.8415	6.40942
10.5102	35.4436	6.42896
10.5119	27.7729	6.44849
10.5136	37.3516	6.46802
10.5153	40.7666	6.48755
10.5169	28.7401	6.50708
10.5189	37.1262	6.52661
10.5209	46.1989	6.54614
10.5211	33.1518	6.56567
10.5227	37.865	6.58521
10.5244	46.5172	6.60474
10.5269	37.5393	6.62427
10.5289	36.0804	6.6438
10.5294	48.4389	6.66333
10.531	45.5326	6.68286
10.5331	41.0819	6.70239
10.534	48.14	6.72192
10.537	50.7823	6.74146
10.5376	40.1441	6.76099
10.5393	53.1898	6.78052
10.5401	56.7313	6.80005
10.5433	44.7583	6.81958
10.5439	47.44413	6.83911
10.545	61.0257	6.85864
10.5478	47.8975	6.87817
10.5493	50.2993	6.89771
10.551	62.3106	6.91724
10.5521	55.1541	6.93677
10.5552	46.1642	6.9563
10.5563	66.5902	6.97583
10.5573	58.8683	6.99536
10.5592	53.0083	7.01489
10.5607	65.298	7.03442
10.5615	65.449	7.05396
10.5649	51.8112	7.07349
10.5658	64.4738	7.09302
10.5682	67.0445	7.11255
10.5697	56.9673	7.13208
10.5694	66.4972	7.15161
10.5722	73.0441	7.17114
10.573	59.262	7.19067
10.5747	64.8903	7.21021
10.576	77.05838	7.22974
10.5785	65.4768	7.24927
10.58	63.4935	7.2688
10.5826	76.7434	7.28833
10.5837	70.618	7.30786
10.5842	66.5633	7.32739
10.5859	79.9866	7.34692
10.5891	76.6316	7.36646
10.5897	67.8681	7.38599
10.592	75.7987	7.40552
10.5928	81.8465	7.42505
10.5956	70.0269	7.44458
10.5961	79.6831	7.46411
10.59781	86.0691	7.48364
10.5997	76.0228	7.50317
10.6015	75.2701	7.52271
10.6038	89.0326	7.54224
10.605	79.1829	7.56177
10.6062	79.6419	7.5813
10.6074	90.3996	7.60083
10.6091	87.1882	7.62036
10.611	73.202	7.63989
10.6124	93.592	7.65942
10.6147	90.5061	7.67896
10.6158	80.7138	7.69849
10.6172	90.6943	7.71802
10.6191	95.5196	7.73755
10.62086	82.35537	7.75708
10.6228	93.939	7.77661
10.624	97.8024	7.79614
10.62569	88.9038	7.81567
10.6275	91.1681	7.83521
10.6294	103.431	7.85474
10.6297	91.19593	7.87427
10.632	90.9174	7.8938
10.6338	105.877	7.91333
10.6347	100.545	7.93286
10.6378	95.0633	7.95239
10.6386	104.293	7.97192
10.6402	102.012	7.99146
10.6431	95.1182	8.01099
10.6435	107.525	8.03052
10.64506	109.4567	8.05005
10.6462	98.5695	8.06958
10.6489	102.572	8.08911
10.6501	112.799	8.10864
10.6519	102.41	8.12817
10.6528	105.401	8.14771
10.6559	116.972	8.16724
10.65739	109.615	8.18677
10.6581	106.379	8.2063
10.6605	120.604	8.22583
10.6625	114.447	8.24536
10.6627	107.627	8.26489
10.6652	120.657	8.28442
10.66693	121.122	8.30396
10.6682	106.212	8.32349
10.6688	120.021	8.34302
10.6715	123.9953	8.36255
10.6736	115.221	8.38208
10.6752	118.9902	8.40161
10.676	127.8484	8.42114
10.6778	113.882	8.44067
10.6784	122.834	8.46021
10.6809	131.882	8.47974
10.6822	123.13	8.49927
10.6842	120.013	8.5188
10.685	133.981	8.53833
10.6871	124.338	8.55786
10.6895	121.476	8.57739
10.6903	132.386	8.59692
10.6922	134.253	8.61646
10.6949	125.855	8.63599
10.6952	132.76	8.65552
10.6978	134.205	8.67505
10.699	127.015	8.69458
10.70105	134.203	8.71411
10.7021	144.375	8.73364
10.7044	132.976	8.75317
10.7051	131.319	8.77271
10.7071	141.783	8.79224
10.7087	137.671	8.81177
10.7101	135.4537	8.8313
10.7119	145.382	8.85083
10.714	141.342	8.87036
10.71461	132.402	8.88989
10.71707	148.127	8.90942
10.719	145.0248	8.92896
10.71991	136.441	8.94849
10.7213	147.6264	8.96802
10.7227	153.012	8.98755
10.7238	136.3792	9.00708
10.72718	147.692	9.02661
10.7281	153.203	9.04614
10.7303	143.835	9.06567
10.731	147.777	9.08521
10.7326	158.7982	9.10474
10.7337	145.553	9.12427
10.7372	147.914	9.1438
10.7385	159.857	9.16333
10.7403	154.275	9.18286
10.7415	147.195	9.20239
10.74198	160.716	9.22192
10.7434	156.124	9.24146
10.7467	152.266	9.26099
10.7471	160.65	9.28052
10.7499	165.211	9.30005
10.7519	152.873	9.31958
10.75307	160.275	9.33911
10.7542	165.732	9.35864
10.7552	157.596	9.37817
10.7573	159.981	9.39771
10.7586	172.049	9.41724
10.7601	164.8385	9.43677
10.7619	159.643	9.4563
10.7639	170.303	9.47583
10.7657	168.295	9.49536
10.7664	161.93	9.51489
10.7686	174.733	9.53442
10.7706	173.702	9.55396
10.7722	160.983	9.57349
10.7746	173.748	9.59302
10.7753	178.785	9.61255
10.7773	167.036	9.63208
10.7795	172.933	9.65161
10.7804	182.2988	9.67114
10.7822	168.784	9.69067
10.7839	175.123	9.71021
10.7848	184.513	9.72974
10.7856	176.654	9.74927
10.7887	175.327	9.7688
10.7899	189.28	9.78833
10.7913	179.761	9.80786
10.7934	174.86	9.82739
10.7941	186.148	9.84692
10.7962	188.3501	9.86646
10.7974	178.895	9.88599
10.7997	186.661	9.90552
10.801	189.506	9.92505
10.80298	181.568	9.94458
10.8043	187.06	9.96411
10.80668	197.405	9.98364
10.8086	184.242	10.0032
10.8102	185.981	10.0227
10.8118	197.6945	10.0422
10.8126	192.731	10.0618
10.81394	186.683	10.0813
10.8166	201.384	10.10083
10.8187	194.997	10.1204
10.81918	189.786	10.1399
10.821	199.094	10.1594
10.82189	202.018	10.179
10.8247	190.309	10.1985
10.8252	201.1492	10.218
10.8274	206.617	10.2375
10.828	191.616	10.25708
10.8318	198.866	10.2766
10.833	211.351	10.2961
10.8339	201.419	10.3157
10.8354	198.502	10.3352
10.8371	213.0887	10.3547
10.8389	200.762	10.3743
10.841	200.342	10.3938
10.842	214.136	10.41333
10.84361	210.101	10.4329
10.8449	201.375	10.4524
10.8468	217.1819	10.4719
10.849	213.209	10.4915
10.8504	204.841	10.511
10.8513	212.537	10.5305
10.854	220.246	10.55
10.8552	208.207	10.56958
10.8563	216.584	10.5891
10.85853	218.864	10.6086
10.8599	213.79	10.6282
10.8622	213.185	10.6477
10.8629	227.988	10.6672
10.86424	219.087	10.6868
10.86695	213.979	10.7063
10.868	224.214	10.72583
10.8699	224.6474	10.7454
10.871	214.994	10.7649
10.8735	228.417	10.7844
10.8744	228.586	10.804
10.8763	217.214	10.8235
10.8772	224.038	10.843
10.8795	233.777	10.8625
10.88167	221.237	10.88208
10.88313	225.96	10.9016
10.885	237.787	10.9211
10.8858	224.929	10.9407
10.8873	223.993	10.9602
10.8893	240.108	10.9797
10.8913	231.474	10.9993
10.8933	227.529	11.0188
10.8947	243.358	11.03833
10.8959	232.716	11.0579
10.8972	225.653	11.0774
10.8989	242.832	11.0969
10.9006	244.449	11.1165
10.9018	229.31	11.136
10.9042	241.447	11.1555
10.9046	244.2818	11.175
10.9069	235.828	11.19458
10.9086	239.294	11.2141
10.91011	251.874	11.2336
10.9121	238.71	11.2532
10.913	240.781	11.2727
10.9144	251.363	11.2922
10.9164	246.597	11.3118
10.9191	238.387	11.3313
10.9211	256.267	11.35083
10.9215	251.969	11.3704
10.9237	241.7858	11.3899
10.9239	251.37	11.4094
10.9259	257.484	11.429
10.9294	243.388	11.4485
10.9299	257.355	11.468
10.9315	262.244	11.4875
10.9336	246.656	11.50708
10.93502	251.977	11.5266
10.9369	266.453	11.5461
10.93755	250.735	11.5657
10.939	253.435	11.5852
10.9413	269.302	11.6047
10.9426	257.862	11.6243
10.9438	251.2193	11.6438
10.9459	269.245	11.66333
10.9478	262.365	11.6829
10.9498	254.4133	11.7024
10.9512	270.1882	11.7219
10.9534	267.889	11.7415
10.9541	255.002	11.761
10.9555	268.222	11.7805
10.958	276.372	11.8
10.9596	261.664	11.81958
10.9609	267.0097	11.8391
10.9622	275.038	11.8586
10.96433	265.093	11.8782
10.9658	268.4039	11.8977
10.9671	281.218	11.9172
10.9695	269.597	11.9368
10.9705	268.197	11.9563
10.9711	280.5892	11.97583
10.9742	278.705	11.9954
10.9752	266.949	12.0149
10.977	283.562	12.0344
10.9779	285.269	12.054
10.9805	272.6777	12.0735
10.9806	277.946	12.093
10.9834	288.469	12.1125
10.9858	274.016	12.13208
10.98612	281.866	12.1516
10.98809	292.84	12.1711
10.991	280.281	12.1907
10.993	275.669	12.2102
10.99342	296.399	12.2297
10.9944	285.14	12.2493
10.9965	283.2001	12.2688
10.998	296.038	12.28833
11.0005	289.988	12.3079
11.0018	280.198	12.3274
11.0034	297.207	12.3469
11.0047	296.194	12.3665
11.007	282.026	12.386
11.0074	296.045	12.4055
11.0093	299.933	12.425
11.0124	288.066	12.44458
11.0126	296.098	12.4641
11.01442	304.922	12.4836
11.01643	293.548	12.5032
11.0168	297.208	12.5227
11.0195	304.838	12.5422
11.02153	297.2	12.5618
11.022	292.781	12.5813
11.0243	312.419	12.60083
11.0253	304.658	12.6204
11.0274	294.917	12.6399
11.03002	307.468	12.6594
11.0308	310.386	12.679
11.0325	298.445	12.6985
11.0334	310.867	12.718
11.0365	313.79	12.7375
11.0375	302.157	12.75708
11.0399	305.564	12.7766
11.0411	319.147	12.7961
11.0422	305.113	12.8157
11.0445	308.107	12.8352
11.0458	322.223	12.8547
11.047	314.485	12.8743
11.048	305.309	12.8938
11.0497	323.7475	12.91333
11.0523	317.208	12.9329
11.0524	310.212	12.9524
11.0558	323.72	12.9719
11.0579	323.045	12.9915
11.058	307.661	13.011
11.0599	321.966	13.0305
11.062	327.646	13.05
11.0624	313.344	13.06958
11.065	319.971	13.0891
11.0672	332.205	13.1086
11.0682	316.608	13.1282
11.0699	321.848	13.1477
11.0718	331.875	13.1672
11.0729	324.837	13.1868
11.0753	322.01	13.2063
11.076	333.533	13.22583
11.0782	328.7525	13.2454
11.0798	320.02	13.2649
11.0813	335.771	13.2844
11.0834	336.249	13.304
11.0838	326	13.3235
11.0863	331.498	13.343
11.08774	340.141	13.3625
11.0904	325.7803	13.38208
11.0896	335.844	13.4016
11.0922	344.61	13.4211
11.0951	333.9296	13.4407
11.0969	329.794	13.4602
11.0979	349.682	13.4797
11.099	337.623	13.4993
11.1001	333.708	13.5188
11.1032	348.949	13.53833
11.1034	344.985	13.5579
11.1054	331.177	13.5774
11.1079	349.116	13.5969
11.1083	349.212	13.6165
11.1109	337.927	13.636
11.1121	348.106	13.6555
11.1138	354.786	13.675
11.1153	335.726	13.69458
11.1174	348.147	13.7141
11.1177	358.03	13.7336
11.1201	347.447	13.7532
11.1228	346.023	13.7727
11.1239	359.087	13.7922
11.1244	346.844	13.8118
11.1264	347.78	13.8313
11.128	359.9	13.85083
11.1305	355.762	13.8704
11.1318	347.403	13.8899
11.13371	361.119	13.9094
11.1343	360.565	13.929
11.1372	350.056	13.9485
11.1379	360.3876	13.968
11.1399	367.454	13.9875
11.1421	354.892	14.00708
11.1424	359.051	14.0266
11.1445	369.1044	14.0461
11.1473	357.074	14.0657
11.14857	359.9433	14.0852
11.1496	374.248	14.1047
11.15085	364.99	14.1243
11.15411	357.0741	14.1438
11.15439	374.459	14.16333
11.1562	370.046	14.1829
11.1584	362.346	14.2024
11.15983	374.63	14.2219
11.1619	376.759	14.2415
11.16329	360.92	14.261
11.1637	376.913	14.2805
11.1658	380.064	14.3
11.1678	366.858	14.31958
11.1688	373.311	14.3391
11.1708	384.131	14.3586
11.172	368.6532	14.3782
11.17376	373.385	14.3977
11.1756	384.5426	14.4172
11.1773	378.937	14.4368
11.1785	374.3606	14.4563
11.181	387.771	14.47583
11.1815	378.525	14.4954
11.184	374.608	14.5149
11.185	386.777	14.5344
11.18652	390.019	14.554
11.1887	375.383	14.5735
11.1904	384.853	14.593
11.1919	389.232	14.6125
11.1937	379.452	14.63208
11.1955	385.157	14.6516
11.1962	394.813	14.6711
11.19806	385.218	14.6907
11.20105	383.58	14.7102
11.2026	398.203	14.7297
11.2035	387.557	14.7493
11.2046	384.654	14.7688
11.206	401.89	14.78833
11.2083	396.872	14.8079
11.2088	383.68	14.8274
11.21206	400.047	14.8469
11.2135	400.452	14.8665
11.214	389.694	14.886
11.2164	400.416	14.9055
11.2171	404.864	14.925
11.219	387.924	14.94458
11.2208	401	14.9641
11.2226	409.718	14.9836
11.2234	397.41	15.0032
11.2269	397.994	15.0227
11.2281	413.039	15.0422
11.2298	399.782	15.0618
11.2312	399.318	15.0813
11.2335	411.034	15.10083
11.2335	408.4	15.1204
11.2366	401.593	15.1399
11.2369	413.823	15.1594
11.2381	409.708	15.179
11.24087	401.809	15.1985
11.2431	414.429	15.218
11.2442	419.812	15.2375
11.2455	404.916	15.25708
11.2473	412.19	15.2766
11.2484	418.707	15.2961
11.25	410.258	15.3157
11.2532	411.083	15.3352
11.2533	425.057	15.3547
11.256	414.699	15.3743
11.2559	409.056	15.3938
11.2587	423.505	15.41333
11.2595	420.725	15.4329
11.2623	410.673	15.4524
11.2637	426.578	15.4719
11.2657	428.094	15.4915
11.2669	412.255	15.511
11.2694	423.9	15.5305
11.2699	428.919	15.55
11.2722	418.195	15.56958
11.2738	425.352	15.5891
11.2745	436.669	15.6086
11.27656	417.888	15.6282
11.2784	423.262	15.6477
11.2795	436.448	15.6672
11.2806	429.403	15.6868
11.28308	422.597	15.7063
11.2841	438.092	15.72583
11.2861	430.73	15.7454
11.2883	426.058	15.7649
11.29	437.312	15.7844
11.29215	440.476	15.804
11.293	426.705	15.8235
11.2941	438.798	15.843
11.2971	441.047	15.8625
11.2974	430.5513	15.88208
11.2995	435.26	15.9016
11.3007	446.696	15.9211
11.3027	434.622	15.9407
11.3032	436.287	15.9602
11.3049	446.58	15.9797
11.30716	441.004	15.9993
11.3081	435.569	16.0188
11.3099	451.048	16.03833
11.3121	445.3996	16.0579
11.3144	434.324	16.0774
11.3151	448.655	16.0969
11.3173	451.707	16.1165
11.3185	438.051	16.136
11.321	448.639	16.1555
11.3211	455.711	16.175
11.3239	440.831	16.19458
11.32468	447.3764	16.2141
11.3275	460.15	16.2336
11.3288	446.365	16.2532
11.3291	448.111	16.2727
11.3321	465.155	16.2922
11.33341	449.6387	16.3118
11.3361	447.821	16.3313
11.3377	462.537	16.35083
11.3389	459.436	16.3704
11.3393	449.288	16.3899
11.3419	464.813	16.4094
11.3433	459.122	16.429
11.34441	452.126	16.4485
11.3466	462.297	16.468
11.349	468.03	16.4875
11.3496	452.24	16.50708
11.3517	461.862	16.5266
11.3542	469.458	16.5461
11.3543	461.16	16.5657
11.3564	459.982	16.5852
11.358	475.011	16.6047
11.3591	465.31	16.6243
11.3612	459.988	16.6438
11.3621	472.701	16.66333
11.3647	469.644	16.6829
11.3663	458.916	16.7024
11.3672	475.21	16.7219
11.3692	475.503	16.7415
11.37054	462.233	16.761
11.3725	472.389	16.7805
11.3743	480.78	16.8
11.3757	466.7619	16.81958
11.3776	472.797	16.8391
11.378	484	16.8586
11.3812	468.9057	16.8782
11.3818	472.014	16.8977
11.3829	488.017	16.9172
11.3845	476.747	16.9368
11.3881	473.347	16.9563
11.38793	489.22	16.97583
11.3908	479.582	16.9954
11.3917	473.295	17.0149
11.3941	485.651	17.0344
11.3959	488.5318	17.054
11.3966	475.751	17.0735
11.399	489.313	17.093
11.3999	488.571	17.1125
11.4025	479.21	17.13208
11.4033	485.956	17.1516
11.4043	497.0506	17.1711
11.4062	483.948	17.1907
11.4082	485.987	17.2102
11.41	494.895	17.2297
11.41074	490.012	17.2493
11.4134	484.096	17.2688
11.4143	500.67	17.28833
11.41521	493.864	17.3079
11.4182	485.793	17.3274
11.4196	496.075	17.3469
11.4222	501.193	17.3665
11.4229	485.853	17.386
11.4245	499.961	17.4055
11.4251	504.378	17.425
11.4275	492.224	17.44458
11.4293	495.815	17.4641
11.432	508.12	17.4836
11.433	496.285	17.5032
11.434	498.702	17.5227
11.4369	513.092	17.5422
11.4376	499.824	17.5618
11.4395	494.582	17.5813
11.4406	513.248	17.60083
11.44271	507.326	17.6204
11.4434	498.12	17.6399
11.4457	514.551	17.6594
11.4471	509.765	17.679
11.4488	498.257	17.6985
11.45046	512.9873	17.718
11.4528	518.059	17.7375
11.4542	502.0759	17.75708
11.4556	510.418	17.7766
11.4567	518.612	17.7961
11.4582	505.906	17.8157
11.4602	508.356	17.8352
11.4614	522.33	17.8547
11.4625	514.218	17.8743
11.4652	511.341	17.8938
11.4669	520.203	17.91333
11.4684	518.4588	17.9329
11.47	509.818	17.9524
11.4712	526.77	17.9719
11.4735	523.012	17.9915
11.475	512.562	18.011
11.4757	520.917	18.0305
11.478	530.71	18.05
11.47938	515.653	18.06958
11.4813	522.957	18.0891
11.4823	533.5658	18.1086
11.48498	521.053	18.1282
11.4866	519.981	18.1477
11.4883	537.221	18.1672
11.4888	523.054	18.1868
11.4906	520.647	18.2063
11.493	536.8822	18.22583
11.4945	530.393	18.2454
11.4965	518.516	18.2649
11.4976	536.07	18.2844
11.5005	534.849	18.304
11.5004	523.705	18.3235
11.5023	535.9469	18.343
11.5045	537.274	18.3625
11.50618	525.472	18.38208
11.5074	536.077	18.4016
11.5096	544.533	18.4211
11.5101	529.299	18.4407
11.5126	534.811	18.4602
11.5134	543.8703	18.4797
11.5153	535.649	18.4993
11.5169	533.383	18.5188
11.5192	547.379	18.53833
11.5208	541.318	18.5579
11.5221	535.948	18.5774
11.5231	545.245	18.5969
11.5252	548.131	18.6165
11.527	534.519	18.636
11.5288	548.454	18.6555
11.5304	553.026	18.675
11.5318	540.031	18.69458
11.5339	540.832	18.7141
11.5353	556.423	18.7336
11.5378	543.105	18.7532
11.539	546.555	18.7727
11.5413	556.661	18.7922
11.542	547.535	18.8118
11.5446	542.283	18.8313
11.5442	561.4754	18.85083
11.5468	551.989	18.8704
11.5484	545.986	18.8899
11.5494	557.813	18.9094
11.55161	558.697	18.929
11.5523	544.748	18.9485
11.5545	558.217	18.968
11.5558	563.414	18.9875
11.558	551.024	19.00708
11.5599	560.0777	19.0266
11.5606	565.514	19.0461
11.5624	551.793	19.0657
11.56417	557.178	19.0852
11.5671	571.349	19.1047
11.5682	559.38	19.1243
11.5701	556.976	19.1438
11.5705	567.831	19.16333
11.5726	564.387	19.1829
11.5747	556.688	19.2024
11.5757	570.018	19.2219
11.5777	568.284	19.2415
11.579	559.557	19.261
11.5808	568.293	19.2805
11.5823	574.278	19.3
11.5844	560.325	19.31958
11.5853	569.247	19.3391
11.588	577.3689	19.3586
11.5893	567.333	19.3782
11.5899	565.131	19.3977
11.5912	581.8891	19.4172
11.5932	569.004	19.4368
11.5959	568.738	19.4563
11.5968	581.835	19.47583
11.5981	574.166	19.4954
11.6005	566.34	19.5149
11.60253	583.429	19.5344
11.60323	580.07	19.554
11.6059	569.284	19.5735
11.6071	579.795	19.593
11.6085	584.222	19.6125
11.6086	568.081	19.63208
11.612	580.822	19.6516
11.6137	588.391	19.6711
11.6147	576.55	19.6907
11.6165	580.389	19.7102
11.61867	591.48	19.7297
11.6201	579.484	19.7493
11.6219	578.78	19.7688
11.6234	592.109	19.78833
11.6253	587.36	19.8079
11.6271	579.468	19.8274
11.6283	591.117	19.8469
11.6292	590.646	19.8665
11.6321	580.25	19.886
11.6326	594.476	19.9055
11.6348	596.329	19.925
11.6357	584.588	19.94458
11.6383	588.302	19.9641
11.639	601.116	19.9836
11.6401	586.578	20.0032
11.6419	583.256	20.0129

Data Header:			0.254_hd_uprint_typei_4545_r0			Time:	40.019	s	4/15/2019 4:18:16 PM
Data Acquisition:	Timed
Station Name:	ft40.cfg
Test File Name:	monotonic_0.2540_typei_hd_4545_uprint.tst
Displacement	Force	Running Time
mm	N	s
11.6416	590.548	20.0227
11.6445	603.076	20.0422
11.6453	595.332	20.0618
11.6473	588.1	20.0813
11.65	605.233	20.10083
11.65	597.387	20.1204
11.6523	591.121	20.1399
11.6546	605.0755	20.1594
11.6544	604.0119	20.179
11.6582	587.275	20.1985
11.6589	604.633	20.218
11.66	608.3324	20.2375
11.662	596.029	20.25708
11.6643	602.224	20.2766
11.6651	611.566	20.2961
11.6668	595.779	20.3157
11.6692	601.735	20.3352
11.6697	611.385	20.3547
11.6726	601.124	20.3743
11.6724	601.374	20.3938
11.67571	614.889	20.41333
11.6773	606.973	20.4329
11.6775	601.759	20.4524
11.6806	614.843	20.4719
11.6816	614.261	20.4915
11.6835	603.145	20.511
11.6848	613.945	20.5305
11.6868	617.7934	20.55
11.6884	604.914	20.56958
11.6898	614.643	20.5891
11.6915	622.729	20.6086
11.6923	611.321	20.6282
11.6959	610.229	20.6477
11.69649	624.981	20.6672
11.698	615.108	20.6868
11.7003	612.632	20.7063
11.70131	624.714	20.72583
11.7031	621.29	20.7454
11.7047	607.982	20.7649
11.7066	626.922	20.7844
11.7077	623.45	20.804
11.7078	614.4093	20.8235
11.7116	625.579	20.843
11.7124	631.924	20.8625
11.7134	613.888	20.88208
11.7162	625.211	20.9016
11.7169	631.961	20.9211
11.7187	621.214	20.9407
11.7212	624.237	20.9602
11.7224	635.01	20.9797
11.724	620.2417	20.9993
11.7248	623.1123	21.0188
11.727	636.688	21.03833
11.7289	631.024	21.0579
11.73115	621.869	21.0774
11.73183	635.536	21.0969
11.7338	632.759	21.1165
11.7355	625.154	21.136
11.7367	636.769	21.1555
11.7386	637.997	21.175
11.7399	628.393	21.19458
11.7411	634.144	21.2141
11.7433	642.299	21.2336
11.7452	630.891	21.2532
11.7465	633.786	21.2727
11.7471	644.863	21.2922
11.7498	638.044	21.3118
11.7511	629.986	21.3313
11.7535	645.803	21.35083
11.7542	641.789	21.3704
11.75636	635.97	21.3899
11.7583	647.099	21.4094
11.7591	647.598	21.429
11.7619	631.3739	21.4485
11.7629	648.263	21.468
11.7647	651.505	21.4875
11.7659	638.58	21.50708
11.7678	644.93	21.5266
11.7686	655.864	21.5461
11.7712	640.247	21.5657
11.7731	646.947	21.5852
11.7744	655.916	21.6047
11.7761	647.011	21.6243
11.7777	644.292	21.6438
11.7793	657.901	21.66333
11.78177	647.986	21.6829
11.7827	645.791	21.7024
11.7845	657.002	21.7219
11.7858	657.628	21.7415
11.7868	645.105	21.761
11.7888	655.986	21.7805
11.7902	657.202	21.8
11.7917	651.5918	21.81958
11.7942	657.444	21.8391
11.79636	665.556	21.8586
11.7964	651.373	21.8782
11.7991	655.075	21.8977
11.8007	665.128	21.9172
11.802	658.586	21.9368
11.8033	653.4	21.9563
11.80579	668.4032	21.97583
11.8066	663.202	21.9954
11.8083	653.272	22.0149
11.8114	668.753	22.0344
11.8126	665.559	22.054
11.814	655.852	22.0735
11.8147	667.206	22.093
11.8163	672.195	22.1125
11.81869	654.397	22.13208
11.8199	664.898	22.1516
11.8221	673.865	22.1711
11.8227	661.831	22.1907
11.8249	664.377	22.2102
11.8262	678.772	22.2297
11.8275	665.0296	22.2493
11.8294	666.286	22.2688
11.8309	677.987	22.28833
11.8328	672.94	22.3079
11.8338	665.097	22.3274
11.8352	681.04	22.3469
11.8388	674.9093	22.3665
11.8394	666.36	22.386
11.8412	676.694	22.4055
11.8422	682.065	22.425
11.8442	669.89	22.44458
11.8456	676.005	22.4641
11.84796	680.873	22.4836
11.8489	673.119	22.5032
11.8513	675.583	22.5227
11.8534	688.906	22.5422
11.8546	676.973	22.5618
11.85599	674.01	22.5813
11.8583	685.265	22.60083
11.8592	683.454	22.6204
11.8605	674.834	22.6399
11.863	686.016	22.6594
11.8633	687.417	22.679
11.8659	674.023	22.6985
11.86726	686.943	22.718
11.8694	690.78	22.7375
11.86991	678.686	22.75708
11.8729	686.285	22.7766
11.8734	696.619	22.7961
11.8755	679.13	22.8157
11.8773	683.671	22.8352
11.8786	694.418	22.8547
11.8804	688.466	22.8743
11.8819	683.933	22.8938
11.8843	698.1	22.91333
11.8854	688.693	22.9329
11.8863	684.665	22.9524
11.8892	697.3764	22.9719
11.8898	698.635	22.9915
11.8911	686.34	23.011
11.89361	698.081	23.0305
11.8946	698.205	23.05
11.8961	689.254	23.06958
11.8982	693.965	23.0891
11.9007	702.836	23.1086
11.9018	692.927	23.1282
11.903	696.008	23.1477
11.9054	702.551	23.1672
11.9064	697.697	23.1868
11.9088	693.721	23.2063
11.90931	708.367	23.22583
11.9109	702.527	23.2454
11.9121	692.1084	23.2649
11.915	702.587	23.2844
11.9164	707.429	23.304
11.91778	696.319	23.3235
11.91907	707.187	23.343
11.9201	711.143	23.3625
11.9219	696.977	23.38208
11.9238	704.037	23.4016
11.9255	715.4787	23.4211
11.9276	702.318	23.4407
11.92893	704.699	23.4602
11.9299	717.557	23.4797
11.9326	703.695	23.4993
11.9333	703.0271	23.5188
11.9351	717.643	23.53833
11.9363	710.817	23.5579
11.939	704.9494	23.5774
11.9412	719.777	23.5969
11.9415	714.3158	23.6165
11.9433	704.7326	23.636
11.9451	714.367	23.6555
11.9468	721.803	23.675
11.9491	707.217	23.69458
11.9492	715.432	23.7141
11.9509	719.856	23.7336
11.9534	712.866	23.7532
11.9549	714.18	23.7727
11.9564	726.93	23.7922
11.9581	714.988	23.8118
11.96014	712.173	23.8313
11.9621	723.417	23.85083
11.9634	722.549	23.8704
11.9644	711.223	23.8899
11.9664	726.581	23.9094
11.9685	726.429	23.929
11.9696	715.242	23.9485
11.971	722.468	23.968
11.9726	730.121	23.9875
11.974	716.837	24.00708
11.9761	725.05	24.0266
11.9773	733.096	24.0461
11.9798	718.413	24.0657
11.9816	721.271	24.0852
11.983	736.365	24.1047
11.9839	727.488	24.1243
11.98551	720.485	24.1438
11.9881	737.206	24.16333
11.9898	728.747	24.1829
11.991	720.746	24.2024
11.9923	734.501	24.2219
11.994	735.417	24.2415
11.9961	723.597	24.261
11.997	737.216	24.2805
11.9984	736.048	24.3
12.0016	727.131	24.31958
12.0017	733.6109	24.3391
12.005	743.195	24.3586
12.0056	730.389	24.3782
12.0068	733.347	24.3977
12.0075	741.04	24.4172
12.0099	735.159	24.4368
12.0126	731.988	24.4563
12.0134	746.404	24.47583
12.0155	739.3996	24.4954
12.0168	731.173	24.5149
12.0181	742.207	24.5344
12.021	747.231	24.554
12.0222	732.911	24.5735
12.0225	744.77	24.593
12.0264	748.676	24.6125
12.026	736.713	24.63208
12.02751	741.171	24.6516
12.0305	751.388	24.6711
12.0314	737.677	24.6907
12.0336	740.863	24.7102
12.0337	753.589	24.7297
12.0359	741.882	24.7493
12.03925	737.883	24.7688
12.0391	753.4267	24.78833
12.0412	748.768	24.8079
12.0444	740.353	24.8274
12.0435	753.893	24.8469
12.0463	750.1344	24.8665
12.0475	740.642	24.886
12.0502	752.163	24.9055
12.0512	757.411	24.925
12.0532	743.4646	24.94458
12.0543	751.997	24.9641
12.0554	756.813	24.9836
12.0579	747.333	25.0032
12.0589	749.0069	25.0227
12.0617	762.6947	25.0422
12.063	752.414	25.0618
12.0633	751.278	25.0813
12.0658	760.0152	25.10083
12.0679	757.9071	25.1204
12.0698	747.2309	25.1399
12.0702	763.113	25.1594
12.0718	762.494	25.179
12.074	751.079	25.1985
12.07595	758.271	25.218
12.0776	766.049	25.2375
12.0782	753.172	25.25708
12.0802	761.561	25.2766
12.0829	766.831	25.2961
12.0845	755.861	25.3157
12.085	756.379	25.3352
12.0867	771.628	25.3547
12.0889	759.9751	25.3743
12.08965	756.134	25.3938
12.0922	771.7475	25.41333
12.0936	764.764	25.4329
12.0946	754.83	25.4524
12.0967	769.754	25.4719
12.0993	768.47	25.4915
12.1	758.149	25.511
12.1011	772.49	25.5305
12.1026	771.521	25.55
12.10646	758.61	25.56958
12.1073	769.399	25.5891
12.108	777.6582	25.6086
12.1087	763.409	25.6282
12.1103	767.654	25.6477
12.1131	777.646	25.6672
12.1149	769.2486	25.6868
12.1163	765.786	25.7063
12.1188	779.051	25.72583
12.1187	771.701	25.7454
12.1216	768.5545	25.7649
12.1235	776.417	25.7844
12.1242	776.721	25.804
12.1259	765.698	25.8235
12.1275	779.415	25.843
12.1289	781.719	25.8625
12.1302	769.575	25.88208
12.1339	772.36	25.9016
12.1344	784.444	25.9211
12.1359	771.477	25.9407
12.1356	775.593	25.9602
12.1387	787.444	25.9797
12.1414	777.105	25.9993
12.1416	769.508	26.0188
12.1435	789.078	26.03833
12.1462	780.665	26.0579
12.1461	773.701	26.0774
12.1494	787.354	26.0969
12.1499	784.605	26.1165
12.1517	772.5188	26.136
12.1543	784.623	26.1555
12.1557	787.756	26.175
12.1569	775.836	26.19458
12.1591	785.2962	26.2141
12.1603	789.5354	26.2336
12.1623	777.609	26.2532
12.16379	782.529	26.2727
12.1652	794.5531	26.2922
12.167	784.89	26.3118
12.1683	783.145	26.3313
12.1698	791.958	26.35083
12.171	788.7381	26.3704
12.1728	780.708	26.3899
12.1744	796.801	26.4094
12.176	792.576	26.429
12.17723	783.334	26.4485
12.1798	790.812	26.468
12.1814	799.3443	26.4875
12.1831	784.207	26.50708
12.1852	790.725	26.5266
12.1856	800.336	26.5461
12.1877	789.796	26.5657
12.1902	785.709	26.5852
12.19113	802.627	26.6047
12.19296	791.462	26.6243
12.1942	791.318	26.6438
12.1961	803.26	26.66333
12.1971	796.439	26.6829
12.1992	785.199	26.7024
12.2009	801.943	26.7219
12.2021	801.107	26.7415
12.2038	791.0296	26.761
12.2059	799.996	26.7805
12.2064	804.987	26.8
12.2095	788.4248	26.81958
12.2114	799.515	26.8391
12.2125	805.964	26.8586
12.214	793.28	26.8782
12.2165	798.644	26.8977
12.2181	808.245	26.9172
12.2194	797.102	26.9368
12.21989	795.6228	26.9563
12.222	810.251	26.97583
12.2227	803.75	26.9954
12.2259	798.448	27.0149
12.2267	805.773	27.0344
12.2287	806.174	27.054
12.2296	795.3175	27.0735
12.2315	809.303	27.093
12.2338	811.509	27.1125
12.2344	799.568	27.13208
12.2373	802.76	27.1516
12.2386	814.33	27.1711
12.2403	802.303	27.1907
12.2419	805.293	27.2102
12.2429	816.638	27.2297
12.2439	806.829	27.2493
12.246	802.005	27.2688
12.2482	818.229	27.28833
12.24982	809.66	27.3079
12.2499	802.581	27.3274
12.2526	815.72	27.3469
12.2534	814.381	27.3665
12.256	801.795	27.386
12.2571	815.167	27.4055
12.259	819.645	27.425
12.2622	806.433	27.44458
12.263	813.465	27.4641
12.264	820.799	27.4836
12.2663	805.571	27.5032
12.26868	812.233	27.5227
12.2689	821.746	27.5422
12.26985	813.252	27.5618
12.2724	811.171	27.5813
12.2741	823.092	27.60083
12.2759	813.987	27.6204
12.2764	809.961	27.6399
12.2789	822.431	27.6594
12.2808	819.0304	27.679
12.2825	811.713	27.6985
12.2838	820.586	27.718
12.2858	823.39	27.7375
12.287	812.515	27.75708
12.2882	821.436	27.7766
12.2903	828.37	27.7961
12.2909	817.704	27.8157
12.2937	813.411	27.8352
12.2953	830.734	27.8547
12.2973	818.765	27.8743
12.2977	817.407	27.8938
12.3008	829.633	27.91333
12.3009	823.8	27.9329
12.3027	814.372	27.9524
12.3046	830.344	27.9719
12.3076	827.136	27.9915
12.3082	816.864	28.011
12.3105	828.652	28.0305
12.312	832.8952	28.05
12.3115	815.336	28.06958
12.3147	827.426	28.0891
12.3169	831.69	28.1086
12.3181	823.4007	28.1282
12.3187	825.295	28.1477
12.3212	833.669	28.1672
12.3233	822.142	28.1868
12.324	824.529	28.2063
12.3263	836.59	28.22583
12.3281	829.381	28.2454
12.3293	821.775	28.2649
12.3302	833.161	28.2844
12.3336	832.5415	28.304
12.3342	823.794	28.3235
12.3363	832.38	28.343
12.3371	836.764	28.3625
12.339	825.699	28.38208
12.342	831.086	28.4016
12.3418	839.044	28.4211
12.3447	825.288	28.4407
12.3457	830.2464	28.4602
12.3469	841.121	28.4797
12.3487	830.294	28.4993
12.351	825.631	28.5188
12.3521	842.159	28.53833
12.3535	833.914	28.5579
12.3553	829.851	28.5774
12.3571	841.34	28.5969
12.3585	839.1153	28.6165
12.361	824.747	28.636
12.3619	840.108	28.6555
12.3641	840.669	28.675
12.3647	831.551	28.69458
12.36764	837.0105	28.7141
12.3685	846.508	28.7336
12.3705	830.591	28.7532
12.3718	835.407	28.7727
12.3731	844.809	28.7922
12.3761	835.238	28.8118
12.3765	835.24	28.8313
12.3779	847.775	28.85083
12.3792	837.355	28.8704
12.3822	832.936	28.8899
12.3828	845.736	28.9094
12.3846	844.4	28.929
12.3866	834.626	28.9485
12.388	843.315	28.968
12.3886	846.247	28.9875
12.3924	835.667	29.00708
12.39349	845.039	29.0266
12.39581	849.379	29.0461
12.3973	838.985	29.0657
12.3983	838.681	29.0852
12.3993	852.077	29.1047
12.4005	841.268	29.1243
12.4026	839.778	29.1438
12.4043	851.517	29.16333
12.4049	848.504	29.1829
12.4082	835.168	29.2024
12.409	850.8869	29.2219
12.4104	849.332	29.2415
12.413	840.237	29.261
12.4135	849.7002	29.2805
12.415	853.294	29.3
12.41705	837.525	29.31958
12.41783	848.938	29.3391
12.42119	855.359	29.3586
12.4227	843.137	29.3782
12.425	846.1936	29.3977
12.4258	854.824	29.4172
12.4278	843.471	29.4368
12.4287	845.871	29.4563
12.4298	854.824	29.47583
12.432	849.933	29.4954
12.4331	843.834	29.5149
12.4354	856.879	29.5344
12.4372	850.245	29.554
12.4371	843.7442	29.5735
12.4396	854.196	29.593
12.4417	857.988	29.6125
12.4435	846.261	29.63208
12.4456	851.673	29.6516
12.4474	855.667	29.6711
12.448	849.075	29.6907
12.4499	851.839	29.7102
12.4515	860.464	29.7297
12.4536	851.347	29.7493
12.4556	846.4342	29.7688
12.4563	860.628	29.78833
12.4585	854.417	29.8079
12.4599	848.041	29.8274
12.4613	859.503	29.8469
12.4636	857.973	29.8665
12.4648	845.73	29.886
12.4659	859.496	29.9055
12.4686	859.565	29.925
12.4691	850.275	29.94458
12.4707	855.978	29.9641
12.4718	864.795	29.9836
12.474	848.948	30.0032
12.47576	854.248	30.0227
12.4775	864.398	30.0422
12.478	856.309	30.0618
12.48	853.095	30.0813
12.483	865.342	30.10083
12.4845	856.548	30.1204
12.4855	853.913	30.1399
12.4861	863.8988	30.1594
12.4891	862.7489	30.179
12.4896	852.989	30.1985
12.4921	863.161	30.218
12.494	862.661	30.2375
12.4946	854.961	30.25708
12.497	859.053	30.2766
12.4989	866.4541	30.2961
12.501	856.318	30.3157
12.5015	858.498	30.3352
12.5043	866.5481	30.3547
12.5056	858.126	30.3743
12.5055	856.948	30.3938
12.5085	868.574	30.41333
12.5099	863.269	30.4329
12.5118	850.906	30.4524
12.5133	867.227	30.4719
12.5151	866.9	30.4915
12.5163	857.037	30.511
12.5177	866.264	30.5305
12.5201	868.454	30.55
12.521	855.2041	30.56958
12.52374	866.438	30.5891
12.5244	870.339	30.6086
12.5257	859.494	30.6282
12.5272	863.1203	30.6477
12.5292	873.2547	30.6672
12.5314	858.678	30.6868
12.5324	860.729	30.7063
12.53417	870.328	30.72583
12.5367	867.9906	30.7454
12.5385	861.162	30.7649
12.5393	872.496	30.7844
12.541	865.2121	30.804
12.5412	862.426	30.8235
12.5438	868.987	30.843
12.5453	872.296	30.8625
12.5473	860.745	30.88208
12.549	866.68	30.9016
12.5496	871.909	30.9211
12.5523	864.403	30.9407
12.5533	865.39	30.9602
12.5545	872.733	30.9797
12.55771	866.207	30.9993
12.5587	862.0481	31.0188
12.5608	872.255	31.03833
12.5621	868.145	31.0579
12.5645	863.673	31.0774
12.5647	873.271	31.0969
12.5679	875.544	31.1165
12.5691	858.5863	31.136
12.57033	871.917	31.1555
12.5714	873.7262	31.175
12.574	864.397	31.19458
12.5755	870.307	31.2141
12.5765	877.253	31.2336
12.5786	862.219	31.2532
12.5794	869.949	31.2727
12.5814	878.119	31.2922
12.5825	868.224	31.3118
12.5854	866.0918	31.3313
12.5869	879.251	31.35083
12.588	869.6048	31.3704
12.5899	865.618	31.3899
12.5912	874.507	31.4094
12.5926	875.484	31.429
12.59509	865.075	31.4485
12.5958	876.024	31.468
12.5981	873.217	31.4875
12.5992	866.727	31.50708
12.6011	871.181	31.5266
12.6026	880.6557	31.5461
12.6046	868.098	31.5657
12.6055	870.13	31.5852
12.6083	877.442	31.6047
12.6093	873.344	31.6243
12.6111	871.0802	31.6438
12.6117	878.9187	31.66333
12.6134	873.236	31.6829
12.6156	866.557	31.7024
12.6178	877.5285	31.7219
12.6187	877.076	31.7415
12.6197	867.541	31.761
12.6223	877.163	31.7805
12.6242	883.067	31.8
12.62532	866.949	31.81958
12.6272	874.816	31.8391
12.62859	880.44	31.8586
12.631	870.976	31.8782
12.63247	872.753	31.8977
12.6331	883.588	31.9172
12.6356	870.746	31.9368
[...]
15.313	893.913	64.0847
15.3138	900.952	64.1042
15.3164	907.228	64.1238
15.3176	899.197	64.1433
15.3183	901.232	64.1628
15.3216	905.214	64.1824
15.3214	900.059	64.2019
15.32362	896.862	64.2214
15.3249	905.961	64.241
15.3268	901.137	64.2605
15.3283	897.118	64.28
15.3298	904.273	64.2996
15.3325	905.996	64.3191
15.3332	894.909	64.3386
15.3348	902.593	64.3582
15.3372	906.163	64.3777
15.339	897.542	64.3972
15.3405	897.483	64.4167
15.3413	909.266	64.4363
15.3435	897.316	64.4558
15.346	898.911	64.4753
15.34577	907.5025	64.4949
15.3486	901.113	64.5144
15.3505	892.444	64.5339
15.3523	907.5686	64.5535
15.3517	902.679	64.573
15.3543	896.0083	64.5925
15.3571	905.468	64.6121
15.3576	904.2627	64.6316
15.3602	893.029	64.6511
15.3622	903.302	64.6707
15.3633	904.473	64.6902
15.3645	894.249	64.7097
15.3669	901.2995	64.7292
15.3679	906.807	64.7488
15.3684	896.073	64.7683
15.3717	897.565	64.7878
15.3725	905.57	64.8074
15.374	898.533	64.8269
15.37601	897.626	64.8464
15.3772	905.028	64.866
15.3802	901.449	64.8855
15.3815	895.733	64.905
15.3831	906.277	64.9246
15.3843	903.774	64.9441
15.3867	897.384	64.9636
15.3868	900.258	64.9832
15.3892	907.249	65.0027
15.3909	896.039	65.0222
15.39242	900.599	65.0417
15.39408	907.23	65.0613
15.3955	900.2746	65.0808
15.3971	895.53	65.1003
15.4	909.078	65.1199
15.4007	899.657	65.1394
15.4026	896.384	65.1589
15.4043	907.57	65.1785
15.4055	906.001	65.198
15.4066	892.094	65.2175
15.4095	906.024	65.2371
15.4101	903.9364	65.2566
15.4135	896.468	65.2761
15.4128	904.049	65.2957
15.4149	906.959	65.3152
15.4163	893.261	65.3347
15.4184	903.089	65.3542
15.4201	906.8819	65.3738
15.4212	897.723	65.3933
15.4243	899.102	65.4128
15.42453	906.763	65.4324
15.4261	898.587	65.4519
15.427	897.346	65.4714
15.4292	906.216	65.491
15.4307	901.9726	65.5105
15.4334	897.301	65.53
15.4342	905.249	65.5496
15.4368	903.109	65.5691
15.4377	894.48	65.5886
15.4393	902.021	65.6082
15.4409	905.297	65.6277
15.4423	897.868	65.6472
15.4449	898.632	65.6667
15.4451	905.982	65.6863
15.4474	896.647	65.7058
15.4482	898.569	65.7253
15.4521	907.038	65.7449
15.4521	899.819	65.7644
15.454	892.782	65.7839
15.4561	908.664	65.8035
15.45811	902.271	65.823
15.4601	894.913	65.8425
15.4602	904.206	65.8621
15.462	907.18	65.8816
15.4632	893.631	65.9011
15.4641	904.933	65.9207
15.4675	904.339	65.9402
15.4685	896.0318	65.9597
15.4696	901.479	65.9792
15.4716	909.313	65.9988
15.47364	895.063	66.0183
15.4745	898.384	66.0378
15.476	907.731	66.0574
15.4789	900.711	66.0769
15.4803	897.433	66.0964
15.4811	906.864	66.116
15.483	899.692	66.1355
15.4855	895.531	66.155
15.4877	905.897	66.1746
15.48835	903.167	66.1941
15.4903	896.882	66.2136
15.4911	901.813	66.2332
15.4932	906.172	66.2527
15.4947	896.417	66.2722
15.4968	899.562	66.2917
15.4978	905.464	66.3113
15.4997	898.53	66.3308
15.5018	896.871	66.3503
15.5024	906.646	66.3699
15.5047	899.327	66.3894
15.50621	897.073	66.4089
15.5075	906.539	66.4285
15.5096	905.745	66.448
15.5113	892.286	66.4675
15.5127	905.715	66.4871
15.514	903.6532	66.5066
15.5164	896.228	66.5261
15.5172	900.693	66.5457
15.5184	907.119	66.5652
15.5212	893.587	66.5847
15.52223	902.608	66.6042
15.5227	905.232	66.6238
15.5262	896.644	66.6433
15.5287	897.917	66.6628
15.5283	909.69	66.6824
15.5315	898.054	66.7019
15.5327	897.426	66.7214
15.5334	904.309	66.741
15.5362	902.629	66.7605
15.5366	896.377	66.78
15.5374	903.484	66.7996
15.5407	900.148	66.8191
15.5427	897.232	66.8386
15.5433	902.894	66.8582
15.5453	907.687	66.8777
15.547	896.943	66.8972
15.5486	898.2569	66.9167
15.54959	906.172	66.9363
15.5527	897.9549	66.9558
15.55337	897.15	66.9753
15.5545	905.284	66.9949
15.5574	900.102	67.0144
15.5576	894.643	67.0339
15.5597	905.403	67.0535
15.5617	900.986	67.073
15.5631	895.518	67.0925
15.5649	903.3053	67.1121
15.5669	905.28	67.1316
15.5694	893.633	67.1511
15.5697	900.536	67.1707
15.5706	904.067	67.1902
15.5722	895.948	67.2097
15.5749	901.36	67.2292
15.576	908.335	67.2488
15.5771	895.112	67.2683
15.5799	899.176	67.2878
15.58	907.2973	67.3074
15.5826	898.117	67.3269
15.585	894.8866	67.3464
15.5862	906.323	67.366
15.5878	899.48	67.3855
15.589	895.361	67.405
15.5904	902.382	67.4246
15.5926	902.616	67.4441
15.5936	895.358	67.4636
15.5956	903.437	67.4832
15.5972	903.234	67.5027
15.5994	896.449	67.5222
15.6016	898.356	67.5417
15.60247	908.224	67.5613
15.6039	897.7951	67.5808
15.6051	897.929	67.6003
15.6073	903.61	67.6199
15.6073	898.963	67.6394
15.61	895.586	67.6589
15.6123	905.082	67.6785
15.6128	903.199	67.698
15.6149	893.097	67.7175
15.6167	903.528	67.7371
15.6184	903.981	67.7566
15.6203	894.136	67.7761
15.6217	900.992	67.7957
15.623	908.608	67.8152
15.6254	894.582	67.8347
15.6263	900.859	67.8542
15.6288	905.488	67.8738
15.63	896.9328	67.8933
15.6318	897.183	67.9128
15.633	909.598	67.9324
15.6348	896.233	67.9519
15.637	896.658	67.9714
15.6378	903.485	67.991
15.63969	902.078	68.0105
15.6418	895.014	68.03
15.6431	905.005	68.0496
15.6436	901.3	68.0691
15.6457	895.698	68.0886
15.6478	901.082	68.1082
15.64935	906.988	68.1277
15.6513	896.99	68.1472
15.6514	901.588	68.1667
15.6553	904.753	68.1863
15.6544	898.46	68.2058
15.6578	894.7782	68.2253
15.6589	907.683	68.2449
15.6605	901.557	68.2644
15.6624	895.7431	68.2839
15.6645	903.968	68.3035
15.6661	903.403	68.323
15.6671	893.486	68.3425
15.6697	904.13	68.3621
15.6707	903.739	68.3816
15.6717	894.14	68.4011
15.6735	900.324	68.4207
15.675	906.378	68.4402
15.6766	894.823	68.4597
15.6791	897.225	68.4792
15.6804	907.533	68.4988
15.6825	896.846	68.5183
15.6832	898.301	68.5378
15.6854	905.54	68.5574
15.6865	899.394	68.5769
15.689	896.603	68.5964
15.6898	907.107	68.616
15.6909	899.335	68.6355
15.6933	894.711	68.655
15.6954	902.259	68.6746
15.6967	903.425	68.6941
15.6991	895.088	68.7136
15.7005	903.536	68.7332
15.70074	903.384	68.7527
15.7035	896.7149	68.7722
15.70494	898.215	68.7917
15.7064	907.909	68.8113
15.7075	897.341	68.8308
15.7098	897.861	68.8503
15.7109	904.193	68.8699
15.7125	901.055	68.8894
15.7145	894.95	68.9089
15.7162	906.415	68.9285
15.7179	901.681	68.948
15.7194	895.479	68.9675
15.7205	902.442	68.9871
15.7231	904.458	69.0066
15.724	893.808	69.0261
15.72619	901.452	69.0457
15.7275	908.189	69.0652
15.7298	896.13	69.0847
15.73145	897.977	69.1042
15.7325	905.781	69.1238
15.7337	897.213	69.1433
15.7363	895.305	69.1628
15.7379	909.039	69.1824
15.7386	898.308	69.2019
15.7404	895.051	69.2214
15.7414	906.3324	69.241
15.7438	901.39	69.2605
15.7452	892.75	69.28
15.7469	905.951	69.2996
15.7489	902.549	69.3191
15.7505	893.363	69.3386
15.752	899.912	69.3582
15.7539	907.5022	69.3777
15.7549	895.5882	69.3972
15.757	902.138	69.4167
15.75872	904.149	69.4363
15.7602	897.107	69.4558
15.7622	895.123	69.4753
15.76282	908.087	69.4949
15.7642	899.633	69.5144
15.7668	895.534	69.5339
15.7672	901.782	69.5535
15.7704	902.7738	69.573
15.7713	895.327	69.5925
15.7734	903.468	69.6121
15.7752	905.207	69.6316
15.7762	894.647	69.6511
15.7779	900.013	69.6707
15.7785	905.229	69.6902
15.78195	894.676	69.7097
15.7826	898.349	69.7292
15.7839	908.423	69.7488
15.7862	896.231	69.7683
15.7871	893.639	69.7878
15.7896	906.002	69.8074
15.791	899.521	69.8269
15.7922	895.836	69.8464
15.7939	907.92	69.866
15.796	900.58	69.8855
15.7988	894.62	69.905
15.7989	904.235	69.9246
15.8011	904.633	69.9441
15.8025	893.694	69.9636
15.8036	902.222	69.9832
15.8051	903.815	70.0027
15.8079	896.2901	70.0222
15.8097	898.65	70.0417
15.81	907.084	70.0613
15.8111	895.766	70.0808
15.8138	898.673	70.1003
15.8159	905.208	70.1199
15.8173	900.5545	70.1394
15.8186	894.598	70.1589
15.8207	906.329	70.1785
15.822	903.56	70.198
15.82416	894.975	70.2175
15.8254	900.691	70.2371
15.8268	906.062	70.2566
15.8288	893.718	70.2761
15.8299	901.685	70.2957
15.832	906.4632	70.3152
15.8321	893.575	70.3347
15.8355	897.613	70.3542
15.8362	907.049	70.3738
15.8384	895.837	70.3933
15.84023	897.433	70.4128
15.8409	906.116	70.4324
15.8434	899.068	70.4519
15.84429	893.807	70.4714
15.8462	905.422	70.491
15.8484	900.454	70.5105
15.8491	893.017	70.53
15.8509	906.308	70.5496
15.8535	904.003	70.5691
15.8542	892.919	70.5886
15.8556	901.103	70.6082
15.8574	905.192	70.6277
15.8576	894.082	70.6472
15.86056	900.118	70.6667
15.86447	904.222	70.6863
15.8649	896.575	70.7058
15.8665	896.3205	70.7253
15.8667	907.423	70.7449
15.86939	898.049	70.7644
15.8712	895.417	70.7839
15.8714	903.955	70.8035
15.8731	902.946	70.823
15.8749	893.129	70.8425
15.8763	903.399	70.8621
15.8779	903.879	70.8816
15.88	895.61	70.9011
15.883	899.145	70.9207
15.885	906.535	70.9402
15.8856	893.624	70.9597
15.8861	899.219	70.9792
15.8882	906.973	70.9988
15.8902	897.301	71.0183
15.8931	893.763	71.0378
15.8941	908.034	71.0574
15.895	899.281	71.0769
15.8967	893.799	71.0964
15.8986	905.569	71.116
15.8988	900.836	71.1355
15.9012	892.627	71.155
15.9036	905.391	71.1746
15.9052	903.24	71.1941
15.90678	893.662	71.2136
15.9083	900.191	71.2332
15.9093	905.088	71.2527
15.9117	893.629	71.2722
15.9135	897.7215	71.2917
15.9141	906.5376	71.3113
15.91569	895.62	71.3308
15.91782	898.193	71.3503
15.9197	904.0097	71.3699
15.92072	897.819	71.3894
15.9231	893.483	71.4089
15.9247	904.926	71.4285
15.9263	901.548	71.448
15.9288	895.348	71.4675
15.9294	901.521	71.4871
15.9308	904.3175	71.5066
15.9326	892.335	71.5261
15.93414	901.553	71.5457
15.9356	904.748	71.5652
15.9375	896.991	71.5847
15.939	895.856	71.6042
15.9405	907.874	71.6238
15.9432	894.129	71.6433
15.94431	896.395	71.6628
15.9453	904.933	71.6824
15.9474	898.481	71.7019
15.94873	890	71.7214
15.9509	904.359	71.741
15.9513	900.39	71.7605
15.9534	894.631	71.78
15.9549	904.614	71.7996
15.9567	901.919	71.8191
15.9586	889.815	71.8386
15.96	903.675	71.8582
15.9622	904.417	71.8777
15.9635	891.605	71.8972
15.9651	897.531	71.9167
15.96681	905.036	71.9363
15.9683	895.231	71.9558
15.9701	894.638	71.9753
15.9725	905.495	71.9949
15.9724	894.505	72.0144
15.9744	895.776	72.0339
15.9777	903.9624	72.0535
15.9792	899.888	72.073
15.9797	890.3819	72.0925
15.9812	903.724	72.1121
15.9827	903.882	72.1316
15.985	894.864	72.1511
15.987	895.967	72.1707
15.9884	904.945	72.1902
15.9896	893.299	72.2097
15.9912	898.057	72.2292
15.9938	905.496	72.2488
15.99516	895.029	72.2683
15.9961	892.1842	72.2878
15.9981	906.99	72.3074
15.9993	895.846	72.3269
16.0027	892.977	72.3464
16.00226	904.495	72.366
16.0045	900.988	72.3855
16.0063	890.073	72.405
16.0078	902.32	72.4246
16.0082	900.5224	72.4441
16.0116	892.418	72.4636
16.0127	899.938	72.4832
16.0139	902.238	72.5027
16.0152	890.598	72.5222
16.0179	898.777	72.5417
16.0178	904.915	72.5613
16.02	894.212	72.5808
16.0226	895.3476	72.6003
16.0239	903.24	72.6199
16.0249	895.619	72.6394
16.0272	892.96	72.6589
16.0283	903.7381	72.6785
16.0302	897.4173	72.698
16.0329	893.805	72.7175
16.0334	901.1153	72.7371
16.03537	902.9007	72.7566
16.0375	891.85	72.7761
16.0385	898.445	72.7957
16.0394	903.861	72.8152
16.0424	894.7428	72.8347
16.0433	894.499	72.8542
16.04394	902.182	72.8738
16.0468	892.869	72.8933
16.0483	894.879	72.9128
16.04924	904.847	72.9324
16.0514	897.45	72.9519
16.05275	890.03	72.9714
16.0547	905.3587	72.991
16.0561	898.092	73.0105
16.0585	891.233	73.03
16.06023	901.887	73.0496
16.0614	901.999	73.0691
16.0624	888.073	73.0886
16.0643	899.686	73.1082
16.0665	900.942	73.1277
16.06813	892.427	73.1472
16.06938	899.15	73.1667
16.072	903.92	73.1863
16.0723	891.247	73.2058
16.0744	894.543	73.2253
16.0757	903.23	73.2449
16.07814	896.903	73.2644
16.0792	893.069	73.2839
16.0813	901.4278	73.3035
16.0817	896.694	73.323
16.0838	891.073	73.3425
16.0859	900.985	73.3621
16.0868	897.347	73.3816
16.0881	891.4068	73.4011
16.09	896.3255	73.4207
16.0914	902.934	73.4402
16.0934	890.841	73.4597
16.0957	896.31	73.4792
16.0975	902.638	73.4988
16.0983	897.317	73.5183
16.1003	891.97	73.5378
16.10224	903.548	73.5574
16.1048	893.809	73.5769
16.1049	891.597	73.5964
16.1062	903.287	73.616
16.1073	898.461	73.6355
16.10993	887.235	73.655
16.1108	900.678	73.6746
16.1128	898.609	73.6941
16.1147	891.61	73.7136
16.117	898.471	73.7332
16.1188	902.837	73.7527
16.119	887.898	73.7722
16.1212	898.019	73.7917
16.1229	903.003	73.8113
16.12492	893.569	73.8308
16.1262	894.078	73.8503
16.1272	904.765	73.8699
16.1302	892.5672	73.8894
16.131	891.416	73.9089
16.1332	900.391	73.9285
16.1347	897.467	73.948
16.1367	892.3653	73.9675
16.1374	899.937	73.9871
16.1395	896.7	74.0066
16.1413	889.132	74.0261
16.1418	899.476	74.0457
16.1442	901.361	74.0652
16.1461	892.251	74.0847
16.1469	892.17	74.1042
16.14826	901.806	74.1238
16.1504	892.159	74.1433
16.1517	890.42	74.1628
16.1534	901.464	74.1824
16.1554	895.925	74.2019
16.1571	888.989	74.2214
16.1589	902.871	74.241
16.1602	895.025	74.2605
16.1624	888.548	74.28
16.1633	899.7254	74.2996
16.1658	900.741	74.3191
16.1662	886.4577	74.3386
16.1683	899.145	74.3582
16.1704	899.264	74.3777
16.1723	891.262	74.3972
16.1731	895.042	74.4167
16.1758	902.126	74.4363
16.1777	889.123	74.4558
16.1781	893.381	74.4753
16.1805	902.108	74.4949
16.1818	894.213	74.5144
16.1836	888.844	74.5339
16.1859	901.553	74.5535
16.1865	893.598	74.573
16.1883	890.871	74.5925
16.1894	898.524	74.6121
16.1925	898.327	74.6316
16.1931	891.1651	74.6511
16.1937	897.688	74.6707
16.1957	900.624	74.6902
16.1982	888.234	74.7097
16.1984	894.286	74.7292
16.2017	901.132	74.7488
16.2025	893.718	74.7683
16.2041	891.705	74.7878
16.2061	900.596	74.8074
16.2091	892.823	74.8269
16.2094	890.383	74.8464
16.2111	900.666	74.866
16.21343	897.677	74.8855
16.2135	886.035	74.905
16.2164	900.515	74.9246
16.21755	898.027	74.9441
16.2199	888.6355	74.9636
16.2218	896.446	74.9832
16.2227	903.35	75.0027
16.2247	887.69	75.0222
16.2245	895.326	75.0417
16.2262	899.564	75.0613
16.2297	891.481	75.0808
16.2302	893.28	75.1003
16.2318	903.489	75.1199
16.2336	890.956	75.1394
16.2347	890.547	75.1589
16.2368	899.408	75.1785
16.2381	896.468	75.198
16.2402	889.783	75.2175
16.2411	898.257	75.2371
16.2437	896.993	75.2566
16.2463	890.69	75.2761
16.2466	896.031	75.2957
16.248	899.482	75.3152
16.2506	890.7793	75.3347
16.2511	893.275	75.3542
16.2536	900.036	75.3738
16.2548	890.502	75.3933
16.2565	889.148	75.4128
16.2585	899.421	75.4324
16.2609	896.24	75.4519
16.2605	888.5434	75.4714
16.26338	897.56	75.491
16.2651	894.847	75.5105
16.2663	887.874	75.53
16.2673	897.701	75.5496
16.2707	898.961	75.5691
16.271	885.456	75.5886
16.2729	896.616	75.6082
16.2736	898.736	75.6277
16.2763	889.1131	75.6472
16.27807	893.279	75.6667
16.2796	902.183	75.6863
16.2801	889.258	75.7058
16.2825	893.13	75.7253
16.2844	899.4986	75.7449
16.287	894.644	75.7644
16.2882	889.4129	75.7839
16.2892	900.957	75.8035
16.2905	893.57	75.823
16.2918	888.994	75.8425
16.2942	896.953	75.8621
16.2958	898.555	75.8816
16.2965	889.353	75.9011
16.2991	895.761	75.9207
16.2998	895.6275	75.9402
16.3033	889.468	75.9597
16.3032	890.974	75.9792
16.3061	900.328	75.9988
16.3074	889.91	76.0183
16.3083	889.815	76.0378
16.3101	898.421	76.0574
16.3111	893.5528	76.0769
16.3134	888.36	76.0964
16.3157	898.304	76.116
16.3167	896.52	76.1355
16.318	885.089	76.155
16.3205	896.353	76.1746
16.3216	897.213	76.1941
16.3238	885.93	76.2136
16.3239	894.607	76.2332
16.3261	899.574	76.2527
16.3279	885.491	76.2722
16.33	891.696	76.2917
16.332	897.848	76.3113
16.3316	889.751	76.3308
16.3352	889.493	76.3503
16.3365	901.015	76.3699
16.3375	889.801	76.3894
16.3399	889.957	76.4089
16.3417	896.678	76.4285
16.3424	894.133	76.448
16.3448	885.803	76.4675
16.345	897.441	76.4871
16.34704	892.628	76.5066
16.3496	885.185	76.5261
16.3517	890.724	76.5457
16.3533	895.471	76.5652
16.3545	887.08	76.5847
16.3566	891.038	76.6042
16.3572	894.65	76.6238
16.3591	887.3623	76.6433
16.3609	885.675	76.6628
16.3629	896.79	76.6824
16.3646	891.167	76.7019
16.3658	884.417	76.7214
16.3671	894.0636	76.741
16.36875	891.612	76.7605
16.37	883.549	76.78
16.3725	893.834	76.7996
16.3736	893.521	76.8191
16.3751	881.1662	76.8386
16.3774	891.022	76.8582
16.3796	894.387	76.8777
16.37998	881.882	76.8972
16.38167	885.543	76.9167
16.3841	897.804	76.9363
16.38518	883.112	76.9558
16.3863	884.948	76.9753
16.3879	893.979	76.9949
16.3891	887.346	77.0144
16.3913	882.856	77.0339
16.3939	894.933	77.0535
16.3944	886.227	77.073
16.3971	881.188	77.0925
16.3986	890.511	77.1121
16.399	890.704	77.1316
16.4008	880.283	77.1511
16.40369	888.646	77.1707
16.4049	889.521	77.1902
16.4059	882.921	77.2097
16.4078	884.199	77.2292
16.4093	892.1637	77.2488
16.4116	881.2171	77.2683
16.413	882.377	77.2878
16.4151	888.898	77.3074
16.4167	883.9	77.3269
16.4168	876.655	77.3464
16.4192	889.21	77.366
16.4216	886.413	77.3855
16.4225	876.526	77.405
16.4243	880.857	77.4246
16.4355	47.52375	77.4441
16.4337	-45.3146	77.4636
16.4325	-36.3401	77.4832
16.4324	-42.7124	77.5027
16.4347	-55.6259	77.5222
16.435	-52.0195	77.5417
16.4368	-41.0368	77.5613
16.4379	-51.7522	77.5808
16.4393	-54.1589	77.6003
16.44099	-38.1683	77.6199
16.4432	-50.5604	77.6394
16.4444	-54.0486	77.6589
16.4461	-42.8917	77.6785
16.4473	-45.2389	77.698
16.449	-56.4271	77.7175
16.4509	-43.2845	77.7371
16.452	-47.0452	77.7566
16.4547	-55.2341	77.7761
16.4562	-47.3096	77.7957
16.4584	-40.7553	77.8152
16.4597	-53.0933	77.8347
16.4616	-48.8412	77.8542
16.4629	-42.877	77.8738
16.4636	-50.5675	77.8933
16.4657	-52.4886	77.9128
16.46699	-39.6136	77.9324
16.468	-48.7316	77.9519
16.4698	-53.5386	77.9714
16.4728	-44.5818	77.991
16.4734	-44.5899	78.0105
16.4747	-56.9968	78.03
16.4762	-44.3422	78.0496
16.4783	-43.245	78.0691
16.479	-55.0918	78.0886
16.481	-48.2603	78.1082
16.48366	-41.6346	78.1277
16.4847	-53.0729	78.1472
16.4855	-48.4438	78.1667
16.4879	-40.17939	78.1863
16.4901	-52.5787	78.2058
16.4913	-54.5953	78.2253
16.4918	-41.293	78.2449
16.4946	-49.4384	78.2644
16.4962	-54.2561	78.2839
16.4978	-41.8	78.3035
16.5002	-48.6985	78.323
16.5002	-54.8202	78.3425
16.5034	-45.3892	78.3621
16.5034	-43.6754	78.3816
16.5062	-56.1078	78.4011
16.5078	-45.8672	78.4207
16.5097	-43.7658	78.4402
16.5105	-53.3454	78.4597
16.5124	-51.175	78.4792
16.5131	-40.9257	78.4988
16.5167	-50.21101	78.5183
16.5166	-50.1757	78.5378
16.5194	-43.9099	78.5574
16.52018	-48.0998	78.5769
16.5225	-54.6802	78.5964
16.5237	-42.6603	78.616
16.5261	-44.276	78.6355
16.528	-54.8105	78.655
16.5278	-47.1072	78.6746
16.5298	-42.2557	78.6941
16.532	-55.33136	78.7136
16.5341	-45.9656	78.7332
16.5354	-42.197	78.7527
16.5361	-54.0001	78.7722
16.5382	-52.4374	78.7917
16.5404	-40.81329	78.8113
16.5428	-54.0034	78.8308
16.54347	-54.1324	78.8503
16.5454	-40.5918	78.8699
16.5462	-48.967	78.8894
16.5483	-55.4132	78.9089
16.5497	-43.1671	78.9285
16.5519	-45.3549	78.948
16.55308	-56.0569	78.9675
16.555	-44.11	78.9871
16.5564	-46.461	79.0066
16.5584	-54.5879	79.0261
16.55958	-48.578	79.0457
16.5612	-40.2037	79.0652
16.563	-56.1094	79.0847
16.5646	-48.3161	79.1042
16.566	-43.7841	79.1238
16.5675	-47.0841	79.1433
16.5695	-54.6572	79.1628
16.5714	-41.0644	79.1824
16.5721	-50.18932	79.2019
16.5744	-51.8076	79.2214
16.5753	-44.5149	79.241
16.5778	-45.6869	79.2605
16.5791	-56.4661	79.28
16.5818	-43.3919	79.2996
16.5831	-42.6159	79.3191
16.5838	-53.3902	79.3386
16.5859	-50.8198	79.3582
16.5876	-41.3765	79.3777
16.5902	-54.0368	79.3972
16.5905	-49.9932	79.4167
16.5926	-42.3304	79.4363
16.5939	-50.6544	79.4558
16.5962	-54.31002	79.4753
16.5969	-40.5033	79.4949
16.59886	-50.9675	79.5144
16.6002	-55.15955	79.5339
16.6029	-41.3364	79.5535
16.60334	-48.411	79.573
16.6052	-57.32539	79.5925
16.6061	-46.1137	79.6121
16.6086	-46.5165	79.6316
16.60977	-56.8196	79.6511
16.6114	-44.9296	79.6707
16.6129	-45.6087	79.6902
16.6146	-54.6281	79.7097
16.6164	-49.7601	79.7292
16.6185	-41.2406	79.7488
16.6186	-52.8095	79.7683
16.622	-52.5902	79.7878
16.6222	-44.8102	79.8074
16.62529	-49.3315	79.8269
16.6262	-56.8455	79.8464
16.6279	-44.4735	79.866
16.6295	-47.8584	79.8855
16.6309	-52.7024	79.905
16.6328	-47.1956	79.9246
16.6357	-42.79	79.9441
16.6359	-57.2359	79.9636
16.63751	-47.0253	79.9832
16.6389	-41.5979	80.0027
16.6401	-48.8067	80.0125

Data Header:			0.254_hd_uprint_typei_4545_r0			Time:	80.073	s	4/15/2019 4:21:35 PM
Data Acquisition:	Timed
Station Name:	ft40.cfg
Test File Name:	monotonic_0.2540_typei_hd_4545_uprint.tst
Displacement	Force	Running Time
mm	N	s
16.6405	-52.118	80.0222
16.6423	-54.9096	80.032
16.6431	-52.4815	80.0417
16.6443	-44.8998	80.0515
16.6444	-41.93708	80.0613