File: data/processed_data_files/tensile/0.254_solid_uprint_typei_4545_r(6).dat
MTS793|BTW|ENU|1|2|.|/|:|1|0|0|A

Data Header:			0.254_solid_uprint_typei_4545_r0			Time:	20.0173	s	4/14/2019 4:33:03 AM
Data Acquisition:	Timed
Station Name:	ft40.cfg
Test File Name:	monotonic_0.2540_typei_solid_4545_uprint.tst
Displacement	Force	Running Time
mm	N	s
9.95821	-105.376	0.0224609
9.957077	-96.113	0.0419922
9.95673	-111.799	0.0615234
9.9584	-110.528	0.0810547
9.96003	-93.5213	0.100586
9.96153	-104.352	0.120117
9.96304	-107.249	0.139648
9.96506	-96.892	0.15918
9.96701	-97.0654	0.178711
9.967103	-105.175	0.198242
9.96938	-92.5099	0.217773
9.97013	-94.7455	0.237305
9.97289	-102.222	0.256836
9.97422	-95.4536	0.276367
9.97552	-86.70327	0.295898
9.97743	-100.248	0.31543
9.97936	-96.1504	0.334961
9.98167	-86.2357	0.354492
9.98181	-92.7567	0.374023
9.98445	-96.2159	0.393555
9.98602	-83.81987	0.413086
9.98762	-90.2041	0.432617
9.98881	-93.6487	0.452148
9.99053	-82.446	0.47168
9.99228	-84.5361	0.491211
9.99361	-93.7768	0.510742
9.99483	-82.5357	0.530273
9.99717	-76.672	0.549805
9.99788	-90.4573	0.569336
9.99902	-81.6995	0.588867
10.0017	-74.4147	0.608398
10.0033	-85.4565	0.62793
10.0049	-80.4699	0.647461
10.0066	-67.8812	0.666992
10.0091	-82.66449	0.686523
10.01	-80.6587	0.706055
10.0121	-66.20652	0.725586
10.0132	-73.4993	0.745117
10.0148	-81.05	0.764648
10.017	-63.9313	0.78418
10.0186	-69.9016	0.803711
10.0187	-75.55275	0.823242
10.0214	-67.1438	0.842773
10.0236	-63.1259	0.862305
10.0243	-74.2636	0.881836
10.0264	-64.2816	0.901367
10.0278	-61.3095	0.920898
10.0291	-68.8681	0.94043
10.0309	-68.597	0.959961
10.033	-54.0621	0.979492
10.0347	-63.2684	0.999023
10.0351	-66.9397	1.01855
10.0374	-54.1103	1.03809
10.0399	-57.112	1.05762
10.0406	-64.9994	1.07715
10.0427	-52.687	1.09668
10.0443	-51.4796	1.11621
10.0455	-62.8119	1.13574
10.04669	-51.074	1.15527
10.0487	-47.1283	1.1748
10.0504	-61.3936	1.19434
10.05269	-51.4927	1.21387
10.0541	-41.3277	1.2334
10.0554	-55.7589	1.25293
10.0577	-49.9229	1.27246
10.0582	-40.4877	1.29199
10.0604	-48.8641	1.31152
10.0614	-49.2562	1.33105
10.0633	-35.3643	1.35059
10.0651	-46.03548	1.37012
10.0662	-48.7474	1.38965
10.0684	-36.0061	1.40918
10.0703	-36.0793	1.42871
10.0705	-48.5603	1.44824
10.0732	-33.2382	1.46777
10.0759	-33.6263	1.4873
10.0765	-41.7537	1.50684
10.0772	-36.5996	1.52637
10.0802	-26.58082	1.5459
10.081	-38.5934	1.56543
10.0827	-34.7264	1.58496
10.0855	-25.8925	1.60449
10.0868	-34.6469	1.62402
10.0877	-35.291	1.64355
10.0891	-20.3876	1.66309
10.0909	-25.3004	1.68262
10.09312	-35.0618	1.70215
10.0941	-22.0163	1.72168
10.096	-19.9294	1.74121
10.0978	-31.8259	1.76074
10.0981	-21.8002	1.78027
10.1009	-15.1797	1.7998
10.1027	-27.99	1.81934
10.1045	-18.7622	1.83887
10.1067	-10.88436	1.8584
10.108	-24.1351	1.87793
10.1087	-18.9485	1.89746
10.1096	-4.49697	1.91699
10.1115	-19.7286	1.93652
10.1139	-17.9214	1.95605
10.1157	-6.29776	1.97559
10.11634	-10.60686	1.99512
10.1181	-16.2768	2.01465
10.1204	-2.8919	2.03418
10.1221	-8.287118	2.05371
10.1242	-13.301	2.07324
10.1262	-3.45926	2.09277
10.127	0.351084	2.1123
10.1292	-12.10659	2.13184
10.1297	-1.75404	2.15137
10.1304	4.77044	2.1709
10.1331	-5.07822	2.19043
10.1341	-4.57913	2.20996
10.1376	7.537787	2.22949
10.1374	-0.476872	2.24902
10.1399	-1.485181	2.26855
10.141	10.85546	2.28809
10.14351	5.310977	2.30762
10.1453	-1.69677	2.32715
10.1467	12.07131	2.34668
10.149	12.36531	2.36621
10.15	-0.018168	2.38574
10.1513	13.3743	2.40527
10.1536	16.908	2.4248
10.1554	5.45809	2.44434
10.1572	13.4182	2.46387
10.1575	22.586	2.4834
10.1593	6.75505	2.50293
10.1606	15.8897	2.52246
10.1618	24.2498	2.54199
10.1636	15.3947	2.56152
10.1651	13.81918	2.58105
10.1678	29.8029	2.60059
10.1687	18.5035	2.62012
10.1717	16.3379	2.63965
10.17222	28.2534	2.65918
10.1741	27.793	2.67871
10.1763	19.5949	2.69824
10.177	31.024	2.71777
10.1785	31.50037	2.7373
10.1807	22.8004	2.75684
10.1817	28.984	2.77637
10.1838	38.049	2.7959
10.1843	25.9267	2.81543
10.1879	30.01667	2.83496
10.1887	41.1026	2.85449
10.1907	33.4426	2.87402
10.1926	29.4192	2.89355
10.19318	44.7191	2.91309
10.1955	38.9501	2.93262
10.1968	30.9264	2.95215
10.1983	45.3102	2.97168
10.2001	44.9157	2.99121
10.2014	34.38126	3.01074
10.2041	46.7905	3.03027
10.2052	51.334	3.0498
10.2064	34.2411	3.06934
10.2075	48.6963	3.08887
10.2104	55.6471	3.1084
10.2127	46.3574	3.12793
10.2128	46.9586	3.14746
10.2145	60.6463	3.16699
10.2163	47.0678	3.18652
10.218	49.2464	3.20605
10.2195	61.1255	3.22559
10.2205	55.8234	3.24512
10.2219	48.7321	3.26465
10.22385	63.7263	3.28418
10.2259	59.2581	3.30371
10.2274	52.6543	3.32324
10.2295	62.268	3.34277
10.2306	67.4896	3.3623
10.2325	56.8906	3.38184
10.2327	61.8855	3.40137
10.2365	70.5352	3.4209
10.2364	59.2847	3.44043
10.2383	62.906	3.45996
10.2406	74.5749	3.47949
10.2424	65.0212	3.49902
10.2445	62.7125	3.51855
10.2453	79.16201	3.53809
10.2464	70.6492	3.55762
10.249	63.4735	3.57715
10.2511	78.2401	3.59668
10.2524	81.6555	3.61621
10.2544	65.8543	3.63574
10.2545	80.8008	3.65527
10.2577	81.1788	3.6748
10.2595	72.1541	3.69434
10.2594	82.4571	3.71387
10.2619	90.6374	3.7334
10.2635	72.8374	3.75293
10.2649	83.571	3.77246
10.2665	91.5915	3.79199
10.268	83.5984	3.81152
10.2701	81.7956	3.83105
10.2712	95.8871	3.85059
10.2734	87.3759	3.87012
10.2743	84.7321	3.88965
10.2766	96.0332	3.90918
10.2781	94.9331	3.92871
10.2798	85.3435	3.94824
10.2801	96.0423	3.96777
10.2836	99.3393	3.9873
10.28524	88.8675	4.00684
10.2862	96.7459	4.02637
10.2883	105.059	4.0459
10.2889	94.756	4.06543
10.29143	95.0922	4.08496
10.2937	109.717	4.10449
10.2943	99.1125	4.12402
10.2955	97.5752	4.14355
10.2977	112.393	4.16309
10.29937	106.706	4.18262
10.301	96.2511	4.20215
10.3021	115.049	4.22168
10.3036	110.522	4.24121
10.3055	102.505	4.26074
10.3075	114.248	4.28027
10.3088	118.7415	4.2998
10.3102	102.981	4.31934
10.3112	114.743	4.33887
10.3144	120.4156	4.3584
10.31547	110.6851	4.37793
10.3168	115.301	4.39746
10.3188	127.879	4.41699
10.3207	111.425	4.43652
10.3215	114.75	4.45605
10.3242	127.928	4.47559
10.3256	123.264	4.49512
10.32618	114.787	4.51465
10.3283	130.214	4.53418
10.3303	127.197	4.55371
10.3311	119.237	4.57324
10.333	129.599	4.59277
10.33477	133.245	4.6123
10.3364	123.408	4.63184
10.339	128.84	4.65137
10.3405	138.681	4.6709
10.3414	124.185	4.69043
10.3429	128.972	4.70996
10.344	142.858	4.72949
10.3461	135.272	4.74902
10.3477	127.879	4.76855
10.3491	145.904	4.78809
10.3509	139.768	4.80762
10.3531	133.147	4.82715
10.3556	147.464	4.84668
10.3562	146.363	4.86621
10.3578	131.034	4.88574
10.3586	149.3421	4.90527
10.361	151.724	4.9248
10.3635	138.4917	4.94434
10.3647	145.512	4.96387
10.3657	157.094	4.9834
10.36737	139.61	5.00293
10.3685	147.065	5.02246
10.3709	156.878	5.04199
10.3723	150.626	5.06152
10.3752	148.205	5.08105
10.3759	163.2439	5.10059
10.3771	153.729	5.12012
10.3793	147.37	5.13965
10.381	163.854	5.15918
10.38255	161.761	5.17871
10.3845	152.194	5.19824
10.3864	161.078	5.21777
10.3868	167.727	5.2373
10.3883	155.822	5.25684
10.391	163.5127	5.27637
10.3923	170.678	5.2959
10.3933	162.641	5.31543
10.39476	161.364	5.33496
10.3966	178.2	5.35449
10.398	164.41	5.37402
10.3989	161.925	5.39355
10.4014	178.015	5.41309
10.4038	174.256	5.43262
10.4054	162.343	5.45215
10.40755	181.265	5.47168
10.4079	177.659	5.49121
10.4094	169.061	5.51074
10.4119	181.989	5.53027
10.4134	184.6386	5.5498
10.4141	168.687	5.56934
10.4176	180.4791	5.58887
10.4182	189.145	5.6084
10.4194	175.904	5.62793
10.42105	179.568	5.64746
10.4231	194.152	5.66699
10.4254	180.0549	5.68652
10.4254	180.157	5.70605
10.4281	194.286	5.72559
10.4293	187.383	5.74512
10.4299	181.298	5.76465
10.4324	195.7699	5.78418
10.4346	193.797	5.80371
10.4374	183.412	5.82324
10.4375	197.3783	5.84277
10.4393	202.169	5.8623
10.4411	187.785	5.88184
10.44189	193.967	5.90137
10.4448	207.24	5.9209
10.4461	192.563	5.94043
10.4478	195.622	5.95996
10.4487	208.648	5.97949
10.4501	199.286	5.99902
10.45116	193.655	6.01855
10.4527	214.642	6.03809
10.4554	204.053	6.05762
10.4573	195.251	6.07715
10.4584	213.352	6.09668
10.4604	213.925	6.11621
10.4613	197.482	6.13574
10.4626	214.725	6.15527
10.4647	217.516	6.1748
10.4663	205.969	6.19434
10.4684	214.261	6.21387
10.4701	222.462	6.2334
10.4719	207.523	6.25293
10.4742	213.793	6.27246
10.4743	226.838	6.29199
10.4767	216.027	6.31152
10.4783	212.82	6.33105
10.4795	228.494	6.35059
10.48138	222.552	6.37012
10.4826	214.6669	6.38965
10.4837	229.115	6.40918
10.4862	226.674	6.42871
10.4885	218.368	6.44824
10.4897	227.698	6.46777
10.4918	235.16	6.4873
10.4938	220.494	6.50684
10.49383	228.444	6.52637
10.4963	239.698	6.5459
10.4974	227.714	6.56543
10.4987	226.06	6.58496
10.5011	245.479	6.60449
10.50197	232.322	6.62402
10.503	230.0947	6.64355
10.5057	245.113	6.66309
10.5076	240.343	6.68262
10.5092	228.458	6.70215
10.5111	248.808	6.72168
10.5123	244.02	6.74121
10.51375	233.441	6.76074
10.51527	246.082	6.78027
10.51737	253.4801	6.7998
10.5185	235.425	6.81934
10.5198	245.486	6.83887
10.522	255.853	6.8584
10.5239	242.572	6.87793
10.5249	246.907	6.89746
10.5262	258.803	6.91699
10.52893	246.095	6.93652
10.53	247.483	6.95605
10.5315	263.399	6.97559
10.533	254.69	6.99512
10.5357	247.08	7.01465
10.5367	260.829	7.03418
10.5386	262.639	7.05371
10.5398	249.36	7.07324
10.5415	260.858	7.09277
10.5434	266.7438	7.1123
10.5455	255.596	7.13184
10.5469	259.986	7.15137
10.5488	273.996	7.1709
10.5493	258.106	7.19043
10.5515	263.349	7.20996
10.5534	276.391	7.22949
10.55518	267.091	7.24902
10.5558	258.481	7.26855
10.5582	279.372	7.28809
10.5601	271.278	7.30762
10.5598	264.84	7.32715
10.5627	277.428	7.34668
10.5647	278.118	7.36621
10.5657	264.498	7.38574
10.5679	282.389	7.40527
10.5688	284.578	7.4248
10.5709	268.171	7.44434
10.5717	278.636	7.46387
10.5743	289.395	7.4834
10.5746	274.363	7.50293
10.5768	277.398	7.52246
10.57817	292.514	7.54199
10.581	282.154	7.56152
10.5819	280.796	7.58105
10.5832	293.102	7.60059
10.5861	286.23	7.62012
10.5874	279.925	7.63965
10.5884	294.864	7.65918
10.5912	294.445	7.67871
10.592	282.842	7.69824
10.5938	292.64	7.71777
10.5949	303.921	7.7373
10.5966	286.832	7.75684
10.5981	293.73	7.77637
10.6002	305.2662	7.7959
10.6032	294.213	7.81543
10.6036	291.943	7.83496
10.6053	311.194	7.85449
10.6064	296.059	7.87402
10.6077	294.645	7.89355
10.6098	311.99	7.91309
10.61184	305.155	7.93262
10.6136	291.801	7.95215
10.6153	311.88	7.97168
10.6172	311.3316	7.99121
10.6175	299.337	8.01074
10.6201	310.69	8.03027
10.6215	316.808	8.0498
10.6224	300.623	8.06934
10.6247	311.6055	8.08887
10.62577	320.593	8.1084
10.628	305.928	8.12793
10.6297	308.939	8.14746
10.6308	325.705	8.16699
10.6333	314.9415	8.18652
10.6344	309.736	8.20605
10.63605	325.578	8.22559
10.6375	321.901	8.24512
10.639	313.441	8.26465
10.6403	324.711	8.28418
10.6427	328.83	8.30371
10.6438	315.373	8.32324
10.6455	328.175	8.34277
10.6479	334.936	8.3623
10.6486	319.953	8.38184
10.6502	321.715	8.40137
10.6529	340.142	8.4209
10.6536	324.851	8.44043
10.6552	323.658	8.45996
10.6569	341.531	8.47949
10.6584	332.585	8.49902
10.6601	322.748	8.51855
10.6612	343.21	8.53809
10.6639	337.517	8.55762
10.6653	326.527	8.57715
10.6677	344.276	8.59668
10.6686	346.782	8.61621
10.6693	328.242	8.63574
10.6714	342.957	8.65527
10.6735	350.707	8.6748
10.6749	335.793	8.69434
10.6768	340.621	8.71387
10.6781	353.346	8.7334
10.67951	341.499	8.75293
10.6802	340.844	8.77246
10.6833	358.1749	8.79199
10.6848	346.9	8.81152
10.6863	342.258	8.83105
10.6874	357.824	8.85059
10.6896	356.638	8.87012
10.6918	341.194	8.88965
10.6927	359.186	8.90918
10.6939	363.37	8.92871
10.6962	347.422	8.94824
10.698	354.1188	8.96777
10.6998	368.345	8.9873
10.70115	351.815	9.00684
10.7033	357.541	9.02637
10.7053	372.898	9.0459
10.706	359.311	9.06543
10.7077	351.825	9.08496
10.7087	376.215	9.10449
10.7116	365.193	9.12402
10.7115	354.8074	9.14355
10.71359	374.303	9.16309
10.716	372.689	9.18262
10.7166	357.892	9.20215
10.7196	373.631	9.22168
10.7206	376.979	9.24121
10.72199	361.028	9.26074
10.7234	373.785	9.28027
10.7266	384.705	9.2998
10.7271	366.035	9.31934
10.7285	370.802	9.33887
10.7302	387.259	9.3584
10.7318	373.39	9.37793
10.7337	372.944	9.39746
10.735	387.892	9.41699
10.7376	381.943	9.43652
10.739	371.222	9.45605
10.7394	390.823	9.47559
10.7409	386.196	9.49512
10.7435	374.725	9.51465
10.7457	388.573	9.53418
10.7466	397.957	9.55371
10.7478	375.262	9.57324
10.7491	387.688	9.59277
10.7523	399.445	9.6123
10.7526	385.6937	9.63184
10.7552	383.083	9.65137
10.7565	405.477	9.6709
10.7586	387.816	9.69043
10.7598	386.081	9.70996
10.7618	407.74	9.72949
10.7631	397.182	9.74902
10.765	384.372	9.76855
10.7667	407.5704	9.78809
10.7679	404.2	9.80762
10.7693	387.8945	9.82715
10.7707	406.653	9.84668
10.7723	411.597	9.86621
10.7747	393.024	9.88574
10.7761	404.724	9.90527
10.777	414.973	9.9248
10.7802	399.276	9.94434
10.781	405.48	9.96387
10.7829	419.482	9.9834
10.784	406.073	10.00293
10.7866	401.35	10.0225
10.7865	423.654	10.042
10.7896	413.192	10.0615
10.7905	404.495	10.0811
10.7917	418.646	10.1006
10.7946	421.927	10.1201
10.7953	405.773	10.1396
10.7966	421.503	10.15918
10.7986	426.448	10.1787
10.8005	410.904	10.1982
10.8027	418.842	10.2178
10.8038	432.915	10.2373
10.8051	411.666	10.2568
10.8065	416.993	10.2764
10.8082	436.025	10.2959
10.8097	422.341	10.31543
10.8118	414.728	10.335
10.8137	438.427	10.3545
10.8152	429.897	10.374
10.81636	418.685	10.3936
10.8185	438.578	10.4131
10.8197	435.462	10.4326
10.8215	419.339	10.4521
10.8234	439.132	10.47168
10.8247	443.866	10.4912
10.82599	422.598	10.5107
10.8274	435.778	10.5303
10.8292	446.641	10.5498
10.8316	431.359	10.5693
10.8326	433.785	10.5889
10.8331	450.894	10.6084
10.83611	436.226	10.62793
10.8381	435.591	10.6475
10.8395	451.046	10.667
10.8411	445.557	10.6865
10.8426	433.304	10.7061
10.8438	454.881	10.7256
10.8452	452.782	10.7451
10.8475	438.678	10.7646
10.8485	449.77	10.78418
10.8503	460.8548	10.8037
10.8528	439.4754	10.8232
10.855	451.649	10.8428
10.85502	462.036	10.8623
10.857	447.466	10.8818
10.8584	446.545	10.9014
10.8604	470.058	10.9209
10.8626	452.316	10.94043
10.8638	448.68	10.96
10.8651	470.89	10.9795
10.867	460.891	10.999
10.8685	447.167	11.0186
10.871	468.454	11.0381
10.8719	467.106	11.0576
10.8735	450.778	11.0771
10.8742	469.791	11.09668
10.8775	472.133	11.1162
10.8781	455.796	11.1357
10.8802	466.453	11.1553
10.881	478.766	11.1748
10.8831	460.276	11.1943
10.8845	465.736	11.2139
10.8868	480.938	11.2334
10.88879	471.024	11.25293
10.8891	461.439	11.2725
10.892	486.208	11.292
10.8937	477.316	11.3115
10.8951	465.9418	11.3311
10.89629	481.811	11.3506
10.898	485.043	11.3701
10.8986	466.069	11.3896
10.9013	483.49	11.40918
10.9026	490.7038	11.4287
10.9039	471.827	11.4482
10.9055	477.17	11.4678
10.9075	498.239	11.4873
10.9089	477.8071	11.5068
10.9101	480.389	11.5264
10.91242	499.949	11.5459
10.9136	482.607	11.56543
10.9156	477.708	11.585
10.9177	500.344	11.6045
10.9202	491.925	11.624
10.9203	477.143	11.6436
10.9226	499.795	11.6631
10.9231	498.627	11.6826
10.9258	481.597	11.7021
10.9266	496.61	11.72168
10.9293	505.118	11.7412
10.9298	486.836	11.7607
10.933	498.263	11.7803
10.93462	506.827	11.7998
10.9349	492.255	11.8193
10.9372	495.498	11.8389
10.9381	515.418	11.8584
10.94	499.322	11.87793
10.9412	495.254	11.8975
10.9437	512.042	11.917
10.9455	509.887	11.9365
10.9475	495.363	11.9561
10.9487	515.407	11.9756
10.9508	514.3656	11.9951
10.95179	499.38	12.0146
10.9531	511.639	12.03418
10.9546	521.475	12.0537
10.9571	500.287	12.0732
10.9582	511.974	12.0928
10.9601	527.266	12.1123
10.9613	505.795	12.1318
10.9631	507.813	12.1514
10.9642	529.519	12.1709
10.9658	514.543	12.19043
10.9682	508.441	12.21
10.97	530.044	12.2295
10.9705	519.3183	12.249
10.9731	510.179	12.2686
10.97411	531.496	12.2881
10.9764	526.719	12.3076
10.9778	510.799	12.3271
10.979	529.898	12.34668
10.9812	533.053	12.3662
10.9831	517.393	12.3857
10.98413	524.356	12.4053
10.9847	540.301	12.4248
10.9871	523.718	12.4443
10.9892	527.438	12.4639
10.9903	540.471	12.4834
10.993	530.1698	12.50293
10.9941	524.663	12.5225
10.9948	545.6626	12.542
10.9971	537.082	12.5615
10.9987	525.482	12.5811
11.0001	542.842	12.6006
11.0021	545.734	12.6201
11.0034	526.986	12.6396
11.005	541.916	12.65918
11.0068	551.056	12.6787
11.0088	531.916	12.6982
11.0111	539.725	12.7178
11.0121	553.563	12.7373
11.0136	534.673	12.7568
11.0141	539.592	12.7764
11.0165	560.461	12.7959
11.0185	541.719	12.81543
11.0201	536.877	12.835
11.0213	560.177	12.8545
11.0235	552.051	12.874
11.0239	539.289	12.8936
11.0269	559.458	12.9131
11.0274	555.999	12.9326
11.03	542.174	12.9521
11.0306	557.345	12.97168
11.03225	564.819	12.9912
11.034	545	13.0107
11.0366	556.915	13.0303
11.0379	567.799	13.0498
11.0399	553.857	13.0693
11.0412	553.302	13.0889
11.04346	573.794	13.1084
11.0442	559.122	13.12793
11.046	553.79	13.1475
11.0475	570.652	13.167
11.0493	567.454	13.1865
11.05	553.747	13.2061
11.0526	574.51	13.2256
11.0546	572.441	13.2451
11.0552	555.9165	13.2646
11.0578	571.697	13.28418
11.0593	578.988	13.3037
11.0606	559.8573	13.3232
11.0619	569.94	13.3428
11.0631	584.3161	13.3623
11.0661	566.079	13.3818
11.067	568.623	13.4014
11.0688	588.556	13.4209
11.0697	570.947	13.44043
11.0723	567.548	13.46
11.0738	591.314	13.4795
11.0747	577.067	13.499
11.0767	567.109	13.5186
11.0787	587.431	13.5381
11.0805	587.978	13.5576
11.0813	570.446	13.5771
11.0833	587.358	13.59668
11.0854	590.837	13.6162
11.0865	578.074	13.6357
11.0879	583.952	13.6553
11.09038	598.167	13.6748
11.09075	579.295	13.6943
11.0931	584.371	13.7139
11.095	599.615	13.7334
11.0964	589.759	13.75293
11.0994	579.308	13.7725
11.0992	603.221	13.792
11.1004	594.798	13.8115
11.1032	582.16	13.8311
11.1047	599.597	13.8506
11.10694	601.812	13.8701
11.1081	585.041	13.8896
11.1094	601.356	13.90918
11.112	608.74	13.9287
11.1127	586.647	13.9482
11.1137	596.4696	13.9678
11.1161	613.673	13.9873
11.1178	595.397	14.0068
11.1194	594.671	14.0264
11.1213	617.614	14.0459
11.1212	600.231	14.06543
11.1248	597.372	14.085
11.1252	615.576	14.1045
11.1283	608.072	14.124
11.1294	596.347	14.1436
11.1299	618.523	14.1631
11.1321	613.464	14.1826
11.1335	597.958	14.2021
11.1346	613.41	14.22168
11.137	622.4165	14.2412
11.1386	603.179	14.2607
11.1408	612.362	14.2803
11.1423	623.087	14.2998
11.1436	610.769	14.3193
11.1454	610.748	14.3389
11.147	629.7168	14.3584
11.148	612.924	14.37793
11.1499	609.4126	14.3975
11.1517	629.687	14.417
11.1522	622.2	14.4365
11.1552	610.0351	14.4561
11.158	629.305	14.4756
11.1586	631.946	14.4951
11.1592	612.532	14.5146
11.1612	627.541	14.53418
11.16331	636.386	14.5537
11.1643	617.672	14.5732
11.1668	627.681	14.5928
11.1674	641.601	14.6123
11.1699	618.893	14.6318
11.1715	626.443	14.6514
11.1729	646.635	14.6709
11.1736	630.944	14.69043
11.17649	624.619	14.71
11.1788	646.029	14.7295
11.1787	633.816	14.749
11.1805	626.361	14.7686
11.1818	643.274	14.7881
11.1835	643.933	14.8076
11.18572	626.268	14.8271
11.1872	644.9	14.84668
11.1894	649.066	14.8662
11.1903	632.282	14.8857
11.1927	641.059	14.9053
11.1937	656.884	14.9248
11.1965	638.053	14.9443
11.1969	639.287	14.9639
11.1992	656.332	14.9834
11.2014	644.385	15.00293
11.2018	638.999	15.0225
11.2037	657.236	15.042
11.206	649.014	15.0615
11.2068	638.289	15.0811
11.2079	659.054	15.1006
11.2105	657.981	15.1201
11.2111	639.309	15.1396
11.2134	654.237	15.15918
11.2158	666.397	15.1787
11.2166	641.198	15.1982
11.2182	653.945	15.2178
11.2193	668.31	15.2373
11.223	650.425	15.2568
11.2233	653.291	15.2764
11.2261	673.506	15.2959
11.22694	655.134	15.31543
11.2284	652	15.335
11.2303	672.089	15.3545
11.2305	666.028	15.374
11.2326	649.841	15.3936
11.2346	674.1366	15.4131
11.237	668.931	15.4326
11.2382	656.991	15.4521
11.2393	669.575	15.47168
11.2412	677.202	15.4912
11.2435	657.952	15.5107
11.2438	669.53	15.5303
11.2465	678.864	15.5498
11.2481	664.073	15.5693
11.24928	666.49	15.5889
11.2521	684.594	15.6084
11.2512	672.367	15.62793
11.2541	663.806	15.6475
11.2552	683.521	15.667
11.2566	678.425	15.6865
11.2591	665.435	15.7061
11.2596	683.814	15.7256
11.2623	684.361	15.7451
11.2645	667.199	15.7646
11.2654	683.897	15.78418
11.2673	691.428	15.8037
11.268	671.978	15.8232
11.2699	681.582	15.8428
11.2727	697.462	15.8623
11.2741	674.382	15.8818
11.276	680.912	15.9014
11.2768	697.562	15.9209
11.2773	684.818	15.94043
11.28	679.673	15.96
11.2816	699.9071	15.9795
11.28404	687.595	15.999
11.2851	679.694	16.0186
11.2866	698.719	16.0381
11.28829	698.626	16.0576
11.2891	680.574	16.0771
11.2921	698.665	16.09668
11.2931	702.245	16.1162
11.29504	685.796	16.1357
11.2958	693.604	16.1553
11.2982	706.694	16.1748
11.29957	691.88	16.1943
11.3017	693.32	16.2139
11.3025	710.349	16.2334
11.3054	697.243	16.25293
11.30571	693.073	16.2725
11.3085	711.7962	16.292
11.3095	706.124	16.3115
11.3109	690.208	16.3311
11.3121	712.868	16.3506
11.3141	712.091	16.3701
11.3168	697.128	16.3896
11.3174	709.824	16.40918
11.31962	718.08	16.4287
11.32	695.762	16.4482
11.3226	712.491	16.4678
11.3241	721.853	16.4873
11.3262	703.851	16.5068
11.3283	708.086	16.5264
11.329	727.108	16.5459
11.3309	708.874	16.56543
11.3321	707.867	16.585
11.3332	723.917	16.6045
11.3359	718.507	16.624
11.3375	706.767	16.6436
11.3384	726.092	16.6631
11.34	722.113	16.6826
11.34132	709.33	16.7021
11.3444	723.987	16.72168
11.3462	730.789	16.7412
11.3467	712.242	16.7607
11.3488	721.732	16.7803
11.3506	734.4845	16.7998
11.3522	719.886	16.8193
11.3543	717.827	16.8389
11.3547	736.553	16.8584
11.3562	726.195	16.87793
11.3583	718.309	16.8975
11.3593	739.783	16.917
11.3606	729.667	16.9365
11.3629	719.1626	16.9561
11.36465	739.263	16.9756
11.3664	739.5437	16.9951
11.368	717.843	17.0146
11.36967	737.7196	17.03418
11.371	741.8717	17.0537
11.3732	725.29	17.0732
11.3742	733.614	17.0928
11.3763	748.641	17.1123
11.3773	727.768	17.1318
11.3791	735.199	17.1514
11.381	750.515	17.1709
11.3821	735.45	17.19043
11.3838	732.386	17.21
11.3857	752.679	17.2295
11.3881	742.0943	17.249
11.3881	733.307	17.2686
11.3919	749.465	17.2881
11.3929	749.953	17.3076
11.3935	735.767	17.3271
11.3953	748.754	17.34668
11.3963	754.71	17.3662
11.3986	738.674	17.3857
11.3998	747.216	17.4053
11.40148	760.026	17.4248
11.4038	741.951	17.4443
11.4053	743.479	17.4639
11.4077	763.084	17.4834
11.4089	748.857	17.50293
11.4109	743.3891	17.5225
11.4122	763.376	17.542
11.4144	758.396	17.5615
11.4165	742.535	17.5811
11.41601	764.427	17.6006
11.4183	761.477	17.6201
11.4201	744.568	17.6396
11.4211	763.4613	17.65918
11.4235	769.761	17.6787
11.425	746.181	17.6982
11.4274	761.375	17.7178
11.4281	771.905	17.7373
11.4306	755.535	17.7568
11.4317	757.278	17.7764
11.433	777.236	17.7959
11.4355	758.428	17.81543
11.4364	759.447	17.835
11.4392	775.803	17.8545
11.4398	767.041	17.874
11.4405	756.743	17.8936
11.4433	775.869	17.9131
11.4439	774.911	17.9326
11.4468	757.535	17.9521
11.4469	773.242	17.97168
11.4504	779.828	17.9912
11.4512	764.787	18.0107
11.4535	770.901	18.0303
11.4544	783.63	18.0498
11.4564	766.719	18.0693
11.457	769.681	18.0889
11.4591	788.11	18.1084
11.46019	774.482	18.12793
11.4628	767.018	18.1475
11.4639	791.253	18.167
11.4662	779.761	18.1865
11.46703	770.447	18.2061
11.4684	788.626	18.2256
11.47063	788.961	18.2451
11.4719	767.897	18.2646
11.4738	787.045	18.28418
11.47599	790.3689	18.3037
11.477	775.498	18.3232
11.47823	786.331	18.3428
11.48116	798.189	18.3623
11.4819	776.106	18.3818
11.48344	782.226	18.4014
11.4851	798.5329	18.4209
11.4872	786.185	18.44043
11.4879	781.529	18.46
11.4889	799.61	18.4795
11.4916	791.411	18.499
11.49305	782.586	18.5186
11.4943	800.317	18.5381
11.49651	796.257	18.5576
11.4972	784.053	18.5771
11.4993	799.062	18.59668
11.5011	805.834	18.6162
11.5023	785.766	18.6357
11.5059	796.18	18.6553
11.5064	808.666	18.6748
11.5077	792.601	18.6943
11.5098	791.802	18.7139
11.5114	812.484	18.7334
11.5134	795.104	18.75293
11.51491	795.013	18.7725
11.51562	812.6261	18.792
11.51725	803.059	18.8115
11.5196	788.56	18.8311
11.5212	815.911	18.8506
11.5224	809.845	18.8701
11.5243	794.176	18.8896
11.5262	811.196	18.90918
11.5283	817.073	18.9287
11.5291	795.626	18.9482
11.53127	810.74	18.9678
11.5323	819.5592	18.9873
11.5341	802.17	19.0068
11.5351	808.422	19.0264
11.5368	824.731	19.0459
11.5389	805.485	19.06543
11.54	804.465	19.085
11.5424	825.932	19.1045
11.5433	813.802	19.124
11.5451	805.203	19.1436
11.5471	821.878	19.1631
11.54831	821.709	19.1826
11.5492	806.419	19.2021
11.5512	822.174	19.22168
11.5532	827.549	19.2412
11.5556	810.531	19.2607
11.5571	819.338	19.2803
11.5582	833.804	19.2998
11.5604	812.956	19.3193
11.5617	818.456	19.3389
11.563	835.16	19.3584
11.5645	822.047	19.37793
11.56639	814.084	19.3975
11.5681	837.294	19.417
11.5697	825.133	19.4365
11.5716	818.071	19.4561
11.5731	836.911	19.4756
11.5746	833.684	19.4951
11.5765	814.612	19.5146
11.5775	836.35	19.53418
11.579	839.632	19.5537
11.5815	821.107	19.5732
11.5829	832.587	19.5928
11.5845	844.913	19.6123
11.5871	824.728	19.6318
11.5882	830.628	19.6514
11.5889	845.077	19.6709
11.5913	829.4151	19.69043
11.5919	829.388	19.71
11.5941	846.465	19.7295
11.5956	837.807	19.749
11.59759	826.058	19.7686
11.5994	849.049	19.7881
11.6014	844.141	19.8076
11.6022	829.8363	19.8271
11.6045	843.037	19.84668
11.6057	850.941	19.8662
11.6072	831.141	19.8857
11.6089	843.476	19.9053
11.6106	853.927	19.9248
11.6119	837.041	19.9443
11.6152	838.074	19.9639
11.6149	860.3573	19.9834
11.6167	839.858	20.00293
11.61702	836.058	20.0127

Data Header:			0.254_solid_uprint_typei_4545_r0			Time:	40.0173	s	4/14/2019 4:33:23 AM
Data Acquisition:	Timed
Station Name:	ft40.cfg
Test File Name:	monotonic_0.2540_typei_solid_4545_uprint.tst
Displacement	Force	Running Time
mm	N	s
11.6195	839.316	20.0225
11.621	859.867	20.042
11.62179	850.411	20.0615
11.6236	835.509	20.0811
11.6252	858.917	20.1006
11.627	854.991	20.1201
11.6274	839.651	20.1396
11.6293	857.681	20.15918
11.6316	859.06	20.1787
11.6338	841.6	20.1982
11.6344	856.1048	20.2178
11.636	867.338	20.2373
11.6378	846.231	20.2568
11.6397	851.403	20.2764
11.64055	866.183	20.2959
11.6432	851.652	20.31543
11.645	849.0014	20.335
11.6458	868.312	20.3545
11.6485	858.409	20.374
11.65	851.3725	20.3936
11.6506	866.958	20.4131
11.6539	865.295	20.4326
11.6536	849.807	20.4521
11.6565	867.8042	20.47168
11.658	872.4	20.4912
11.6593	853.597	20.5107
11.6611	861.804	20.5303
11.6623	876.776	20.5498
11.6636	856.7879	20.5693
11.6652	862.914	20.5889
11.6669	879.203	20.6084
11.669	864.524	20.62793
11.6698	857.4809	20.6475
11.6719	882.246	20.667
11.6738	868.408	20.6865
11.675	858.187	20.7061
11.6763	880.061	20.7256
11.679	876.539	20.7451
11.68065	858.194	20.7646
11.6819	877.652	20.78418
11.6827	880.581	20.8037
11.68411	863.4903	20.8232
11.6874	876.99	20.8428
11.6882	883.235	20.8623
11.6909	867.313	20.8818
11.6925	872.421	20.9014
11.6939	889.7702	20.9209
11.6951	872.229	20.94043
11.6962	871.428	20.96
11.6979	887.958	20.9795
11.70073	881.39	20.999
11.7014	868.677	21.0186
11.70341	888.613	21.0381
11.7045	884.84	21.0576
11.7067	874.578	21.0771
11.7085	885.4895	21.09668
11.7096	893.019	21.1162
11.7115	872.734	21.1357
11.7123	887.159	21.1553
11.7147	896.809	21.1748
11.7169	879.239	21.1943
11.7172	879.265	21.2139
11.7191	900.911	21.2334
11.7212	885.529	21.25293
11.7238	881.94	21.2725
11.7239	899.287	21.292
11.726	889.837	21.3115
11.727	879.404	21.3311
11.72913	900.972	21.3506
11.7301	894.503	21.3701
11.7318	879.4812	21.3896
11.7342	898.616	21.40918
11.7354	900.956	21.4287
11.7364	882.301	21.4482
11.7386	894.45	21.4678
11.7408	905.484	21.4873
11.7421	887.681	21.5068
11.7435	894.136	21.5264
11.7462	905.316	21.5459
11.7469	893.724	21.56543
11.7499	891.621	21.585
11.7506	909.919	21.6045
11.7528	899.357	21.624
11.7535	890.668	21.6436
11.7557	906.9433	21.6631
11.7573	907.3587	21.6826
11.7581	890.031	21.7021
11.7586	907.376	21.72168
11.7618	911.5351	21.7412
11.7633	894.929	21.7607
11.7653	902.315	21.7803
11.7657	915.17	21.7998
11.7683	895.214	21.8193
11.7692	902.544	21.8389
11.77093	918.583	21.8584
11.7727	901.207	21.87793
11.7749	897.771	21.8975
11.7763	920.738	21.917
11.7777	908.835	21.9365
11.7786	900.419	21.9561
11.7812	918.787	21.9756
11.7832	913.698	21.9951
11.7832	899.237	22.0146
11.78658	916.886	22.03418
11.7872	919.814	22.0537
11.7888	901.799	22.0732
11.7907	915.829	22.0928
11.7927	922.197	22.1123
11.7942	907.087	22.1318
11.7965	910.9314	22.1514
11.7966	928.241	22.1709
11.7995	912.595	22.19043
11.801	912.248	22.21
11.8021	924.583	22.2295
11.8041	919.314	22.249
11.8065	909.8053	22.2686
11.8071	928.82	22.2881
11.80909	923.49	22.3076
11.8104	910.334	22.3271
11.8121	924.651	22.34668
11.8141	930.7749	22.3662
11.8149	910.0885	22.3857
11.8179	922.156	22.4053
11.8179	933.282	22.4248
11.82005	916.64	22.4443
11.8204	920.115	22.4639
11.824	936.5705	22.4834
11.8255	920.947	22.50293
11.8268	919.456	22.5225
11.8288	939.687	22.542
11.83	924.48	22.5615
11.83086	916.301	22.5811
11.8343	936.513	22.6006
11.835	934.9613	22.6201
11.8365	918.464	22.6396
11.838	935.457	22.65918
11.8401	934.92	22.6787
11.84077	921.192	22.6982
11.8432	932.074	22.7178
11.8457	941.746	22.7373
11.8475	924.2	22.7568
11.8474	932.503	22.7764
11.8492	942.593	22.7959
11.8509	930.804	22.81543
11.8535	927.122	22.835
11.8541	946.276	22.8545
11.8563	937.837	22.874
11.8581	929.124	22.8936
11.8596	942.604	22.9131
11.8607	942.111	22.9326
11.8619	926.646	22.9521
11.864	945.5835	22.97168
11.8655	946.973	22.9912
11.867	930.105	23.0107
11.8697	938.625	23.0303
11.8706	952.294	23.0498
11.8724	932.828	23.0693
11.873	938.33	23.0889
11.8756	954.713	23.1084
11.8772	937.969	23.12793
11.8786	935.456	23.1475
11.8796	954.606	23.167
11.8816	944.796	23.1865
11.8837	935.267	23.2061
11.886	956.716	23.2256
11.887	947.058	23.2451
11.8885	937.0462	23.2646
11.8892	953.005	23.28418
11.8922	955.326	23.3037
11.89413	937.52	23.3232
11.8948	950.584	23.3428
11.8965	956.294	23.3623
11.8983	944.069	23.3818
11.8992	948.241	23.4014
11.9021	961.536	23.4209
11.9037	945.879	23.44043
11.90414	947.682	23.46
11.9048	961.601	23.4795
11.9074	953.404	23.499
11.9096	942.7439	23.5186
11.9125	962.151	23.5381
11.9124	959.854	23.5576
11.9144	945.449	23.5771
11.9157	957.826	23.59668
11.9173	962.912	23.6162
11.9193	945.842	23.6357
11.9202	959.167	23.6553
11.9228	966.92	23.6748
11.9243	948.335	23.6943
11.9266	952.431	23.7139
11.9275	971.3891	23.7334
11.9289	954.232	23.75293
11.9308	951.519	23.7725
11.9312	971.308	23.792
11.9334	958.672	23.8115
11.9349	953.2016	23.8311
11.9367	968.896	23.8506
11.9389	965.4	23.8701
11.9418	953.756	23.8896
11.9418	970.47	23.90918
11.9441	966.867	23.9287
11.9458	954.237	23.9482
11.94738	965.531	23.9678
11.9488	975.498	23.9873
11.9511	958.998	24.0068
11.95203	962.9325	24.0264
11.9534	973.695	24.0459
11.956	963.566	24.06543
11.9567	960.569	24.085
11.9583	976.664	24.1045
11.9598	965.9516	24.124
11.9621	960.2	24.1436
11.9627	974.99	24.1631
11.9656	972.853	24.1826
11.9654	958.7746	24.2021
11.9678	974.441	24.22168
11.9693	979.1261	24.2412
11.97144	959.826	24.2607
11.9727	970.098	24.2803
11.9745	979.614	24.2998
11.9755	964.171	24.3193
11.9777	969.662	24.3389
11.9799	984.641	24.3584
11.981	966.08	24.37793
11.9834	967.781	24.3975
11.9842	985.283	24.417
11.9865	973.046	24.4365
11.988	965.295	24.4561
11.9888	985.279	24.4756
11.991	977.57	24.4951
11.99248	967.766	24.5146
11.994	980.395	24.53418
11.9962	984.555	24.5537
11.9972	968.263	24.5732
11.99929	981.777	24.5928
12.0006	984.156	24.6123
12.0013	971.3208	24.6318
12.0038	975.794	24.6514
12.005	991.537	24.6709
12.0068	974.848	24.69043
12.009	974.685	24.71
12.0112	989.312	24.7295
12.0127	982.294	24.749
12.0141	972.185	24.7686
12.0142	988.688	24.7881
12.0162	986.0426	24.8076
12.0188	973.2464	24.8271
12.0204	989.793	24.84668
12.0222	991.042	24.8662
12.0236	973.9267	24.8857
12.026	985.155	24.9053
12.0271	996.833	24.9248
12.0289	976.414	24.9443
12.0295	984.301	24.9639
12.0328	996.668	24.9834
12.0326	981.982	25.00293
12.03434	979.613	25.0225
12.0368	998.5141	25.042
12.0381	982.103	25.0615
12.0393	981.146	25.0811
12.04131	998.015	25.1006
12.0435	994.672	25.1201
12.0446	979.48	25.1396
12.0462	996.903	25.15918
12.0479	996.21	25.1787
12.0505	983.256	25.1982
12.0515	990.248	25.2178
12.053	999.814	25.2373
12.0552	984.764	25.2568
12.0565	990.822	25.2764
12.0584	1002.1	25.2959
12.0593	989.374	25.31543
12.0614	986.608	25.335
12.0627	1004.16	25.3545
12.06445	994.79	25.374
12.0659	986.315	25.3936
12.0671	1002.705	25.4131
12.0693	998.841	25.4326
12.0702	986.6701	25.4521
12.0715	999.745	25.47168
12.0743	1003.142	25.4912
12.07614	984.798	25.5107
12.0774	998.7027	25.5303
12.0779	1006.34	25.5498
12.0802	990.6449	25.5693
12.0817	995.5224	25.5889
12.0836	1010	25.6084
12.0858	990.615	25.62793
12.086	993.49	25.6475
12.0888	1009.51	25.667
12.0907	1000.02	25.6865
12.0922	991.065	25.7061
12.0935	1009.04	25.7256
12.0955	999.438	25.7451
12.097	993.807	25.7646
12.0988	1007.62	25.78418
12.0993	1007.71	25.8037
12.1007	991.861	25.8232
12.1034	1006.02	25.8428
12.1042	1009.94	25.8623
12.1064	995.865	25.8818
12.1085	999.96	25.9014
12.11	1012.545	25.9209
12.1113	1000.74	25.94043
12.1136	999.149	25.96
12.1147	1012.04	25.9795
12.1161	1003.58	25.999
12.1185	996.52	26.0186
12.1198	1013.52	26.0381
12.12095	1009.53	26.0576
12.1228	994.071	26.0771
12.1251	1011.66	26.09668
12.1262	1012.96	26.1162
12.1286	999.087	26.1357
12.1294	1007.761	26.1553
12.13169	1018.44	26.1748
12.134	996.9516	26.1943
12.1347	1008.17	26.2139
12.1352	1017.102	26.2334
12.1379	1001.99	26.25293
12.1395	1003.55	26.2725
12.14084	1021.68	26.292
12.14242	1005.91	26.3115
12.1442	1003.34	26.3311
12.146	1017.86	26.3506
12.1471	1013.97	26.3701
12.1491	1003.35	26.3896
12.1497	1016.73	26.40918
12.1528	1014.94	26.4287
12.1542	1003.36	26.4482
12.1554	1013.99	26.4678
12.1579	1020.92	26.4873
12.159	1003.39	26.5068
12.1602	1011.12	26.5264
12.162	1023.62	26.5459
12.1626	1010.47	26.56543
12.1647	1008.79	26.585
12.1661	1021.94	26.6045
12.1679	1014.05	26.624
12.1696	1006.87	26.6436
12.1715	1022.48	26.6631
12.1734	1016.65	26.6826
12.1756	1007.34	26.7021
12.1766	1021.59	26.72168
12.1779	1022.07	26.7412
12.1791	1003.11	26.7607
12.1807	1019.62	26.7803
12.1831	1024.37	26.7998
12.1837	1009.91	26.8193
12.1859	1013.83	26.8389
12.1874	1026.68	26.8584
12.1884	1009.085	26.87793
12.1918	1015.66	26.8975
12.1925	1028	26.917
12.1952	1016.95	26.9365
12.1965	1010.62	26.9561
12.19704	1029.15	26.9756
12.1995	1019.887	26.9951
12.2017	1011.1	27.0146
12.2026	1024.2	27.03418
12.2052	1026.73	27.0537
12.2062	1011.7	27.0732
12.2075	1021.81	27.0928
12.2091	1027.05	27.1123
12.2102	1014.17	27.1318
12.2119	1020.888	27.1514
12.2141	1032.1	27.1709
12.2158	1017.17	27.19043
12.2178	1015.85	27.21
12.2199	1031.47	27.2295
12.2204	1021.15	27.249
12.2216	1015.09	27.2686
12.2237	1029.699	27.2881
12.2246	1027.44	27.3076
12.22645	1012.409	27.3271
12.2295	1030.17	27.34668
12.2316	1028.01	27.3662
12.23283	1014.85	27.3857
12.2334	1026.45	27.4053
12.2353	1035.41	27.4248
12.2358	1012.24	27.4443
12.2392	1025.67	27.4639
12.239	1034.7	27.4834
12.2427	1020.86	27.50293
12.2431	1020.32	27.5225
12.2452	1036.98	27.542
12.2467	1021.13	27.5615
12.2494	1021.678	27.5811
12.249	1034.52	27.6006
12.2518	1027.98	27.6201
12.2523	1018.63	27.6396
12.2553	1033.75	27.65918
12.2557	1031.9	27.6787
12.2588	1018.08	27.6982
12.2595	1028.82	27.7178
12.2608	1036.04	27.7373
12.2622	1020.27	27.7568
12.26434	1025.96	27.7764
12.2662	1036.585	27.7959
12.2675	1024.46	27.81543
12.2689	1025.11	27.835
12.2719	1039	27.8545
12.2715	1029.06	27.874
12.2737	1020	27.8936
12.275	1040.52	27.9131
12.2768	1032.43	27.9326
12.2787	1018.79	27.9521
12.2799	1035.78	27.97168
12.2827	1037.7	27.9912
12.2848	1018.99	28.0107
12.2857	1035.42	28.0303
12.2873	1037.42	28.0498
12.289	1025.47	28.0693
12.2916	1030.06	28.0889
12.2917	1043.74	28.1084
12.2942	1024.682	28.12793
12.2947	1027.83	28.1475
12.297	1040.86	28.167
12.2996	1030.35	28.1865
12.2995	1025.81	28.2061
12.3019	1039.84	28.2256
12.3035	1031.87	28.2451
12.3047	1024.19	28.2646
12.308	1039.54	28.28418
12.3083	1037.26	28.3037
12.31077	1024.25	28.3232
12.3112	1035.81	28.3428
12.3128	1040.71	28.3623
12.315	1024.92	28.3818
12.3176	1030.57	28.4014
12.319	1043.18	28.4209
12.3202	1031.87	28.44043
12.3208	1026.81	28.46
12.3228	1044.41	28.4795
12.325	1033.26	28.499
12.3254	1028.04	28.5186
12.3279	1042.89	28.5381
12.3297	1038.65	28.5576
12.3318	1023.36	28.5771
12.3324	1042.95	28.59668
12.3339	1040.54	28.6162
12.3356	1028.01	28.6357
12.3375	1037.9	28.6553
12.3394	1046.959	28.6748
12.3395	1026.08	28.6943
12.34334	1036.52	28.7139
12.3432	1046.42	28.7334
12.3456	1031.33	28.75293
12.3475	1032.73	28.7725
12.3485	1048.34	28.792
12.3514	1032.46	28.8115
12.352	1030.29	28.8311
12.3548	1046.52	28.8506
12.356	1039.67	28.8701
12.3565	1028.98	28.8896
12.3585	1042.27	28.90918
12.3594	1041.46	28.9287
12.3623	1029.81	28.9482
12.3649	1040.28	28.9678
12.3653	1044.54	28.9873
12.3666	1031.72	29.0068
12.3682	1035.51	29.0264
12.3709	1048.73	29.0459
12.3722	1032.94	29.06543
12.37363	1032.9	29.085
12.37536	1048.557	29.1045
12.3775	1039.26	29.124
12.3796	1028.822	29.1436
12.3802	1048.74	29.1631
12.3814	1040.74	29.1826
12.38201	1031.684	29.2021
12.3846	1044.58	29.22168
12.3864	1045.81	29.2412
12.3892	1028.21	29.2607
12.3904	1044.1	29.2803
12.39177	1048.91	29.2998
12.394	1032.72	29.3193
12.3947	1039.87	29.3389
12.3959	1051.85	29.3584
12.3984	1033.99	29.37793
12.3998	1037.349	29.3975
12.4014	1049.96	29.417
12.4026	1038.2	29.4365
12.4043	1034.95	29.4561
12.40555	1050.66	29.4756
12.4083	1041.47	29.4951
12.4088	1032.06	29.5146
12.411	1048.36	29.53418
12.4125	1047.49	29.5537
12.4141	1035.08	29.5732
12.4167	1043.01	29.5928
12.41738	1051.26	29.6123
12.4194	1034.4	29.6318
12.4198	1042.13	29.6514
12.4225	1051.54	29.6709
12.4231	1038.58	29.69043
12.4264	1035.86	29.71
12.4274	1055.69	29.7295
12.428	1040.49	29.749
12.4306	1036.49	29.7686
12.4324	1053.17	29.7881
12.433	1045.85	29.8076
12.4356	1031.59	29.8271
12.4355	1050.65	29.84668
12.4382	1049.41	29.8662
12.4404	1035.74	29.8857
12.4425	1047.15	29.9053
12.4429	1052.26	29.9248
12.4458	1032.92	29.9443
12.4467	1044.6	29.9639
12.4478	1056.11	29.9834
12.4502	1038.68	30.00293
12.4512	1040.36	30.0225
12.45349	1054.69	30.042
12.4547	1041.12	30.0615
12.4564	1038.42	30.0811
12.4572	1050.99	30.1006
12.4598	1045.5	30.1201
12.4626	1036.21	30.1396
12.4627	1050.44	30.15918
12.4649	1049.93	30.1787
12.4664	1034.31	30.1982
12.4677	1048.23	30.2178
12.4696	1053.59	30.2373
12.4713	1038.26	30.2568
12.4726	1041.423	30.2764
12.4746	1056.32	30.2959
12.4763	1039.63	30.31543
12.4771	1043.443	30.335
12.4801	1056.03	30.3545
12.48	1043.743	30.374
12.4817	1036.056	30.3936
12.4836	1057.07	30.4131
12.4857	1048.338	30.4326
12.4869	1036.92	30.4521
12.4895	1053.06	30.47168
12.49032	1053.87	30.4912
12.4919	1033.34	30.5107
12.4939	1050.41	30.5303
12.4949	1054.86	30.5498
12.4971	1038.92	30.5693
12.4979	1046.49	30.5889
12.5007	1056.73	30.6084
12.5013	1039.91	30.62793
12.5032	1043.75	30.6475
12.5053	1059.01	30.667
12.50763	1044.74	30.6865
12.5085	1040.3	30.7061
12.51057	1054.56	30.7256
12.5114	1050.19	30.7451
12.5132	1038.29	30.7646
12.51508	1053.95	30.78418
12.5161	1054.08	30.8037
12.5179	1041.42	30.8232
12.52094	1048.48	30.8428
12.5208	1057.11	30.8623
12.5237	1037.79	30.8818
12.5254	1047.73	30.9014
12.5256	1059.39	30.9209
12.528	1043.91	30.94043
12.5288	1039.82	30.96
12.532	1059.85	30.9795
12.5333	1046.23	30.999
12.53512	1041.56	31.0186
12.5364	1057.9	31.0381
12.5376	1050.25	31.0576
12.53844	1037.44	31.0771
12.5419	1057.36	31.09668
12.5421	1052.72	31.1162
12.5447	1038.69	31.1357
12.5456	1052.81	31.1553
12.5468	1058.28	31.1748
12.5484	1038.46	31.1943
12.5503	1048.35	31.2139
12.5529	1059.34	31.2334
12.5542	1042.85	31.25293
12.5562	1045.85	31.2725
12.55721	1056.92	31.292
12.5585	1045.81	31.3115
12.5614	1043.22	31.3311
12.5629	1060.06	31.3506
12.5638	1050.77	31.3701
12.5647	1039.48	31.3896
12.5674	1053.45	31.40918
12.5685	1058.21	31.4287
12.5706	1039.81	31.4482
12.5719	1053.47	31.4678
12.5733	1058.07	31.4873
12.5752	1043.47	31.5068
12.5769	1047.65	31.5264
12.5776	1060.02	31.5459
12.5805	1043.155	31.56543
12.5817	1044.71	31.585
12.58336	1061.4	31.6045
12.5857	1048.72	31.624
12.5862	1039.08	31.6436
12.58782	1061.85	31.6631
12.5898	1053.829	31.6826
12.5922	1041.178	31.7021
12.5927	1056.01	31.72168
12.5957	1056.33	31.7412
12.5967	1039.24	31.7607
12.5989	1053.89	31.7803
12.5985	1058.97	31.7998
12.6014	1041.63	31.8193
12.6031	1049.95	31.8389
12.6044	1061.42	31.8584
12.6064	1044.017	31.87793
12.607	1045.2	31.8975
12.6094	1062.24	31.917
12.6111	1049.447	31.9365
12.6128	1047.23	31.9561
12.6138	1059.13	31.9756
12.6161	1054.41	31.9951
12.6174	1042.48	32.0146
12.6193	1059.83	32.03418
[...]
16.8172	1035.71	82.4248
16.81879	1029.82	82.43457
16.8183	1019.47	82.4443
16.82	1022.47	82.4541
16.8204	1029.01	82.4639
16.8216	1037.78	82.4736
16.8225	1038.5	82.4834
16.8235	1027.44	82.4932
16.8242	1023.9	82.50293
16.8246	1021.01	82.5127
16.8264	1027.36	82.5225
16.82662	1034.49	82.5322
16.8269	1034.44	82.542
16.828	1035.05	82.5518
16.8291	1025.46	82.5615
16.829	1020.62	82.5713
16.8301	1023.14	82.5811
16.8299	1029.35	82.59082
16.8331	1038.71	82.6006
16.8328	1033.28	82.6104
16.83449	1029.158	82.6201
16.8352	1024.97	82.6299
16.8355	1020.762	82.6396
16.8362	1026.69	82.6494
16.8368	1032.43	82.65918
16.8377	1037.37	82.6689
16.839	1033.46	82.6787
16.84	1025.59	82.6885
16.8397	1019.15	82.6982
16.8402	1023.48	82.708
16.8411	1033.23	82.7178
16.8432	1036.26	82.7275
16.844	1035.78	82.7373
16.8446	1028.31	82.74707
16.8448	1023.11	82.7568
16.8457	1022.21	82.7666
16.846	1026.77	82.7764
16.8466	1036.07	82.7861
16.8477	1038.82	82.7959
16.8482	1031.73	82.8057
16.8497	1023.51	82.81543
16.85	1019.816	82.8252
16.8519	1026.36	82.835
16.85178	1032.72	82.8447
16.85232	1037.72	82.8545
16.8546	1034.08	82.8643
16.8545	1025.93	82.874
16.8561	1023.7	82.8838
16.856	1018.39	82.8936
16.8576	1028.86	82.90332
16.8582	1037.91	82.9131
16.8583	1037.34	82.9229
16.8588	1028.52	82.9326
16.8607	1019.776	82.9424
16.8626	1022.267	82.9521
16.8624	1029.392	82.9619
16.8636	1034.82	82.97168
16.8637	1039.23	82.9814
16.86467	1032.4	82.9912
16.86553	1024.69	83.001
16.866	1020.13	83.0107
16.8671	1024.09	83.0205
16.8679	1032.76	83.0303
16.86937	1038.79	83.04
16.8696	1035.35	83.0498
16.871	1025.39	83.05957
16.8706	1020.57	83.0693
16.8715	1022.9	83.0791
16.8727	1029.817	83.0889
16.8741	1034.708	83.0986
16.8748	1036.22	83.1084
16.8757	1031.92	83.1182
16.8766	1020.75	83.12793
16.877	1021.96	83.1377
16.8787	1025.03	83.1475
16.8787	1034.77	83.1572
16.8797	1037.35	83.167
16.88018	1029.12	83.1768
16.88158	1026.75	83.1865
16.882	1021.747	83.1963
16.8827	1025.13	83.2061
16.8838	1029.81	83.21582
16.8844	1032.74	83.2256
16.8847	1038.57	83.2354
16.88632	1029.23	83.2451
16.8864	1021.34	83.2549
16.8879	1021.71	83.2646
16.8882	1026.43	83.2744
16.8891	1036	83.28418
16.8903	1034.35	83.2939
16.8904	1032.09	83.3037
16.891	1027.04	83.3135
16.8922	1020.81	83.3232
16.8929	1023.67	83.333
16.8928	1028.75	83.3428
16.8945	1035.89	83.3525
16.8958	1037.27	83.3623
16.8967	1028.108	83.37207
16.897	1019.14	83.3818
16.89735	1019.12	83.3916
16.8989	1028.56	83.4014
16.8994	1034.95	83.4111
16.8998	1038.14	83.4209
16.9005	1029.3	83.4307
16.9017	1024.39	83.44043
16.9033	1021.51	83.4502
16.9036	1022.82	83.46
16.9046	1034.15	83.4697
16.9049	1036.83	83.4795
16.9062	1034.92	83.4893
16.9065	1023.96	83.499
16.9085	1016.05	83.5088
16.90946	1023.5	83.5186
16.9096	1029.55	83.52832
16.9107	1038.08	83.5381
16.9113	1036.36	83.5479
16.9124	1027.66	83.5576
16.912	1021.72	83.5674
16.9135	1017.39	83.5771
16.9128	1026.8	83.5869
16.91556	1034.65	83.59668
16.9155	1037.54	83.6064
16.9169	1033.38	83.6162
16.9179	1020.32	83.626
16.9175	1019.16	83.6357
16.9198	1023.8	83.6455
16.9201	1031.35	83.6553
16.92087	1036.99	83.665
16.9216	1031.9	83.6748
16.9238	1027.65	83.68457
16.9235	1018.89	83.6943
16.9242	1020.48	83.7041
16.9257	1028.77	83.7139
16.9254	1036.32	83.7236
16.9273	1034.26	83.7334
16.9272	1027.08	83.7432
16.9271	1021.13	83.75293
16.9292	1020.75	83.7627
16.9298	1025.57	83.7725
16.9304	1031.139	83.7822
16.9316	1036.26	83.792
16.9319	1033.31	83.8018
16.9331	1025.61	83.8115
16.9333	1021.05	83.8213
16.9344	1020.67	83.8311
16.9361	1031.21	83.84082
16.9366	1037.31	83.8506
16.9369	1032.44	83.8604
16.9379	1028.56	83.8701
16.9392	1020.89	83.8799
16.9382	1022.98	83.8896
16.9403	1026.12	83.8994
16.9401	1030.083	83.90918
16.9423	1037.42	83.9189
16.9439	1031.57	83.9287
16.9436	1023.13	83.9385
16.9446	1018.97	83.9482
16.945	1021.04	83.958
16.9461	1032.22	83.9678
16.9467	1033.41	83.9775
16.9473	1034.29	83.9873
16.94899	1027.11	83.99707
16.94902	1019.4	84.0068
16.9498	1020.95	84.0166
16.9499	1024.23	84.0264
16.9523	1032.44	84.0361
16.9529	1036.413	84.0459
16.953	1030.77	84.0557
16.95421	1020.74	84.06543
16.956	1017.41	84.0752
16.9566	1024.99	84.085
16.9565	1032.76	84.0947
16.9579	1037.31	84.1045
16.9576	1032.62	84.1143
16.9595	1023.82	84.124
16.9597	1019.47	84.1338
16.9609	1019.44	84.1436
16.9617	1029	84.15332
16.9622	1036.34	84.1631
16.9637	1036.46	84.1729
16.9643	1027.14	84.1826
16.9647	1015.8	84.1924
16.966	1020.18	84.2021
16.9654	1026.01	84.2119
16.9667	1034.19	84.22168
16.968	1034.32	84.2314
16.9693	1028.32	84.2412
16.9701	1024.29	84.251
16.9706	1015.2	84.2607
16.9705	1023.4	84.2705
16.9716	1032.05	84.2803
16.9722	1034.27	84.29
16.9732	1035.4	84.2998
16.9744	1021.16	84.30957
16.975	1018.88	84.3193
16.9756	1021.96	84.3291
16.976	1026.7	84.3389
16.9784	1033.99	84.3486
16.9783	1032.14	84.3584
16.9799	1029.01	84.3682
16.9807	1021.09	84.37793
16.981	1019.29	84.3877
16.9815	1024.959	84.3975
16.9824	1032.12	84.4072
16.9827	1036.24	84.417
16.9834	1029.82	84.4268
16.9849	1024.37	84.4365
16.9865	1020.74	84.4463
16.987	1024.05	84.4561
16.9876	1028.2	84.46582
16.9876	1033.4	84.4756
16.9878	1034.65	84.4854
16.9907	1027.85	84.4951
16.9905	1020.4	84.5049
16.9923	1018.16	84.5146
16.9922	1024.79	84.5244
16.9932	1033.75	84.53418
16.9938	1033.43	84.5439
16.9949	1030.49	84.5537
16.9951	1022.59	84.5635
16.9959	1020.31	84.5732
16.9969	1022.93	84.583
16.998	1026.25	84.5928
16.9983	1035.13	84.6025
16.9987	1035.64	84.6123
16.9994	1026.84	84.62207
17.0016	1018.5	84.6318
17.0012	1016.83	84.6416
17.0026	1027.67	84.6514
17.0034	1032.53	84.6611
17.0049	1036.35	84.6709
17.0052	1029.59	84.6807
17.0067	1019.03	84.69043
17.0076	1019.11	84.7002
17.007	1021.57	84.71
17.0086	1029.66	84.7197
17.0088	1036.89	84.7295
17.0102	1031.24	84.7393
17.0115	1024.35	84.749
17.0123	1015.77	84.7588
17.012	1020.16	84.7686
17.0135	1028.27	84.77832
17.0143	1035.37	84.7881
17.0148	1032.44	84.7979
17.0152	1026.75	84.8076
17.0162	1019.89	84.8174
17.0172	1015.68	84.8271
17.0192	1025.16	84.8369
17.0184	1031.86	84.84668
17.02	1037.66	84.8564
17.0204	1030.23	84.8662
17.0212	1016.95	84.876
17.0231	1017.99	84.8857
17.0234	1023.39	84.8955
17.0244	1032.759	84.9053
17.0247	1034.94	84.915
17.02577	1029.98	84.9248
17.0263	1026.47	84.93457
17.027	1016.429	84.9443
17.0288	1019.32	84.9541
17.029	1026.25	84.9639
17.0297	1033.2	84.9736
17.0306	1036.14	84.9834
17.0311	1024.205	84.9932
17.0326	1021.85	85.00293
17.0328	1019.73	85.0127
17.0331	1023.2	85.0225
17.0347	1031.14	85.0322
17.03619	1032.92	85.042
17.0366	1030.79	85.0518
17.0376	1024.7	85.0615
17.0384	1019.24	85.0713
17.0395	1020.95	85.0811
17.0394	1028.614	85.09082
17.0397	1035.2	85.1006
17.0411	1032.137	85.1104
17.0418	1025.55	85.1201
17.041	1021.3	85.1299
17.0431	1018.81	85.1396
17.0453	1023.71	85.1494
17.0455	1030.98	85.15918
17.0464	1035.25	85.1689
17.0467	1031.84	85.1787
17.0476	1022.62	85.1885
17.0483	1016.31	85.1982
17.04945	1019.57	85.208
17.0503	1030.53	85.2178
17.0517	1034.1	85.2275
17.0517	1034.157	85.2373
17.0526	1024.4	85.24707
17.0525	1018.64	85.2568
17.0538	1018.79	85.2666
17.0553	1022.42	85.2764
17.0551	1033.07	85.2861
17.0567	1036.11	85.2959
17.0564	1029.43	85.3057
17.0592	1019.33	85.31543
17.06	1014.97	85.3252
17.0601	1024.73	85.335
17.0614	1030.72	85.3447
17.0622	1034.29	85.3545
17.0627	1030.92	85.3643
17.0633	1022.18	85.374
17.0648	1019.573	85.3838
17.0643	1018.75	85.3936
17.0647	1028.02	85.40332
17.067	1035.09	85.4131
17.0672	1033.6	85.4229
17.0681	1026.48	85.4326
17.0689	1016.35	85.4424
17.0694	1016.18	85.4521
17.071	1026.76	85.4619
17.0697	1030.96	85.47168
17.0731	1033.73	85.4814
17.0723	1027.394	85.4912
17.0741	1019.53	85.501
17.0738	1016.36	85.5107
17.0754	1021.65	85.5205
17.0758	1028.74	85.5303
17.0777	1035.99	85.54
17.0776	1032.22	85.5498
17.0793	1022.78	85.55957
17.0794	1018.62	85.5693
17.0806	1019.64	85.5791
17.0814	1028.72	85.5889
17.08181	1031.6	85.5986
17.0831	1031.07	85.6084
17.08428	1027.2	85.6182
17.0846	1017.85	85.62793
17.0858	1018.39	85.6377
17.0858	1021.38	85.6475
17.0866	1029.17	85.6572
17.0877	1035.072	85.667
17.0886	1026.25	85.6768
17.0894	1021.28	85.6865
17.0897	1018.86	85.6963
17.0916	1020.09	85.7061
17.0917	1027.09	85.71582
17.0925	1030.34	85.7256
17.0928	1033.37	85.7354
17.0946	1026.95	85.7451
17.0948	1018.75	85.7549
17.0947	1017.611	85.7646
17.0968	1023.471	85.7744
17.0982	1033.09	85.78418
17.0969	1032.743	85.7939
17.0984	1028.79	85.8037
17.0989	1020.4	85.8135
17.1008	1016.7	85.8232
17.1019	1020.53	85.833
17.1009	1027.11	85.8428
17.1022	1031.27	85.8525
17.1033	1032.207	85.8623
17.1045	1025.94	85.87207
17.1059	1015.5	85.8818
17.1065	1016.17	85.8916
17.1078	1024.03	85.9014
17.1076	1031.68	85.9111
17.1084	1033.26	85.9209
17.1105	1025.66	85.9307
17.1104	1018.47	85.94043
17.1101	1018.316	85.9502
17.1122	1017.76	85.96
17.11278	1031.01	85.9697
17.1136	1032.9	85.9795
17.1142	1029.71	85.9893
17.11659	1021.89	85.999
17.11668	1011.36	86.0088
17.1174	1018.65	86.0186
17.1177	1027.05	86.02832
17.1197	1033.1	86.0381
17.1192	1030.1	86.0479
17.1202	1023.31	86.0576
17.1222	1018.41	86.0674
17.1221	1015.9	86.0771
17.12273	1023.32	86.0869
17.1239	1031.15	86.09668
17.1238	1032.85	86.1064
17.125	1028.63	86.1162
17.1257	1017.347	86.126
17.1266	1012.976	86.1357
17.129	1020.71	86.1455
17.1279	1029.74	86.1553
17.1301	1032.15	86.165
17.1303	1027.77	86.1748
17.1305	1021.51	86.18457
17.13171	1016.416	86.1943
17.1318	1018.27	86.2041
17.1335	1023.79	86.2139
17.1335	1032.27	86.2236
17.13385	1032.1	86.2334
17.135	1023.64	86.2432
17.1375	1017.37	86.25293
17.1381	1017.07	86.2627
17.1378	1022.17	86.2725
17.139	1027.79	86.2822
17.1396	1028.44	86.292
17.14	1029.86	86.3018
17.1417	1021.7	86.3115
17.1414	1017.35	86.3213
17.1429	1016.39	86.3311
17.1439	1024.19	86.34082
17.1436	1034.48	86.3506
17.14554	1029.75	86.3604
17.1464	1024.87	86.3701
17.1475	1016.73	86.3799
17.1483	1015.68	86.3896
17.1491	1023.5	86.3994
17.1497	1026.05	86.40918
17.1506	1031.91	86.4189
17.15155	1028.38	86.4287
17.1514	1017.67	86.4385
17.1528	1013.095	86.4482
17.1538	1016.99	86.458
17.1531	1027.76	86.4678
17.1552	1031.85	86.4775
17.1573	1030.86	86.4873
17.1561	1022.56	86.49707
17.1576	1015.59	86.5068
17.158	1016.74	86.5166
17.1592	1020.959	86.5264
17.16	1030.14	86.5361
17.1613	1032.407	86.5459
17.1619	1026.81	86.5557
17.1616	1017.23	86.56543
17.1629	1014.99	86.5752
17.16403	1020.38	86.585
17.1649	1029.57	86.5947
17.1656	1034.29	86.6045
17.1667	1028.21	86.6143
17.1671	1018.73	86.624
17.1677	1016.4	86.6338
17.1683	1014.42	86.6436
17.1699	1024.73	86.65332
17.1708	1031.66	86.6631
17.1716	1032.47	86.6729
17.1716	1024.421	86.6826
17.1741	1011.46	86.6924
17.1735	1014.47	86.7021
17.1742	1021.75	86.7119
17.1747	1029.65	86.72168
17.1761	1030.72	86.7314
17.1768	1022.06	86.7412
17.1785	1021.175	86.751
17.1783	1013.21	86.7607
17.1796	1019.11	86.7705
17.1806	1026.44	86.7803
17.1811	1030.79	86.79
17.1819	1030.55	86.7998
17.1831	1017.78	86.80957
17.1835	1011.77	86.8193
17.18412	1016.78	86.8291
17.1852	1023.54	86.8389
17.1862	1029.37	86.8486
17.1867	1028.32	86.8584
17.1883	1023.12	86.8682
17.1888	1017.02	86.87793
17.1894	1013.46	86.8877
17.1898	1018.06	86.8975
17.1911	1027.74	86.9072
17.19249	1031.19	86.917
17.1925	1024.88	86.9268
17.1934	1017.931	86.9365
17.19372	1014.26	86.9463
17.1957	1015.13	86.9561
17.1958	1022.21	86.96582
17.1961	1026.18	86.9756
17.1977	1026.45	86.9854
17.1985	1021.78	86.9951
17.1986	1013.78	87.0049
17.2004	1011.59	87.0146
17.1995	1015.64	87.0244
17.2018	1027.01	87.03418
17.2021	1025.69	87.0439
17.2034	1024.36	87.0537
17.2047	1013.19	87.0635
17.2059	1008.907	87.0732
17.2049	1015.74	87.083
17.2069	1017.91	87.0928
17.20669	1024.97	87.1025
17.2079	1025.55	87.1123
17.2083	1011.66	87.12207
17.2097	997.784	87.1318
17.2167	-61.0454	87.1416
17.2177	-22.5767	87.1514
17.218	-30.8071	87.1611
17.2177	-28.0732	87.1709
17.2176	-33.4306	87.1807
17.2184	-54.1032	87.19043
17.21876	-44.0551	87.2002
17.2186	-50.7789	87.21
17.2191	-33.2145	87.2197
17.2199	-28.9711	87.2295
17.2202	-31.4479	87.2393
17.22	-44.1006	87.249
17.221	-53.4312	87.2588
17.2229	-50.5345	87.2686
17.22263	-39.1733	87.27832
17.2237	-31.1831	87.2881
17.2246	-30.9338	87.2979
17.2252	-39.77	87.3076
17.2262	-46.859	87.3174
17.2269	-52.4331	87.3271
17.2275	-41.5882	87.3369
17.2293	-34.6744	87.34668
17.2293	-28.3666	87.3564
17.2298	-35.2022	87.3662
17.2315	-50.2399	87.376
17.231	-51.4068	87.3857
17.2331	-47.4833	87.3955
17.2324	-36.7125	87.4053
17.234	-31.0604	87.415
17.2339	-37.0689	87.4248
17.236	-39.7277	87.43457
17.2365	-48.8265	87.4443
17.2374	-50.237	87.4541
17.2384	-42.1695	87.4639
17.2389	-35.2337	87.4736
17.2398	-28.5456	87.4834
17.2411	-38.5692	87.4932
17.24144	-47.9327	87.50293
17.2429	-49.1604	87.5127
17.243	-47.2877	87.5225
17.243	-35.7557	87.5322
17.2448	-34.0474	87.542
17.2448	-35.2981	87.5518
17.2468	-41.68082	87.5615
17.2467	-50.9441	87.5713
17.2483	-48.2709	87.5811
17.2485	-40.6503	87.59082
17.2487	-33.49773	87.6006
17.2507	-33.30444	87.6104
17.2516	-39.2841	87.6201
17.252	-49.6871	87.6299
17.2527	-46.9742	87.6396
17.253	-43.3707	87.6494
17.25399	-38.24	87.65918
17.2557	-31.0412	87.6689
17.256	-37.0512	87.6787
17.2562	-43.5033	87.6885
17.258	-50.4218	87.6982
17.2585	-51.0247	87.708
17.2591	-38.1388	87.7178
17.2607	-33.3017	87.7275
17.2613	-32.8664	87.7373
17.2613	-41.9751	87.74707
17.2627	-49.9665	87.7568
17.2626	-47.637	87.7666
17.2645	-45.5141	87.7764
17.2651	-32.45731	87.7861
17.2646	-31.3646	87.7959
17.2675	-38.1152	87.8057
17.26693	-45.482	87.81543
17.2681	-52.635	87.8252
17.2688	-46.7137	87.835
17.2692	-35.4026	87.8447
17.2706	-31.1757	87.8545
17.2709	-35.9427	87.8643
17.272	-45.23634	87.874
17.27269	-47.35556	87.8838
17.274	-48.7508	87.8936
17.2754	-39.6176	87.90332
17.2761	-32.3269	87.9131
17.276	-33.0764	87.9229
17.2771	-40.3727	87.9326
17.2776	-50.3076	87.9424
17.278	-50.1518	87.9521
17.279	-41.4778	87.9619
17.2801	-33.6285	87.97168
17.2815	-32.6602	87.9814
17.2812	-38.08437	87.9912
17.28241	-43.6291	88.001
17.2832	-49.4755	88.0107
17.2843	-44.6571	88.0205
17.284	-38.8211	88.0303
17.2852	-33.8583	88.04
17.2864	-33.0286	88.0498
17.2874	-45.2535	88.05957
17.2896	-48.2694	88.0693
17.2894	-47.795	88.0791
17.2894	-40.2892	88.0889
17.2894	-33.24818	88.0986
17.2923	-37.1635	88.1084
17.2918	-39.1122	88.1182
17.2934	-45.3356	88.12793
17.2945	-49.2667	88.1377
17.2955	-46.1131	88.1475
17.29508	-38.556	88.1572
17.2969	-30.2272	88.167
17.2974	-37.0897	88.1768
17.29883	-44.1319	88.1865
17.2994	-48.0549	88.1963
17.3001	-46.93853	88.2061
17.30098	-39.3804	88.21582
17.301	-35.8933	88.2256
17.3019	-34.838	88.2354
17.303	-38.0133	88.2451
17.3032	-46.54435	88.2549
17.3047	-48.1294	88.2646
17.3052	-44.80537	88.2744
17.3067	-36.2022	88.28418
17.3065	-30.6651	88.2939
17.3086	-36.0668	88.3037
17.308	-44.581	88.3135
17.3095	-47.95961	88.3232
17.3105	-45.59079	88.333
17.3101	-39.17395	88.3428
17.3122	-33.9803	88.3525
17.3123	-34.9591	88.3623
17.313	-40.0686	88.37207
17.3144	-50.03495	88.3818
17.3151	-50.1698	88.3916
17.3152	-40.4812	88.4014
17.3164	-33.3815	88.4111
17.3174	-30.4569	88.4209
17.3183	-40.8801	88.4307
17.3189	-49.0197	88.44043
17.3186	-48.0278	88.4502
17.3202	-47.9895	88.46
17.3222	-35.3871	88.4697
17.3225	-31.92952	88.4795
17.3231	-35.2055	88.4893
17.3246	-42.6933	88.499
17.3258	-53.1569	88.5088
17.3254	-48.176	88.5186
17.3268	-39.09293	88.52832
17.327	-32.8361	88.5381
17.32868	-33.2305	88.5479
17.3289	-43.007	88.5576
17.3287	-47.2625	88.5674
17.3313	-48.5396	88.5771
17.3312	-44.2729	88.5869
17.3322	-33.73761	88.59668
17.3329	-31.7936	88.6064
17.3342	-36.0034	88.6162
17.33518	-47.5471	88.626
17.3353	-50.1416	88.6357
17.3358	-45.1767	88.6455
17.3373	-37.0979	88.6553
17.3387	-33.81004	88.665
17.3387	-35.4936	88.6748
17.3396	-42.6493	88.68457
17.3401	-47.0774	88.6943
17.3409	-48.8263	88.7041
17.34181	-43.36837	88.7139
17.3424	-34.5574	88.7236
17.3432	-32.6589	88.7334
17.3452	-39.9312	88.7432
17.3453	-45.6768	88.75293
17.3455	-50.1375	88.7627
17.3466	-43.2089	88.7725
17.3472	-35.7481	88.7822
17.3486	-36.3495	88.792
17.349	-37.2993	88.8018
17.3493	-41.508	88.8115
17.3504	-48.1789	88.8213
17.3511	-47.62664	88.8311
17.3514	-42.799	88.84082
17.353	-31.68051	88.8506
17.3548	-33.8635	88.8604
17.3548	-41.9219	88.8701
17.355	-47.7348	88.8799
17.3556	-49.0816	88.8896
17.3566	-41.078	88.8994
17.3583	-38.6084	88.90918
17.3584	-34.7399	88.9189
17.3596	-34.5491	88.9287
17.3604	-45.0115	88.9385
17.3617	-49.7442	88.9482
17.3614	-47.8675	88.958
17.3641	-38.2662	88.9678
17.3644	-31.6164	88.9775
17.36483	-35.1893	88.9873
17.3648	-42.6899	88.99707
17.3666	-49.7057	89.0068
17.3674	-48.6978	89.0166
17.3686	-43.7725	89.0264
17.3699	-33.48917	89.0361
17.3705	-32.3147	89.0459
17.3704	-38.1522	89.0557
17.3711	-46.314	89.06543
17.37302	-52.44804	89.0752
17.37215	-44.3333	89.085
17.3732	-37.8979	89.0947
17.3747	-30.5233	89.1045
17.3754	-38.20491	89.1143
17.3755	-47.1235	89.124
17.3775	-48.476	89.1338
17.3773	-48.8783	89.1436
17.3784	-40.0521	89.15332
17.3794	-32.1486	89.1631
17.3798	-34.6142	89.1729
17.381	-39.028	89.1826
17.3812	-51.7271	89.1924
17.3826	-50.0969	89.2021
17.38341	-42.784	89.2119
17.3847	-35.3178	89.22168
17.386	-31.36763	89.2314
17.3866	-42.785	89.2412
17.3864	-45.4829	89.251
17.3867	-47.79623	89.2607
17.3882	-47.0279	89.2705
17.3896	-39.0783	89.2803
17.3909	-34.9988	89.29
17.3901	-34.8061	89.2998
17.3923	-44.3213	89.30957
17.3924	-49.9994	89.3193
17.3935	-47.012	89.3291
17.394	-39.41396	89.3389
17.3953	-35.3493	89.3486
17.3958	-36.9978	89.3584
17.3966	-40.2841	89.3682
17.3967	-43.8425	89.37793
17.398	-48.7268	89.3877
17.3983	-47.4726	89.3975
17.3995	-38.3422	89.4072
17.4011	-31.725	89.417
17.4008	-38.1217	89.4268
17.4025	-43.191	89.4365
17.40177	-50.7781	89.4463
17.4032	-46.83017	89.4561
17.4053	-39.1289	89.46582
17.4047	-37.2235	89.4756
17.4054	-33.1617	89.4854
17.4064	-38.5273	89.4951
17.408	-44.3745	89.5049
17.4078	-48.813	89.5146
17.4096	-48.8603	89.5244
17.4106	-33.4887	89.53418
17.4117	-32.3401	89.5439
17.4119	-37.0998	89.5537
17.4132	-47.6063	89.5635
17.4128	-51.2673	89.5732
17.4144	-45.2758	89.583
17.4154	-39.9229	89.5928
17.416	-33.1	89.6025
17.417	-34.6327	89.6123
17.4183	-41.0663	89.62207
17.4179	-47.60022	89.6318
17.418	-51.0258	89.6416
17.41971	-43.4175	89.6514
17.4214	-31.2118	89.6611
17.4209	-31.9837	89.6709
17.4236	-39.8423	89.6807
17.4226	-48.8568	89.69043
17.4244	-47.9394	89.7002
17.4243	-45.4869	89.71
17.4249	-37.4648	89.7197
17.427	-33.2437	89.7295
17.428	-35.7313	89.7393
17.4286	-44.3507	89.749
17.4284	-52.0044	89.7588
17.4293	-47.891	89.7686
17.4312	-39.8361	89.77832
17.4308	-31.5794	89.7881
17.4329	-34.59668	89.7979
17.4331	-44.5595	89.8076
17.4337	-47.2519	89.8174
17.4348	-47.3903	89.8271
17.4365	-41.7181	89.8369
17.4364	-37.4663	89.84668
17.4369	-34.1216	89.8564
17.43861	-36.642	89.8662
17.438	-49.33712	89.876
17.43852	-50.1355	89.8857
17.4404	-46.2223	89.8955
17.4412	-37.0039	89.9053
17.4429	-31.5642	89.915
17.4429	-39.5691	89.9248
17.4436	-43.4527	89.93457
17.4436	-46.5274	89.9443
17.4449	-49.1184	89.9541
17.4465	-41.82	89.9639
17.4466	-37.6662	89.9736
17.4483	-33.3464	89.9834
17.449	-42.2975	89.9932
17.4487	-48.71714	90.00293
17.4494	-49.6931	90.0127
17.4515	-43.6972	90.0225
17.4512	-35.9883	90.0322
17.4527	-35.2793	90.042
17.4532	-38.3111	90.0518
17.4551	-43.435	90.0615
17.4555	-48.0131	90.0713
17.4558	-49.9464	90.0811
17.4573	-42.5187	90.09082
17.4588	-34.5494	90.1006
17.4574	-33.5185	90.1104
17.459	-39.68	90.1201
17.46	-49.6003	90.1299
17.4611	-49.3903	90.1396
17.46048	-42.1413	90.1494
17.46273	-38.1142	90.15918
17.4632	-32.1258	90.1689
17.4643	-37.584	90.1787
17.4655	-45.5208	90.1885
17.4654	-48.98	90.1982
17.46558	-50.3703	90.208
17.4681	-37.0811	90.2178
17.4669	-32.852	90.2275
17.4684	-35.8716	90.2373
17.4688	-41.3205	90.24707
17.4689	-52.3027	90.2568
17.471	-47.27108	90.2666
17.4715	-42.5689	90.2764
17.4726	-34.9683	90.2861
17.474	-32.4677	90.2959
17.4744	-40.40173	90.3057
17.4759	-46.2588	90.31543
17.4772	-52.3471	90.3252
17.4769	-45.9591	90.335
17.4782	-33.43861	90.3447
17.4783	-33.2453	90.3545
17.4797	-37.3175	90.3643
17.4804	-46.4429	90.374
17.4823	-49.7597	90.3838
17.4807	-45.9041	90.3936
17.4829	-40.1699	90.40332
17.4819	-34.5008	90.4131
17.48427	-32.3717	90.4229