File: data/processed_data_files/tensile/0.254_solid_dimension_typei_4545_r(3).dat
MTS793|BTW|ENU|1|2|.|/|:|1|0|0|A

Data Header:			0.254_solid_dimension_typei_4545_r0			Time:	20.0193	s	4/14/2019 4:49:37 AM
Data Acquisition:	Timed
Station Name:	ft40.cfg
Test File Name:	monotonic_0.2540_typei_solid_4545_dimension.tst
Displacement	Force	Running Time
mm	N	s
9.95668	-146.479	0.0224609
9.95746	-129.012	0.0419922
9.95801	-128.453	0.0615234
9.95867	-140.818	0.0810547
9.95983	-135.5842	0.100586
9.96061	-123.305	0.120117
9.96263	-137.9037	0.139648
9.96418	-133.3367	0.15918
9.965518	-120.896	0.178711
9.96795	-132.996	0.198242
9.96908	-135.596	0.217773
9.97132	-117.958	0.237305
9.973134	-126.401	0.256836
9.97367	-131.752	0.276367
9.97569	-117.912	0.295898
9.97771	-120.729	0.31543
9.97775	-129.106	0.334961
9.98011	-117.915	0.354492
9.981246	-116.537	0.374023
9.983448	-127.809	0.393555
9.98502	-117.501	0.413086
9.98777	-111.138	0.432617
9.98768	-121.946	0.452148
9.99012	-120.211	0.47168
9.99132	-106.037	0.491211
9.994	-114.94	0.510742
9.99537	-116.784	0.530273
9.99646	-107.735	0.549805
9.99806	-107.359	0.569336
9.999054	-117.677	0.588867
10.00182	-102.425	0.608398
10.0038	-105.417	0.62793
10.0043	-114.37	0.647461
10.007	-106.505	0.666992
10.0084	-97.1323	0.686523
10.0092	-112.485	0.706055
10.0115	-102.757	0.725586
10.0118	-94.33812	0.745117
10.0142	-104.156	0.764648
10.0152	-104.987	0.78418
10.0176	-90.9507	0.803711
10.0188	-100.921	0.823242
10.0198	-103.164	0.842773
10.0223	-86.0484	0.862305
10.0237	-95.0059	0.881836
10.0253	-104.628	0.901367
10.02763	-88.3857	0.920898
10.0287	-88.1262	0.94043
10.0309	-99.1357	0.959961
10.0324	-85.6245	0.979492
10.0338	-84.2184	0.999023
10.0355	-94.467	1.01855
10.03636	-86.9526	1.03809
10.0387	-78.0263	1.05762
10.03954	-90.30217	1.07715
10.0418	-83.9065	1.09668
10.0437	-76.4905	1.11621
10.04533	-83.4579	1.13574
10.0471	-88.0482	1.15527
10.04768	-70.8192	1.1748
10.04967	-76.58139	1.19434
10.0517	-83.0218	1.21387
10.0526	-74.9674	1.2334
10.0555	-70.3323	1.25293
10.0567	-83.0863	1.27246
10.0575	-68.8224	1.29199
10.0595	-65.2258	1.31152
10.0618	-77.58268	1.33105
10.0641	-73.8901	1.35059
10.065	-60.0985	1.37012
10.0659	-73.9928	1.38965
10.06735	-70.73037	1.40918
10.0697	-58.26545	1.42871
10.0711	-67.9255	1.44824
10.07256	-71.0852	1.46777
10.0737	-55.8161	1.4873
10.0765	-62.4758	1.50684
10.0776	-69.4585	1.52637
10.0796	-52.9404	1.5459
10.08144	-54.4594	1.56543
10.0827	-66.1985	1.58496
10.0836	-54.1626	1.60449
10.0853	-48.3338	1.62402
10.08764	-61.8503	1.64355
10.08986	-53.769	1.66309
10.0914	-46.7954	1.68262
10.0929	-55.7467	1.70215
10.0945	-53.49461	1.72168
10.0953	-40.5772	1.74121
10.0976	-51.7002	1.76074
10.0986	-51.8011	1.78027
10.1008	-40.7546	1.7998
10.1011	-41.8144	1.81934
10.1039	-53.7339	1.83887
10.1053	-37.3779	1.8584
10.1065	-37.864	1.87793
10.10882	-47.6364	1.89746
10.1108	-40.782	1.91699
10.1107	-31.1192	1.93652
10.1148	-44.6374	1.95605
10.1148	-36.5236	1.97559
10.1176	-26.4201	1.99512
10.1189	-39.8708	2.01465
10.1197	-39.2534	2.03418
10.1211	-22.9919	2.05371
10.12331	-34.1776	2.07324
10.1249	-38.4332	2.09277
10.1266	-23.1935	2.1123
10.1279	-27.7345	2.13184
10.1291	-34.8026	2.15137
10.1307	-19.881	2.1709
10.1328	-20.9483	2.19043
10.1347	-32.2217	2.20996
10.136	-18.92461	2.22949
10.138	-16.28447	2.24902
10.14	-28.0758	2.26855
10.142	-19.5186	2.28809
10.1429	-10.352	2.30762
10.1441	-22.8342	2.32715
10.1463	-17.7886	2.34668
10.1474	-8.78991	2.36621
10.1494	-15.6754	2.38574
10.1505	-18.95421	2.40527
10.1528	-4.39142	2.4248
10.1542	-9.94953	2.44434
10.1557	-15.2391	2.46387
10.1587	-4.006104	2.4834
10.1592	-0.382469	2.50293
10.1598	-15.605	2.52246
10.1637	-3.35083	2.54199
10.164	1.79865	2.56152
10.16555	-7.7993	2.58105
10.1671	-5.82424	2.60059
10.1688	6.6611	2.62012
10.1706	-6.17763	2.63965
10.1726	-2.34791	2.65918
10.1732	11.8285	2.67871
10.1757	1.119819	2.69824
10.17657	-4.11566	2.71777
10.17802	14.033	2.7373
10.1795	6.459548	2.75684
10.1826	-1.45854	2.77637
10.1828	15.2068	2.7959
10.18521	14.6211	2.81543
10.1871	1.45848	2.83496
10.1883	15.4897	2.85449
10.1906	19.817	2.87402
10.1917	5.60828	2.89355
10.1927	17.2067	2.91309
10.1948	24.0549	2.93262
10.1961	11.5957	2.95215
10.1981	14.2606	2.97168
10.20025	29.9726	2.99121
10.2015	19.4229	3.01074
10.2034	18.6985	3.03027
10.2042	27.9732	3.0498
10.2067	27.1013	3.06934
10.2077	17.9806	3.08887
10.2089	32.7993	3.1084
10.2104	32.8032	3.12793
10.2124	22.1526	3.14746
10.2146	28.8933	3.16699
10.2163	39.97121	3.18652
10.2166	23.3224	3.20605
10.2201	32.2701	3.22559
10.2214	42.06686	3.24512
10.2229	32.0655	3.26465
10.22381	30.3046	3.28418
10.2253	46.53339	3.30371
10.2272	35.0429	3.32324
10.2289	32.48975	3.34277
10.2307	50.7271	3.3623
10.23267	43.17836	3.38184
10.2341	34.4737	3.40137
10.2353	50.71492	3.4209
10.2376	49.6746	3.44043
10.2381	36.7922	3.45996
10.2394	50.2267	3.47949
10.2427	53.9579	3.49902
10.244	42.1926	3.51855
10.2454	51.47477	3.53809
10.24734	60.1846	3.55762
10.2488	46.063	3.57715
10.2495	52.4548	3.59668
10.2512	63.4503	3.61621
10.253	54.1888	3.63574
10.2544	48.4743	3.65527
10.2566	66.5079	3.6748
10.2586	60.93462	3.69434
10.2601	55.2333	3.71387
10.2623	63.1143	3.7334
10.2629	67.23481	3.75293
10.2645	56.3584	3.77246
10.2659	68.0635	3.79199
10.2684	74.2959	3.81152
10.2696	61.86084	3.83105
10.2706	65.5327	3.85059
10.2735	79.7039	3.87012
10.2745	64.9655	3.88965
10.2765	68.2219	3.90918
10.2779	82.144	3.92871
10.28019	73.08	3.94824
10.28068	69.352	3.96777
10.2816	86.2091	3.9873
10.28383	78.6577	4.00684
10.2865	70.8317	4.02637
10.2878	86.2416	4.0459
10.2897	85.403	4.06543
10.2917	72.4752	4.08496
10.2914	87.493	4.10449
10.2945	90.3286	4.12402
10.2957	77.09333	4.14355
10.29673	86.7254	4.16309
10.29849	94.622	4.18262
10.3007	85.5609	4.20215
10.30244	87.1408	4.22168
10.3033	101.326	4.24121
10.3057	90.1009	4.26074
10.3068	88.7469	4.28027
10.309	101.293	4.2998
10.3093	99.5334	4.31934
10.3118	86.6287	4.33887
10.3132	103.703	4.3584
10.3153	104.914	4.37793
10.3171	94.2345	4.39746
10.3195	101.244	4.41699
10.3206	111.4027	4.43652
10.3221	94.9372	4.45605
10.3228	104.648	4.47559
10.3246	115.368	4.49512
10.3263	102.204	4.51465
10.3275	102.096	4.53418
10.33	120.422	4.55371
10.3316	108.16	4.57324
10.3328	105.004	4.59277
10.3346	120.902	4.6123
10.3365	114.74	4.63184
10.337	104.895	4.65137
10.33933	121.998	4.6709
10.3412	122.23	4.69043
10.3443	110.182	4.70996
10.3449	124.069	4.72949
10.3468	127.8117	4.74902
10.3472	111.989	4.76855
10.3495	122.402	4.78809
10.3521	132.933	4.80762
10.3525	119.795	4.82715
10.3541	123.993	4.84668
10.3563	133.4388	4.86621
10.3575	127.269	4.88574
10.3594	122.859	4.90527
10.3607	139.568	4.9248
10.3625	131.29	4.94434
10.3635	125.414	4.96387
10.3645	138.7773	4.9834
10.3675	142.694	5.00293
10.3684	127.493	5.02246
10.3709	140.049	5.04199
10.3718	146.471	5.06152
10.3737	135.973	5.08105
10.3756	138.213	5.10059
10.3771	152.502	5.12012
10.3787	136.585	5.13965
10.3811	139.248	5.15918
10.382	156.623	5.17871
10.384	145.611	5.19824
10.3849	137.756	5.21777
10.387	157.047	5.2373
10.3882	151.143	5.25684
10.3897	142.748	5.27637
10.3917	157.18	5.2959
10.393	157.0388	5.31543
10.3941	145.75	5.33496
10.3961	160.031	5.35449
10.3987	164.2379	5.37402
10.3998	149.3121	5.39355
10.4011	158.93	5.41309
10.4027	168.067	5.43262
10.4048	157.082	5.45215
10.40667	157.058	5.47168
10.4083	172.166	5.49121
10.40958	162.4577	5.51074
10.4111	160.583	5.53027
10.4123	171.274	5.5498
10.4142	171.379	5.56934
10.41718	159.81	5.58887
10.4173	178.106	5.6084
10.4184	175.939	5.62793
10.4218	166.093	5.64746
10.422	173.4668	5.66699
10.4247	185.3573	5.68652
10.4259	166.869	5.70605
10.4271	173.713	5.72559
10.4282	186.815	5.74512
10.4305	175.495	5.76465
10.4331	174.055	5.78418
10.4338	192.265	5.80371
10.4361	180.095	5.82324
10.437	175.776	5.84277
10.439	194.051	5.8623
10.4402	190.518	5.88184
10.4422	176.701	5.90137
10.444	194.645	5.9209
10.4457	194.847	5.94043
10.4469	182.672	5.95996
10.4479	194.777	5.97949
10.4499	199.284	5.99902
10.4511	186.239	6.01855
10.4532	195.0352	6.03809
10.4563	206.042	6.05762
10.4564	190.089	6.07715
10.4582	195.01	6.09668
10.4595	208.008	6.11621
10.4614	201.276	6.13574
10.4637	193.692	6.15527
10.4643	209.704	6.1748
10.4659	205.815	6.19434
10.4676	197.886	6.21387
10.4696	209.519	6.2334
10.4717	214.776	6.25293
10.4735	198.564	6.27246
10.4751	214.447	6.29199
10.4758	219.758	6.31152
10.4779	204.675	6.33105
10.4797	209.923	6.35059
10.4809	226.649	6.37012
10.4833	211.433	6.38965
10.484	212.097	6.40918
10.4866	226.8701	6.42871
10.4877	219.156	6.44824
10.4898	211.0112	6.46777
10.4917	231.518	6.4873
10.4921	222.119	6.50684
10.4945	215.58	6.52637
10.4952	233.121	6.5459
10.4979	231.514	6.56543
10.4986	215.0663	6.58496
10.5001	228.885	6.60449
10.5033	236.7162	6.62402
10.5035	221.545	6.64355
10.506	230.857	6.66309
10.5079	238.316	6.68262
10.5094	228.411	6.70215
10.5105	231.037	6.72168
10.5115	246.776	6.74121
10.5135	233.6804	6.76074
10.5153	231.882	6.78027
10.5174	246.263	6.7998
10.51838	244.903	6.81934
10.5204	232.888	6.83887
10.5213	248.363	6.8584
10.5238	249.234	6.87793
10.525	238.698	6.89746
10.5262	247.6425	6.91699
10.5286	256.05	6.93652
10.5299	240.23	6.95605
10.5305	248.929	6.97559
10.5338	260.49	6.99512
10.535	247.438	7.01465
10.5367	246.254	7.03418
10.53826	264.507	7.05371
10.54	253.775	7.07324
10.5418	249.177	7.09277
10.5423	265.259	7.1123
10.545	260.753	7.13184
10.54601	250.009	7.15137
10.54817	267.795	7.1709
10.54947	266.927	7.19043
10.5527	253.724	7.20996
10.5526	267.81	7.22949
10.5553	271.701	7.24902
10.5563	257.036	7.26855
10.5582	265.229	7.28809
10.5586	276.841	7.30762
10.561	264.882	7.32715
10.562	268.471	7.34668
10.56356	277.979	7.36621
10.5663	271.694	7.38574
10.5668	267.315	7.40527
10.5691	284.012	7.4248
10.571	277.976	7.44434
10.5724	269.585	7.46387
10.5743	282.357	7.4834
10.5743	287.727	7.50293
10.5781	271.019	7.52246
10.5804	283.924	7.54199
10.5799	292.455	7.56152
10.5823	278.278	7.58105
10.5832	282.349	7.60059
10.5864	296.317	7.62012
10.5876	280.405	7.63965
10.58898	284.916	7.65918
10.5906	300.158	7.67871
10.59152	290.504	7.69824
10.5939	281.737	7.71777
10.5946	301.674	7.7373
10.5971	295.448	7.75684
10.599	287.068	7.77637
10.6001	301.094	7.7959
10.6012	302.718	7.81543
10.6031	289.767	7.83496
10.6044	303.437	7.85449
10.6069	306.271	7.87402
10.6087	292.607	7.89355
10.6095	302.413	7.91309
10.6109	311.75	7.93262
10.6129	300.514	7.95215
10.6147	300.207	7.97168
10.6166	317.121	7.99121
10.6181	305.946	8.01074
10.6196	304.736	8.03027
10.6211	314.757	8.0498
10.6231	313.332	8.06934
10.6239	303.173	8.08887
10.6259	320.204	8.1084
10.62882	320.29	8.12793
10.6292	307.551	8.14746
10.62977	316.153	8.16699
10.6325	328.57	8.18652
10.6347	310.737	8.20605
10.6357	319.066	8.22559
10.6376	330.404	8.24512
10.6392	320.487	8.26465
10.6405	316.704	8.28418
10.642	335.512	8.30371
10.6432	323.086	8.32324
10.645	318.282	8.34277
10.6466	337.25	8.3623
10.6483	333.098	8.38184
10.6508	318.464	8.40137
10.6519	338.7153	8.4209
10.6537	337.65	8.44043
10.6555	326.313	8.45996
10.6565	337.663	8.47949
10.6582	342.408	8.49902
10.6604	328.787	8.51855
10.6616	337.2403	8.53809
10.6629	348.8988	8.55762
10.6643	333.848	8.57715
10.6663	337.505	8.59668
10.6683	350.269	8.61621
10.6702	344.602	8.63574
10.6706	334.266	8.65527
10.6723	352.166	8.6748
10.6745	349.4935	8.69434
10.67698	340.181	8.71387
10.6774	349.024	8.7334
10.6791	356.764	8.75293
10.6814	340.728	8.77246
10.6833	353.11	8.79199
10.6834	365.263	8.81152
10.6861	349.64	8.83105
10.6873	348.329	8.85059
10.6898	369.512	8.87012
10.69053	353.959	8.88965
10.6916	350.692	8.90918
10.6939	368.816	8.92871
10.6953	362.292	8.94824
10.6971	350.113	8.96777
10.6984	370.267	8.9873
10.7005	367.932	9.00684
10.702	353.414	9.02637
10.7038	370.175	9.0459
10.7055	376.482	9.06543
10.7075	356.807	9.08496
10.7101	368.161	9.10449
10.7107	381.438	9.12402
10.7122	365.022	9.14355
10.7129	369.32	9.16309
10.71544	383.952	9.18262
10.7162	371.476	9.20215
10.7182	369.362	9.22168
10.7194	388.452	9.24121
10.7214	378.317	9.26074
10.7225	369.845	9.28027
10.7259	385.607	9.2998
10.7267	388.489	9.31934
10.7289	370.236	9.33887
10.7314	386.539	9.3584
10.731	394.313	9.37793
10.733	379.38	9.39746
10.7353	384.773	9.41699
10.7368	398.296	9.43652
10.7373	381.423	9.45605
10.741	384.812	9.47559
10.7412	404.842	9.49512
10.7432	390.863	9.51465
10.7444	382.853	9.53418
10.7456	406.1	9.55371
10.7485	397.368	9.57324
10.7498	387.054	9.59277
10.7512	405.96	9.6123
10.7527	404.444	9.63184
10.7547	387.527	9.65137
10.7559	405.1781	9.6709
10.7579	409.636	9.69043
10.7597	393.157	9.70996
10.7612	404.496	9.72949
10.7618	417.143	9.74902
10.7639	398.3685	9.76855
10.7664	402.294	9.78809
10.7678	418.804	9.80762
10.76905	407.689	9.82715
10.76956	405.421	9.84668
10.7722	419.178	9.86621
10.774	413.674	9.88574
10.7766	403.73	9.90527
10.7778	423.176	9.9248
10.7781	422.027	9.94434
10.7799	407.899	9.96387
10.7822	419.3093	9.9834
10.7837	429.866	10.00293
10.7854	410.781	10.0225
10.7858	418.783	10.042
10.7885	433.36	10.0615
10.7902	418.306	10.0811
10.7917	417.6976	10.1006
10.7941	439.056	10.1201
10.7946	422.627	10.1396
10.7962	419.773	10.15918
10.79883	440.574	10.1787
10.8002	434.706	10.1982
10.80048	417.228	10.2178
10.8034	440.18	10.2373
10.8053	438.699	10.2568
10.8066	424.387	10.2764
10.8078	438.997	10.2959
10.8102	444.589	10.31543
10.8108	426.461	10.335
10.8131	437.593	10.3545
10.81391	450.545	10.374
10.8167	432.007	10.3936
10.8175	436.399	10.4131
10.8202	455.015	10.4326
10.8211	443.35	10.4521
10.8218	436.217	10.47168
10.824	455.618	10.4912
10.82521	449.172	10.5107
10.8277	439.302	10.5303
10.8298	455.943	10.5498
10.83128	457.194	10.5693
10.8329	439.976	10.5889
10.8345	458.118	10.6084
10.8358	463.767	10.62793
10.837	446.793	10.6475
10.8386	452.069	10.667
10.8411	471.043	10.6865
10.8431	451.344	10.7061
10.8434	454.572	10.7256
10.8461	472.418	10.7451
10.8466	462.265	10.7646
10.84903	452.4343	10.78418
10.851	475.605	10.8037
10.8521	465.199	10.8232
10.8536	455.272	10.8428
10.8544	475.354	10.8623
10.8566	475.227	10.8818
10.85818	455.503	10.9014
10.86	475.261	10.9209
10.8623	480.846	10.94043
10.8639	462.862	10.96
10.8647	473.216	10.9795
10.867	485.875	10.999
10.86832	467.7695	11.0186
10.8701	470.47	11.0381
10.8719	488.864	11.0576
10.8738	475.126	11.0771
10.8751	471.278	11.09668
10.8769	489.7106	11.1162
10.8779	485.916	11.1357
10.8797	470.698	11.1553
10.8811	490.3136	11.1748
10.8827	491.999	11.1943
10.8854	476.001	11.2139
10.8873	488.752	11.2334
10.8886	498.2467	11.25293
10.8896	478.176	11.2725
10.8913	489.9	11.292
10.89238	504.771	11.3115
10.8947	487.632	11.3311
10.89546	485.185	11.3506
10.8971	508.828	11.3701
10.8993	491.909	11.3896
10.9005	486.641	11.40918
10.9022	508.411	11.4287
10.9042	501.358	11.4482
10.9064	485.459	11.4678
10.9069	508.9411	11.4873
10.9096	507.613	11.5068
10.9103	489.588	11.5264
10.9117	507.545	11.5459
10.9128	515.887	11.56543
10.91524	493.662	11.585
10.9175	503.449	11.6045
10.9191	518.665	11.624
10.9197	502.878	11.6436
10.9223	505.419	11.6631
10.9235	522.245	11.6826
10.9256	508.418	11.7021
10.92691	502.916	11.72168
10.9282	524.268	11.7412
10.9294	517.626	11.7607
10.9313	506.667	11.7803
10.9335	522.9812	11.7998
10.9355	527.192	11.8193
10.936	507.849	11.8389
10.9388	522.534	11.8584
10.9402	529.646	11.87793
10.9421	514.813	11.8975
10.94278	520.99	11.917
10.945	538.034	11.9365
10.9461	518.591	11.9561
10.9484	521.128	11.9756
10.9502	541.507	11.9951
10.9508	528.753	12.0146
10.9514	516.9693	12.03418
10.9541	542.647	12.0537
10.9561	532.696	12.0732
10.95712	521.852	12.0928
10.96026	540.482	12.1123
10.9608	542.856	12.1318
10.9632	522.53	12.1514
10.9642	541.738	12.1709
10.9671	547.488	12.19043
10.9671	527.327	12.21
10.9687	540.378	12.2295
10.9712	552.489	12.249
10.9724	534.215	12.2686
10.974	536.329	12.2881
10.9755	555.304	12.3076
10.97662	541.582	12.3271
10.9794	538.851	12.34668
10.9804	555.576	12.3662
10.98238	550.938	12.3857
10.984	537.184	12.4053
10.986	558.575	12.4248
10.9867	557.278	12.4443
10.9881	541.859	12.4639
10.9907	553.696	12.4834
10.9912	565.965	12.50293
10.9932	546.058	12.5225
10.995	553.341	12.542
10.997	569.514	12.5615
10.9989	552.93	12.5811
11.0005	551.876	12.6006
11.0008	574.266	12.6201
11.0041	557.2179	12.6396
11.00633	552.09	12.65918
11.006	574.761	12.6787
11.0082	569.35	12.6982
11.0103	551.491	12.7178
11.0114	574.131	12.7373
11.0133	574.201	12.7568
11.0151	557.677	12.7764
11.0171	572.351	12.7959
11.0184	579.305	12.81543
11.0201	561.317	12.835
11.0215	571.27	12.8545
11.0229	584.057	12.874
11.0244	565.656	12.8936
11.0262	570.213	12.9131
11.0274	587.985	12.9326
11.0289	574.598	12.9521
11.0312	567.611	12.97168
11.0322	586.86	12.9912
11.0347	583.274	13.0107
11.0365	572.0636	13.0303
11.0373	587.805	13.0498
11.03982	592.224	13.0693
11.0409	572.139	13.0889
11.0424	589.665	13.1084
11.0438	597.5603	13.12793
11.0443	578.131	13.1475
11.0472	583.204	13.167
11.0489	603.767	13.1865
11.0502	583.882	13.2061
11.0529	585.484	13.2256
11.0532	604.543	13.2451
11.0558	593.668	13.2646
11.0564	584.454	13.28418
11.0585	607.7301	13.3037
11.06	598.091	13.3232
11.0623	587.481	13.3428
11.0633	607.419	13.3623
11.0652	606.566	13.3818
11.0666	586.4472	13.4014
11.0686	604.83	13.4209
11.0696	611.41	13.44043
11.072	593.527	13.46
11.0725	604.672	13.4795
11.07454	616.406	13.499
11.0767	599.232	13.5186
11.0781	601.939	13.5381
11.07947	621.7771	13.5576
11.08078	605.003	13.5771
11.0841	602.423	13.59668
11.0844	620.502	13.6162
11.0869	614.86	13.6357
11.0871	603.165	13.6553
11.0883	622.829	13.6748
11.091	622.596	13.6943
11.0936	608.215	13.7139
11.0954	619.8877	13.7334
11.0959	630.677	13.75293
11.09727	609.702	13.7725
11.1004	619.301	13.792
11.1	636.2049	13.8115
11.1026	617.381	13.8311
11.1042	615.148	13.8506
11.105	639.278	13.8701
11.1082	623.496	13.8896
11.1081	616.857	13.90918
11.1117	637.318	13.9287
11.1123	632.2	13.9482
11.115	617.173	13.9678
11.11564	639.8	13.9873
11.117	636.447	14.0068
11.1189	620.1369	14.0264
11.1203	637.613	14.0459
11.1209	645.92	14.06543
11.1236	624.411	14.085
11.1245	635.935	14.1045
11.12625	648.799	14.124
11.1285	631.471	14.1436
11.1303	636.255	14.1631
11.1316	650.01	14.1826
11.1333	638.186	14.2021
11.1355	634.391	14.22168
11.1372	654.333	14.2412
11.1386	646.523	14.2607
11.1405	635.451	14.2803
11.1407	652.483	14.2998
11.1435	656.276	14.3193
11.1452	635.6673	14.3389
11.1453	650.553	14.3584
11.147	659.573	14.37793
11.1494	644.048	14.3975
11.1508	648.206	14.417
11.1541	666.503	14.4365
11.1549	646.794	14.4561
11.1571	650.131	14.4756
11.15733	670.203	14.4951
11.1595	656.957	14.5146
11.1615	645.4455	14.53418
11.1633	671.229	14.5537
11.16373	662.037	14.5732
11.1664	649.688	14.5928
11.1672	668.204	14.6123
11.1692	668.898	14.6318
11.1706	649.645	14.6514
11.1722	669.721	14.6709
11.17375	675.165	14.69043
11.1752	654.169	14.71
11.17668	666.692	14.7295
11.1796	680.843	14.749
11.1803	663.685	14.7686
11.1825	663.225	14.7881
11.18433	684.334	14.8076
11.1855	668.227	14.8271
11.1868	666.821	14.84668
11.1881	683.174	14.8662
11.1909	677.881	14.8857
11.1924	663.723	14.9053
11.1946	686.396	14.9248
11.1955	686.201	14.9443
11.1965	667.391	14.9639
11.1984	680.6535	14.9834
11.2007	694.61	15.00293
11.202	672.161	15.0225
11.2033	681.661	15.042
11.2047	696.302	15.0615
11.2064	680.85	15.0811
11.2096	677.759	15.1006
11.2096	700.819	15.1201
11.212	684.329	15.1396
11.2136	679.4444	15.15918
11.2148	701.358	15.1787
11.2158	695.203	15.1982
11.21712	675.926	15.2178
11.2194	700.871	15.2373
11.2214	699.218	15.2568
11.2229	683.158	15.2764
11.2249	698.9375	15.2959
11.2264	707.437	15.31543
11.2275	686.037	15.335
11.2302	698.1	15.3545
11.2305	711.673	15.374
11.2326	692.597	15.3936
11.23442	696.313	15.4131
11.236	713.576	15.4326
11.2374	701.424	15.4521
11.2393	692.728	15.47168
11.2417	714.482	15.4912
11.2431	708.108	15.5107
11.24383	697.288	15.5303
11.2462	712.998	15.5498
11.2476	715.56	15.5693
11.2484	698.049	15.5889
11.2518	714.691	15.6084
11.25253	722.501	15.62793
11.2535	704.834	15.6475
11.2551	709.249	15.667
11.2572	729.262	15.6865
11.259	708.9444	15.7061
11.2611	711.809	15.7256
11.2614	729.715	15.7451
11.264	717.706	15.7646
11.2647	707.718	15.78418
11.2674	733.38	15.8037
11.2684	723.191	15.8232
11.2698	711.0061	15.8428
11.2721	731.241	15.8623
11.2733	731.974	15.8818
11.2762	711.41	15.9014
11.2767	728.5957	15.9209
11.2781	736.034	15.94043
11.2797	719.023	15.96
11.281	728.814	15.9795
11.2828	739.557	15.999
11.2849	722.79	16.0186
11.2866	727.008	16.0381
11.2885	744.864	16.0576
11.29	730.251	16.0771
11.2914	726.28	16.09668
11.293	744.496	16.1162
11.294	738.824	16.1357
11.2968	724.094	16.1553
11.2977	744.963	16.1748
11.2998	745.191	16.1943
11.3022	730.885	16.2139
11.304	741.993	16.2334
11.3036	751.213	16.25293
11.3058	730.8725	16.2725
11.3073	742.307	16.292
11.3096	757.308	16.3115
11.3103	741.351	16.3311
11.3126	736.411	16.3506
11.3147	760.949	16.3701
11.3154	745.617	16.3896
11.3177	740.194	16.40918
11.3187	760.785	16.4287
11.3214	754.419	16.4482
11.32288	738.763	16.4678
11.32411	761.014	16.4873
11.3259	759.367	16.5068
11.3263	741.999	16.5264
11.3288	759.918	16.5459
11.3317	768.1084	16.56543
11.3317	746.985	16.585
11.3333	754.935	16.6045
11.33464	770.711	16.624
11.337	752.937	16.6436
11.3385	755.986	16.6631
11.3402	771.479	16.6826
11.34088	758.396	16.7021
11.3439	755.309	16.72168
11.3458	776.486	16.7412
11.3467	768.704	16.7607
11.3481	755.8161	16.7803
11.3498	772.57	16.7998
11.3509	776.832	16.8193
11.3537	757.373	16.8389
11.3552	771.237	16.8584
11.3565	781.0799	16.87793
11.3578	763.83	16.8975
11.3588	769.38	16.917
11.3611	786.191	16.9365
11.3631	766.912	16.9561
11.3644	769.011	16.9756
11.3664	789.3598	16.9951
11.36783	776.292	17.0146
11.3696	764.639	17.03418
11.3719	789.6875	17.0537
11.3721	782.349	17.0732
11.3737	771.487	17.0928
11.3764	788.39	17.1123
11.3772	788.992	17.1318
11.3785	771.66	17.1514
11.3808	789.532	17.1709
11.3827	794.756	17.19043
11.3834	775.496	17.21
11.3854	786.07	17.2295
11.3868	800.339	17.249
11.3893	783.499	17.2686
11.3903	783.348	17.2881
11.3924	802.717	17.3076
11.3942	787.707	17.3271
11.396	786.61	17.34668
11.3968	803.337	17.3662
11.3976	796.613	17.3857
11.4006	784.273	17.4053
11.4017	804.121	17.4248
11.4031	804.745	17.4443
11.4046	786.786	17.4639
11.4071	798.438	17.4834
11.4079	811.217	17.50293
11.41093	789.624	17.5225
11.4114	799.305	17.542
11.4127	814.336	17.5615
11.4157	800.548	17.5811
11.4167	795.651	17.6006
11.418	817.424	17.6201
11.4203	801.808	17.6396
11.4219	796.795	17.65918
11.4229	819.719	17.6787
11.424	811.2395	17.6982
11.426	794.683	17.7178
11.4278	818.695	17.7373
11.429	816.7619	17.7568
11.4312	800.689	17.7764
11.4333	815.308	17.7959
11.4341	821.933	17.81543
11.4358	802.91	17.835
11.437	814.3656	17.8545
11.4404	827.813	17.874
11.4402	808.029	17.8936
11.4426	812.291	17.9131
11.4448	828.642	17.9326
11.4455	817.337	17.9521
11.4474	809.696	17.97168
11.4483	830.482	17.9912
11.4506	824.239	18.0107
11.4519	812.722	18.0303
11.4537	829.462	18.0498
11.4558	830.851	18.0693
11.4572	812.494	18.0889
11.4586	830.255	18.1084
11.4608	836.519	18.12793
11.46168	819.304	18.1475
11.4643	824.851	18.167
11.4656	842.573	18.1865
11.4681	821.628	18.2061
11.4676	825.62	18.2256
11.4706	842.511	18.2451
11.4714	831.861	18.2646
11.4736	821.717	18.28418
11.4755	846.103	18.3037
11.476	835.061	18.3232
11.48	824.654	18.3428
11.48	843.844	18.3623
11.48111	844.2782	18.3818
11.4833	826.502	18.4014
11.4846	843.851	18.4209
11.4859	850.025	18.44043
11.48722	830.618	18.46
11.4899	842.59	18.4795
11.4911	853.443	18.499
11.4933	835.881	18.5186
11.4945	840.2309	18.5381
11.4961	858.252	18.5576
11.498	842.084	18.5771
11.4992	839.435	18.59668
11.5006	855.714	18.6162
11.5031	851.5777	18.6357
11.504	838.081	18.6553
11.5058	855.359	18.6748
11.50834	854.968	18.6943
11.5094	843.366	18.7139
11.5102	854.199	18.7334
11.5126	862.835	18.75293
11.5143	841.284	18.7725
11.5155	855.143	18.792
11.5174	868.057	18.8115
11.5185	851.408	18.8311
11.5204	848.59	18.8506
11.5224	872.099	18.8701
11.52279	854.792	18.8896
11.5248	851.487	18.90918
11.5279	870.21	18.9287
11.5284	863.676	18.9482
11.5308	850.311	18.9678
11.5328	872.8324	18.9873
11.5347	868.178	19.0068
11.5357	852.247	19.0264
11.537	870.105	19.0459
11.53891	875.073	19.06543
11.5396	855.631	19.085
11.5411	866.585	19.1045
11.5427	877.725	19.124
11.5435	861.378	19.1436
11.54635	866.073	19.1631
11.5485	880.498	19.1826
11.5507	868.343	19.2021
11.552	864.967	19.22168
11.5532	883.984	19.2412
11.5545	874.9458	19.2607
11.5558	866.55	19.2803
11.558	882.286	19.2998
11.5604	884.975	19.3193
11.5614	866.94	19.3389
11.5628	880.852	19.3584
11.5653	887.105	19.37793
11.5671	872.476	19.3975
11.5678	877.8266	19.417
11.5694	894.659	19.4365
11.5714	873.6239	19.4561
11.5728	877.551	19.4756
11.5747	896.249	19.4951
11.57615	883.598	19.5146
11.578	873.807	19.53418
11.579	896.829	19.5537
11.5806	888.037	19.5732
11.581	876.857	19.5928
11.5838	895.52	19.6123
11.58555	894.237	19.6318
11.5877	878.018	19.6514
11.5891	895.395	19.6709
11.5911	898.334	19.69043
11.5917	880.502	19.71
11.5936	893.6405	19.7295
11.5952	904.382	19.749
11.59686	887.218	19.7686
11.5975	889.881	19.7881
11.6006	905.953	19.8076
11.6022	891.161	19.8271
11.6037	890.846	19.84668
11.605	906.21	19.8662
11.607	899.712	19.8857
11.6085	888.623	19.9053
11.6087	908.701	19.9248
11.6123	905.8139	19.9443
11.6128	893.141	19.9639
11.61508	903.285	19.9834
11.6162	913.996	20.00293
11.6182	902.622	20.0127

Data Header:			0.254_solid_dimension_typei_4545_r0			Time:	40.0193	s	4/14/2019 4:49:57 AM
Data Acquisition:	Timed
Station Name:	ft40.cfg
Test File Name:	monotonic_0.2540_typei_solid_4545_dimension.tst
Displacement	Force	Running Time
mm	N	s
11.6189	894.752	20.0225
11.6194	905.119	20.042
11.6223	915.565	20.0615
11.6236	901.6	20.0811
11.6243	901.7204	20.1006
11.6264	922.088	20.1201
11.62769	904.286	20.1396
11.6306	901.809	20.15918
11.632	920.957	20.1787
11.6324	913.933	20.1982
11.635	897.923	20.2178
11.6371	920.924	20.2373
11.6384	917.36	20.2568
11.6394	902.192	20.2764
11.6401	919.112	20.2959
11.6417	924.558	20.31543
11.64399	904.905	20.335
11.6459	917.494	20.3545
11.6478	927.9	20.374
11.6487	907.642	20.3936
11.6506	915.013	20.4131
11.652	929.245	20.4326
11.6544	917.6731	20.4521
11.6555	911.868	20.47168
11.6565	932.021	20.4912
11.6591	923.317	20.5107
11.6605	914.717	20.5303
11.66162	930.066	20.5498
11.6637	930.486	20.5693
11.66557	914.043	20.5889
11.6671	930.905	20.6084
11.6679	934.829	20.62793
11.6703	918.401	20.6475
11.6725	925.587	20.667
11.67388	940.25	20.6865
11.675	922.429	20.7061
11.6769	927.303	20.7256
11.678	942.493	20.7451
11.6804	930.214	20.7646
11.6814	923.687	20.78418
11.68352	946.168	20.8037
11.6846	931.686	20.8232
11.6866	924.4425	20.8428
11.6887	944.442	20.8623
11.6899	941.285	20.8818
11.6912	924.003	20.9014
11.693	941.422	20.9209
11.6948	946.019	20.94043
11.6965	929.485	20.96
11.6973	942.0116	20.9795
11.69967	948.48	20.999
11.7016	932.379	21.0186
11.70364	938.395	21.0381
11.7047	953.929	21.0576
11.7063	937.81	21.0771
11.7074	937.6	21.09668
11.7096	952.245	21.1162
11.7117	948.116	21.1357
11.7127	935.451	21.1553
11.7143	953.107	21.1748
11.7162	951.322	21.1943
11.71836	940.8302	21.2139
11.7184	950.201	21.2334
11.7213	958.4	21.25293
11.7224	938.725	21.2725
11.724	952.806	21.292
11.7263	963.138	21.3115
11.7266	945.861	21.3311
11.7278	945.104	21.3506
11.7304	965.586	21.3701
11.7326	948.6192	21.3896
11.7339	947.2229	21.40918
11.7349	965.092	21.4287
11.7361	957.555	21.4482
11.7394	944.873	21.4678
11.74031	965.906	21.4873
11.7417	960.365	21.5068
11.7441	947.075	21.5264
11.7449	962.197	21.5459
11.74681	968.489	21.56543
11.7488	949.296	21.585
11.7496	961.356	21.6045
11.7528	972.168	21.624
11.7536	954.788	21.6436
11.7555	961.888	21.6631
11.7556	972.351	21.6826
11.7578	958.972	21.7021
11.7598	957.45	21.72168
11.7609	975.985	21.7412
11.7632	965.059	21.7607
11.76443	958.4541	21.7803
11.7664	972.949	21.7998
11.7682	974.2818	21.8193
11.76898	957.584	21.8389
11.7709	973.654	21.8584
11.7734	976.822	21.87793
11.7739	962.953	21.8975
11.7757	971.562	21.917
11.7777	981.588	21.9365
11.7798	963.149	21.9561
11.7802	971.078	21.9756
11.7829	986.854	21.9951
11.784	972.488	22.0146
11.7858	965.347	22.03418
11.7882	986.937	22.0537
11.7891	976.6131	22.0732
11.7905	968.217	22.0928
11.7915	986.096	22.1123
11.79453	982.609	22.1318
11.7954	967.2196	22.1514
11.7979	986.571	22.1709
11.7984	987.17	22.19043
11.8002	969.188	22.21
11.8014	981.891	22.2295
11.8023	991.183	22.249
11.8057	974.686	22.2686
11.8071	976.97	22.2881
11.8086	993.269	22.3076
11.8106	979.562	22.3271
11.8124	978.214	22.34668
11.814	991.965	22.3662
11.8149	985.093	22.3857
11.8165	975.6004	22.4053
11.8183	994	22.4248
11.8197	989.057	22.4443
11.8209	977.729	22.4639
11.82369	990.712	22.4834
11.8258	998.3891	22.50293
11.8253	977.986	22.5225
11.8285	990.8833	22.542
11.8289	1000.42	22.5615
11.8319	986.139	22.5811
11.8323	986.289	22.6006
11.8344	1004.45	22.6201
11.8351	987.336	22.6396
11.8372	987.124	22.65918
11.8394	1004.96	22.6787
11.8403	995.649	22.6982
11.8418	983.0072	22.7178
11.8449	1005.16	22.7373
11.8459	999.833	22.7568
11.8471	987.375	22.7764
11.8496	1003.92	22.7959
11.8503	1004.25	22.81543
11.8523	989.205	22.835
11.85425	1003.37	22.8545
11.8549	1009.88	22.874
11.8589	991.791	22.8936
11.8594	997.748	22.9131
11.8596	1010.56	22.9326
11.86238	999.797	22.9521
11.8635	997.146	22.97168
11.8654	1012.58	22.9912
11.8672	1002.76	23.0107
11.8687	997.192	23.0303
11.8705	1010.54	23.0498
11.8725	1010.38	23.0693
11.8736	994.22	23.0889
11.8753	1011.25	23.1084
11.877	1014.4	23.12793
11.8781	999.689	23.1475
11.8793	1006.13	23.167
11.882	1020.71	23.1865
11.88301	1001.62	23.2061
11.8849	1006.59	23.2256
11.8861	1019.53	23.2451
11.88806	1007.99	23.2646
11.8905	1003.37	23.28418
11.8922	1023.44	23.3037
11.8926	1011.08	23.3232
11.8951	1002.56	23.3428
11.8967	1023.27	23.3623
11.8971	1019.41	23.3818
11.8988	1002.619	23.4014
11.9008	1018.42	23.4209
11.9038	1024.06	23.44043
11.9045	1005.05	23.46
11.9064	1020.06	23.4795
11.9078	1024.41	23.499
11.9097	1010.48	23.5186
11.911	1014.96	23.5381
11.9124	1030.47	23.5576
11.9137	1014.43	23.5771
11.9157	1014.18	23.59668
11.9175	1028.13	23.6162
11.9183	1021.78	23.6357
11.9209	1011.91	23.6553
11.9222	1029.282	23.6748
11.9237	1025.14	23.6943
11.9254	1015.1	23.7139
11.9278	1024.599	23.7334
11.9288	1030.32	23.75293
11.9302	1013.288	23.7725
11.9318	1026.98	23.792
11.9336	1036.15	23.8115
11.935	1018.8	23.8311
11.9376	1019.76	23.8506
11.9395	1038.092	23.8701
11.9395	1022.49	23.8896
11.9414	1022.99	23.90918
11.9431	1037.93	23.9287
11.9449	1027.84	23.9482
11.9467	1018.41	23.9678
11.9482	1039.01	23.9873
11.9498	1031.99	24.0068
11.9521	1017.66	24.0264
11.9532	1036.95	24.0459
11.9545	1037.83	24.06543
11.9572	1019.39	24.085
11.95775	1030.61	24.1045
11.9603	1041.62	24.124
11.9611	1024.91	24.1436
11.9642	1031.93	24.1631
11.9647	1040.37	24.1826
11.9659	1029.5	24.2021
11.9681	1027.86	24.22168
11.96921	1046.29	24.2412
11.9721	1035.18	24.2607
11.9725	1028.02	24.2803
11.9751	1042.58	24.2998
11.9763	1041.87	24.3193
11.9774	1026.21	24.3389
11.9808	1042.14	24.3584
11.9817	1044.981	24.37793
11.9822	1030.44	24.3975
11.9832	1039.17	24.417
11.9845	1049.99	24.4365
11.9878	1029.85	24.4561
11.9886	1037.14	24.4756
11.9915	1052.077	24.4951
11.993	1036.8	24.5146
11.9948	1033.87	24.53418
11.9955	1053.17	24.5537
11.9979	1041.296	24.5732
11.9993	1035.13	24.5928
12.001	1050.79	24.6123
12.0025	1046.7	24.6318
12.0041	1032.71	24.6514
12.0054	1050.6	24.6709
12.0065	1049.85	24.69043
12.0087	1033.26	24.71
12.0108	1048.26	24.7295
12.0118	1054.33	24.749
12.0149	1039.22	24.7686
12.01509	1043.68	24.7881
12.0159	1055.412	24.8076
12.0179	1041.94	24.8271
12.0209	1044.09	24.84668
12.0221	1056.14	24.8662
12.0237	1048.16	24.8857
12.0246	1039.23	24.9053
12.0274	1058.21	24.9248
12.0284	1052.9	24.9443
12.0298	1041.51	24.9639
12.0304	1051.96	24.9834
12.0341	1060.15	25.00293
12.0352	1039.85	25.0225
12.0355	1052.23	25.042
12.0379	1061	25.0615
12.04	1047.31	25.0811
12.0411	1047.79	25.1006
12.0408	1063.87	25.1201
12.0455	1046.09	25.1396
12.0464	1045.524	25.15918
12.0481	1064.95	25.1787
12.049	1054.02	25.1982
12.0508	1043.88	25.2178
12.0518	1063.82	25.2373
12.0551	1058.12	25.2568
12.0556	1046.06	25.2764
12.0574	1063.25	25.2959
12.05842	1061.85	25.31543
12.0607	1046.74	25.335
12.0629	1060.131	25.3545
12.0645	1067.202	25.374
12.0656	1049.74	25.3936
12.0675	1056.34	25.4131
12.0698	1067.35	25.4326
12.0709	1055.02	25.4521
12.07218	1051.57	25.47168
12.0739	1068.58	25.4912
12.0743	1059.42	25.5107
12.0769	1054.86	25.5303
12.0787	1065.79	25.5498
12.07995	1064.31	25.5693
12.0822	1049.71	25.5889
12.0843	1068.26	25.6084
12.0856	1069.84	25.62793
12.08673	1053.793	25.6475
12.0885	1058.71	25.667
12.0904	1072.66	25.6865
12.0917	1056.02	25.7061
12.0935	1061.11	25.7256
12.0957	1072.14	25.7451
12.0966	1058.714	25.7646
12.0981	1057.02	25.78418
12.0994	1073.9	25.8037
12.1012	1061.14	25.8232
12.1027	1054.65	25.8428
12.104	1073.63	25.8623
12.1066	1068.83	25.8818
12.1083	1054.57	25.9014
12.1091	1070.234	25.9209
12.1115	1071.238	25.94043
12.112	1056.65	25.96
12.1152	1068.53	25.9795
12.1158	1071.8	25.999
12.1179	1060.6	26.0186
12.1198	1065.32	26.0381
12.1209	1078.61	26.0576
12.123	1060.49	26.0771
12.12453	1064.44	26.09668
12.12499	1075	26.1162
12.1273	1070.72	26.1357
12.1288	1059.5	26.1553
12.1317	1076.43	26.1748
12.1318	1073	26.1943
12.1341	1062.22	26.2139
12.1364	1073.07	26.2334
12.1371	1078.09	26.25293
12.139	1060.722	26.2725
12.1413	1073.26	26.292
12.14174	1081.11	26.3115
12.1438	1064.3	26.3311
12.1458	1066.41	26.3506
12.14759	1083.76	26.3701
12.1481	1068.68	26.3896
12.1503	1066.59	26.40918
12.1522	1082.09	26.4287
12.1537	1071.82	26.4482
12.1546	1063.83	26.4678
12.1569	1081.21	26.4873
12.1584	1074.823	26.5068
12.1592	1061.41	26.5264
12.1623	1080.73	26.5459
12.163	1080.17	26.56543
12.1656	1064.33	26.585
12.1661	1073.78	26.6045
12.1678	1083.92	26.624
12.1697	1065.98	26.6436
12.17197	1075.115	26.6631
12.1724	1082.42	26.6826
12.1746	1071.95	26.7021
12.17604	1068.63	26.72168
12.1775	1086.58	26.7412
12.1791	1074.14	26.7607
12.1812	1069.79	26.7803
12.1837	1082.69	26.7998
12.1841	1081.33	26.8193
12.1864	1065.79	26.8389
12.1869	1081.9	26.8584
12.1884	1083.57	26.87793
12.1903	1071.04	26.8975
12.1917	1077.11	26.917
12.1945	1087.81	26.9365
12.1968	1069.58	26.9561
12.1973	1076.436	26.9756
12.199	1089.83	26.9951
12.2005	1075.51	27.0146
12.2017	1069.86	27.03418
12.2051	1089.63	27.0537
12.2053	1076.48	27.0732
12.2074	1069.7	27.0928
12.20876	1087.58	27.1123
12.2096	1081.532	27.1318
12.2123	1068.83	27.1514
12.2139	1087.45	27.1709
12.215	1084.94	27.19043
12.2169	1067.34	27.21
12.2182	1081.83	27.2295
12.2201	1088.75	27.249
12.2213	1073.3	27.2686
12.2244	1077.13	27.2881
12.22499	1090.43	27.3076
12.2267	1076	27.3271
12.2281	1076.88	27.34668
12.2298	1087.77	27.3662
12.23151	1080.92	27.3857
12.2333	1071.86	27.4053
12.23512	1091.09	27.4248
12.2355	1085.735	27.4443
12.2391	1073.187	27.4639
12.2392	1084.35	27.4834
12.2404	1091.14	27.50293
12.243	1073.11	27.5225
12.245	1084.8	27.542
12.2464	1092.18	27.5615
12.2473	1076.9	27.5811
12.25	1079.03	27.6006
12.2512	1095.82	27.6201
12.2522	1078.48	27.6396
12.2547	1078.65	27.65918
12.2557	1095.58	27.6787
12.2575	1083.23	27.6982
12.2595	1073.418	27.7178
12.2617	1092.17	27.7373
12.2628	1086.34	27.7568
12.26362	1072.87	27.7764
12.2652	1091.05	27.7959
12.26816	1089.69	27.81543
12.2687	1074.4	27.835
12.2702	1086.23	27.8545
12.2719	1093.915	27.874
12.2743	1076.3	27.8936
12.275	1084.05	27.9131
12.27638	1094.739	27.9326
12.2796	1082.44	27.9521
12.2806	1078.69	27.97168
12.2822	1095.58	27.9912
12.2834	1085.13	28.0107
12.28631	1080.47	28.0303
12.2876	1090.1	28.0498
12.2891	1090.37	28.0693
12.2901	1075.6	28.0889
12.2914	1093.22	28.1084
12.2935	1092.89	28.12793
12.2959	1077.6	28.1475
12.2972	1085.6	28.167
12.2979	1096.88	28.1865
12.3001	1078.58	28.2061
12.3015	1084.58	28.2256
12.303	1099.12	28.2451
12.3057	1083.9	28.2646
12.306	1081.54	28.28418
12.3084	1098.73	28.3037
12.3115	1083.54	28.3232
12.3108	1079	28.3428
12.31214	1099.61	28.3623
12.3151	1091.36	28.3818
12.3161	1076.86	28.4014
12.3176	1093.68	28.4209
12.3187	1095.41	28.44043
12.3211	1077.72	28.46
12.3227	1092.3	28.4795
12.3241	1095.7	28.499
12.326	1082.1	28.5186
12.3275	1086.08	28.5381
12.3288	1099.67	28.5576
12.3308	1082.511	28.5771
12.3327	1084.78	28.59668
12.3339	1096.81	28.6162
12.3353	1090.6	28.6357
12.3378	1080.87	28.6553
12.339	1097.72	28.6748
12.3396	1092.47	28.6943
12.3414	1081.895	28.7139
12.3437	1091.79	28.7334
12.3463	1095.67	28.75293
12.3476	1079.54	28.7725
12.3487	1091.14	28.792
12.3488	1098.81	28.8115
12.35166	1081.93	28.8311
12.3537	1084.43	28.8506
12.3556	1101.37	28.8701
12.3557	1084.59	28.8896
12.3588	1082.92	28.90918
12.3592	1100.51	28.9287
12.3612	1088.672	28.9482
12.36442	1081.44	28.9678
12.3642	1098.47	28.9873
12.3663	1091.9	29.0068
12.3676	1079.42	29.0264
12.3703	1098.02	29.0459
12.3717	1096.25	29.06543
12.3729	1080.78	29.085
12.3748	1090.73	29.1045
12.3759	1100.27	29.124
12.3774	1083.57	29.1436
12.3794	1090.89	29.1631
12.3811	1098	29.1826
12.3821	1086.84	29.2021
12.3854	1086.1	29.22168
12.386	1103.23	29.2412
12.3873	1089.93	29.2607
12.3893	1084.56	29.2803
12.3901	1097.56	29.2998
12.3921	1097.57	29.3193
12.39455	1079.94	29.3389
12.3957	1096.2	29.3584
12.3967	1097.45	29.37793
12.3994	1084.94	29.3975
12.4001	1092.41	29.417
12.4025	1100.94	29.4365
12.4041	1084	29.4561
12.40572	1090.16	29.4756
12.4075	1103.72	29.4951
12.4087	1086.67	29.5146
12.41	1084.373	29.53418
12.4128	1102.4	29.5537
12.4135	1091.48	29.5732
12.415	1083	29.5928
12.4162	1100.79	29.6123
12.4182	1091.88	29.6318
12.4203	1083.8	29.6514
12.42218	1098.61	29.6709
12.424	1097.59	29.69043
12.4252	1082.33	29.71
12.4273	1096.24	29.7295
12.4283	1100.554	29.749
12.4298	1084.52	29.7686
12.4313	1088.64	29.7881
12.4339	1102.91	29.8076
12.435	1088.6	29.8271
12.437	1088.36	29.84668
12.43772	1098.99	29.8662
12.4405	1092.59	29.8857
12.4404	1082.6	29.9053
12.4428	1100.96	29.9248
12.4437	1095.5	29.9443
12.4468	1084.54	29.9639
12.4484	1095.44	29.9834
12.4499	1102.05	30.00293
12.451	1082.84	30.0225
12.4525	1093.47	30.042
12.4545	1101.83	30.0615
12.4559	1086.412	30.0811
12.4587	1090.16	30.1006
12.4598	1104.01	30.1201
12.4607	1087.13	30.1396
12.4617	1086.46	30.15918
12.4639	1104.78	30.1787
12.4665	1090.61	30.1982
12.467	1083.07	30.2178
12.4691	1100.95	30.2373
12.4707	1096.12	30.2568
12.47183	1083.29	30.2764
12.4739	1097.93	30.2959
12.476	1097.29	30.31543
12.4774	1085.27	30.335
12.4789	1095.06	30.3545
12.4819	1102.04	30.374
12.4825	1084.68	30.3936
12.4843	1092.96	30.4131
12.4842	1102.25	30.4326
12.486	1089.43	30.4521
12.4884	1084.47	30.47168
12.4902	1101.9	30.4912
12.4923	1091.98	30.5107
12.494	1084.89	30.5303
12.4944	1097.95	30.5498
12.4975	1096.54	30.5693
12.4977	1082.87	30.5889
12.4998	1099.55	30.6084
12.5021	1099.53	30.62793
12.5032	1085.27	30.6475
12.50432	1093.36	30.667
12.5063	1104.472	30.6865
12.5085	1085.38	30.7061
12.5092	1089.93	30.7256
12.5116	1102.63	30.7451
12.5127	1089.07	30.7646
12.5137	1085.18	30.78418
12.5157	1104.24	30.8037
12.518	1090.13	30.8232
12.5191	1083.8	30.8428
12.5219	1104.39	30.8623
12.5233	1096.58	30.8818
12.5245	1083.05	30.9014
12.5265	1098.38	30.9209
12.5278	1098.93	30.94043
12.5299	1084.511	30.96
12.5318	1095.82	30.9795
12.5335	1098.79	30.999
12.5351	1085.105	31.0186
12.5364	1090.46	31.0381
12.537	1103.6	31.0576
12.5381	1088.44	31.0771
12.5409	1088.74	31.09668
12.5417	1100.29	31.1162
12.5441	1094.42	31.1357
12.5456	1083.24	31.1553
12.5473	1101.11	31.1748
12.5497	1095.99	31.1943
12.5506	1085.76	31.2139
12.5534	1095.62	31.2334
12.5538	1099.11	31.25293
12.5549	1083.56	31.2725
12.5569	1096.31	31.292
12.5586	1103.2	31.3115
12.5602	1085.7	31.3311
12.5617	1088.13	31.3506
12.5647	1105.56	31.3701
12.56448	1088.91	31.3896
12.5655	1087.38	31.40918
12.5685	1103.47	31.4287
12.5703	1091.83	31.4482
12.5708	1085.25	31.4678
12.5731	1102.13	31.4873
12.57495	1094.298	31.5068
12.5758	1082.1	31.5264
12.5785	1101.56	31.5459
12.5789	1099.01	31.56543
12.5813	1084.81	31.585
12.5831	1093.03	31.6045
12.5856	1102.87	31.624
12.58561	1087.04	31.6436
12.588	1092.88	31.6631
12.58867	1098.23	31.6826
12.5903	1089.03	31.7021
12.5927	1086.88	31.72168
12.5949	1104.12	31.7412
12.595	1093.05	31.7607
12.5979	1086.57	31.7803
12.59965	1097.69	31.7998
12.6004	1098.48	31.8193
12.6024	1081.91	31.8389
12.605	1098.34	31.8584
12.60507	1097.45	31.87793
12.6069	1085.44	31.8975
12.60897	1094.06	31.917
12.6103	1101.87	31.9365
12.613	1084.12	31.9561
12.6134	1090.75	31.9756
12.6157	1103.76	31.9951
12.6172	1087.6	32.0146
[...]
14.3749	1077.84	53.1084
14.3761	1080.02	53.12793
14.3774	1064.81	53.1475
14.3786	1074.05	53.167
14.3809	1080.74	53.1865
14.3824	1067.04	53.2061
14.3837	1070.99	53.2256
14.3865	1083.19	53.2451
14.3874	1067.075	53.2646
14.3893	1068.75	53.28418
14.3908	1081.51	53.3037
14.3919	1071.2	53.3232
14.3946	1066.14	53.3428
14.3971	1084.16	53.3623
14.3975	1074.37	53.3818
14.398	1066.27	53.4014
14.3999	1076.5	53.4209
14.4026	1077.35	53.44043
14.4033	1065.65	53.46
14.4043	1076.3	53.4795
14.4069	1075.99	53.499
14.4077	1067.2	53.5186
14.41	1070.24	53.5381
14.4118	1082.62	53.5576
14.413	1069.1	53.5771
14.4152	1069.09	53.59668
14.4169	1078.43	53.6162
14.4187	1073.67	53.6357
14.4202	1065.2	53.6553
14.4217	1080.14	53.6748
14.4231	1076.31	53.6943
14.4242	1067.31	53.7139
14.4269	1078.55	53.7334
14.4282	1078.189	53.75293
14.4299	1065.15	53.7725
14.431	1075.65	53.792
14.4336	1080.82	53.8115
14.435	1064.52	53.8311
14.4367	1071.22	53.8506
14.4378	1081.26	53.8701
14.4394	1067.1	53.8896
14.4414	1067.72	53.90918
14.4431	1081.98	53.9287
14.4439	1069.39	53.9482
14.4459	1068.1	53.9678
14.4484	1079.24	53.9873
14.44884	1073.28	54.0068
14.451	1063.47	54.0264
14.4526	1079.678	54.0459
14.4532	1076.24	54.06543
14.4561	1066.041	54.085
14.4567	1073.18	54.1045
14.4595	1081.2	54.124
14.4602	1066.93	54.1436
14.4622	1074.23	54.1631
14.4643	1077.55	54.1826
14.4668	1068.507	54.2021
14.4671	1067.43	54.22168
14.4685	1083.13	54.2412
14.4695	1071.01	54.2607
14.4718	1065.67	54.2803
14.4736	1078.46	54.2998
14.4754	1076.41	54.3193
14.4774	1064.68	54.3389
14.4787	1078.06	54.3584
14.4803	1078.2	54.37793
14.4818	1065.37	54.3975
14.4833	1075.67	54.417
14.4842	1081.28	54.4365
14.4868	1065.588	54.4561
14.48781	1073.55	54.4756
14.4895	1084.46	54.4951
14.4911	1067.109	54.5146
14.4936	1065.86	54.53418
14.495	1080.97	54.5537
14.4967	1071.89	54.5732
14.4985	1066.88	54.5928
14.5007	1080.687	54.6123
14.5017	1071.06	54.6318
14.5032	1064.39	54.6514
14.5046	1078.75	54.6709
14.5066	1078.04	54.69043
14.5076	1064.71	54.71
14.5094	1076.66	54.7295
14.51	1077.92	54.749
14.5123	1066.28	54.7686
14.5136	1070.75	54.7881
14.5165	1080.53	54.8076
14.5184	1069.41	54.8271
14.5188	1070.56	54.84668
14.5206	1077.91	54.8662
14.5224	1072.43	54.8857
14.5246	1066.22	54.9053
14.5266	1081.28	54.9248
14.5268	1075.43	54.9443
14.5286	1063.99	54.9639
14.5299	1076.82	54.9834
14.5323	1079.68	55.00293
14.5343	1064.01	55.0225
14.5357	1073.4	55.042
14.5372	1079.64	55.0615
14.5392	1064.47	55.0811
14.5397	1070.28	55.1006
14.5419	1080.36	55.1201
14.5433	1066.56	55.1396
14.5455	1065.72	55.15918
14.5477	1083.15	55.1787
14.54845	1070.24	55.1982
14.5512	1066.097	55.2178
14.5516	1079.05	55.2373
14.5534	1074.29	55.2568
14.5549	1064.21	55.2764
14.5569	1079.26	55.2959
14.5583	1073.43	55.31543
14.5604	1065.01	55.335
14.562	1074.1	55.3545
14.5644	1081.03	55.374
14.5645	1065.92	55.3936
14.5669	1073.71	55.4131
14.5683	1078.07	55.4326
14.5702	1069.65	55.4521
14.5711	1064.84	55.47168
14.5731	1079.05	55.4912
14.5751	1071.79	55.5107
14.5758	1066.958	55.5303
14.5773	1077.99	55.5498
14.5803	1074.62	55.5693
14.5804	1062.67	55.5889
14.583	1077.67	55.6084
14.584	1077.76	55.62793
14.5867	1062.65	55.6475
14.5871	1071.8	55.667
14.5893	1080.94	55.6865
14.5908	1065.76	55.7061
14.592	1070.68	55.7256
14.5948	1079.42	55.7451
14.5959	1064.87	55.7646
14.5983	1067.22	55.78418
14.599	1081.69	55.8037
14.6007	1068.5	55.8232
14.6021	1064.12	55.8428
14.6033	1081.16	55.8623
14.6057	1072.52	55.8818
14.6071	1062.59	55.9014
14.6086	1075.55	55.9209
14.6097	1076.63	55.94043
14.61213	1064	55.96
14.6135	1076.168	55.9795
14.6156	1076.71	55.999
14.6159	1064.35	56.0186
14.6188	1068.9	56.0381
14.6197	1081.25	56.0576
14.6216	1064.63	56.0771
14.6227	1068.23	56.09668
14.6256	1077.2	56.1162
14.6266	1070.92	56.1357
14.6276	1063.11	56.1553
14.6296	1077.741	56.1748
14.633	1073.35	56.1943
14.63313	1065.38	56.2139
14.6348	1074.953	56.2334
14.6361	1076.84	56.25293
14.6389	1061.41	56.2725
14.6391	1072.54	56.292
14.6415	1079.83	56.3115
14.6433	1063.21	56.3311
14.6447	1068.29	56.3506
14.64657	1079.139	56.3701
14.6469	1066.16	56.3896
14.6493	1067.575	56.40918
14.652	1080.21	56.4287
14.653	1067.54	56.4482
14.6549	1066.936	56.4678
14.6566	1080.13	56.4873
14.6577	1072.92	56.5068
14.6589	1060.957	56.5264
14.6605	1078.991	56.5459
14.6626	1073.11	56.56543
14.6649	1063.203	56.585
14.6657	1070.29	56.6045
14.6669	1078.55	56.624
14.669	1063.99	56.6436
14.6709	1071.99	56.6631
14.6717	1075.26	56.6826
14.6737	1066.91	56.7021
14.6758	1065.05	56.72168
14.6773	1081.35	56.7412
14.6783	1069.14	56.7607
14.6804	1065.924	56.7803
14.6816	1074.822	56.7998
14.6838	1074.05	56.8193
14.6854	1063.73	56.8389
14.68707	1075.85	56.8584
14.689	1076.34	56.87793
14.6907	1063.81	56.8975
14.6919	1072.56	56.917
14.6942	1080.09	56.9365
14.6948	1063.16	56.9561
14.697	1070.01	56.9756
14.6982	1080.91	56.9951
14.7001	1065.71	57.0146
14.70076	1065.65	57.03418
14.7037	1079.717	57.0537
14.7046	1069.02	57.0732
14.707	1062.87	57.0928
14.7084	1079.65	57.1123
14.7096	1069.57	57.1318
14.7115	1063.2	57.1514
14.713	1075.56	57.1709
14.7143	1076.16	57.19043
14.7166	1061.54	57.21
14.7174	1074.48	57.2295
14.7197	1076.9	57.249
14.7204	1066.16	57.2686
14.7221	1068.14	57.2881
14.72434	1078.23	57.3076
14.7252	1065.73	57.3271
14.7284	1069.369	57.34668
14.7291	1076.74	57.3662
14.7318	1067.74	57.3857
14.7323	1062.66	57.4053
14.7328	1077.62	57.4248
14.7344	1072.68	57.4443
14.738	1062.81	57.4639
14.7391	1072.79	57.4834
14.7403	1078.34	57.50293
14.742	1061.66	57.5225
14.7436	1070.58	57.542
14.7449	1076.6	57.5615
14.7469	1063.14	57.5811
14.7483	1067.93	57.6006
14.7513	1078.26	57.6201
14.7515	1063.91	57.6396
14.7535	1066.11	57.65918
14.7552	1080.8	57.6787
14.75711	1069.45	57.6982
14.7578	1063.88	57.7178
14.75983	1076.12	57.7373
14.7616	1072.71	57.7568
14.7633	1062.33	57.7764
14.76434	1076.98	57.7959
14.7669	1072.559	57.81543
14.7681	1063.17	57.835
14.77	1072.45	57.8545
14.7721	1077.5	57.874
14.7737	1063.08	57.8936
14.7745	1070.454	57.9131
14.7761	1076.42	57.9326
14.77788	1067.1	57.9521
14.779	1065.81	57.97168
14.78013	1078.45	57.9912
14.7824	1068.3	58.0107
14.7838	1063.81	58.0303
14.7857	1075.72	58.0498
14.7875	1073.04	58.0693
14.7888	1061.74	58.0889
14.7899	1075.74	58.1084
14.7943	1076.271	58.12793
14.7947	1062.42	58.1475
14.796	1070.09	58.167
14.7988	1078.22	58.1865
14.799	1063.23	58.2061
14.802	1068.67	58.2256
14.802	1077.76	58.2451
14.8041	1062.73	58.2646
14.8061	1065.48	58.28418
14.8073	1078.88	58.3037
14.8091	1067.994	58.3232
14.8109	1061.297	58.3428
14.8133	1079.08	58.3623
14.8138	1071.116	58.3818
14.81561	1062.86	58.4014
14.8168	1076.1	58.4209
14.8202	1074.6	58.44043
14.8216	1063.74	58.46
14.8228	1074.81	58.4795
14.8248	1073.45	58.499
14.82604	1064.23	58.5186
14.82691	1067.41	58.5381
14.8281	1079.8	58.5576
14.8317	1065.51	58.5771
14.8315	1066.958	58.59668
14.8351	1076.7	58.6162
14.8342	1071.59	58.6357
14.8364	1061.8	58.6553
14.8387	1077.41	58.6748
14.8395	1070.48	58.6943
14.841	1062.23	58.7139
14.8426	1073.2	58.7334
14.8446	1074.43	58.75293
14.8463	1059.24	58.7725
14.8483	1070.93	58.792
14.8503	1077.5	58.8115
14.8507	1063.07	58.8311
14.8527	1064.47	58.8506
14.8553	1078.65	58.8701
14.8559	1063.692	58.8896
14.8571	1065.02	58.90918
14.86	1079.163	58.9287
14.86019	1064.63	58.9482
14.8625	1063.25	58.9678
14.8646	1078.13	58.9873
14.8651	1070.88	59.0068
14.8675	1059.19	59.0264
14.8691	1075.6	59.0459
14.8708	1071.688	59.06543
14.8722	1061.82	59.085
14.8735	1069.65	59.1045
14.8747	1075.29	59.124
14.8773	1062.71	59.1436
14.879	1071.7	59.1631
14.8814	1075.09	59.1826
14.8827	1064.34	59.2021
14.884	1062.43	59.22168
14.88601	1077.37	59.2412
14.8865	1066.85	59.2607
14.8884	1062.41	59.2803
14.89043	1073.19	59.2998
14.8913	1070.318	59.3193
14.8932	1060.59	59.3389
14.8955	1072.37	59.3584
14.8973	1072.89	59.37793
14.899	1061.87	59.3975
14.8997	1068.65	59.417
14.9013	1077.2	59.4365
14.9034	1059.97	59.4561
14.9048	1067.34	59.4756
14.9066	1077.9	59.4951
14.9085	1063.95	59.5146
14.91015	1061.66	59.53418
14.9113	1076.56	59.5537
14.91368	1067.6	59.5732
14.9149	1061.55	59.5928
14.9153	1077.2	59.6123
14.9174	1067.537	59.6318
14.92	1060.303	59.6514
14.9215	1075.38	59.6709
14.9227	1074.703	59.69043
14.9242	1059.13	59.71
14.926	1072.38	59.7295
14.927	1072.86	59.749
14.9295	1063.49	59.7686
14.9312	1066.22	59.7881
14.9332	1076.6	59.8076
14.9351	1063.89	59.8271
14.9362	1064.99	59.84668
14.9374	1075.03	59.8662
14.9398	1066.46	59.8857
14.9408	1058.65	59.9053
14.9426	1074.84	59.9248
14.9441	1071.18	59.9443
14.9453	1062.469	59.9639
14.9464	1070.61	59.9834
14.9488	1074.38	60.00293
14.9504	1065.15	60.0127

Data Header:			0.254_solid_dimension_typei_4545_r0			Time:	64.498	s	4/14/2019 4:50:21 AM
Data Acquisition:	Timed
Station Name:	ft40.cfg
Test File Name:	monotonic_0.2540_typei_solid_4545_dimension.tst
Displacement	Force	Running Time
mm	N	s
14.9502	1060.03	60.0225
14.9511	1060.76	60.0322
14.9509	1070.61	60.042
14.95256	1076.77	60.0518
14.9532	1074.67	60.0615
14.9547	1066.91	60.0713
14.9553	1059.74	60.0811
14.9567	1059.36	60.09082
14.9575	1066.73	60.1006
14.9587	1073.6	60.1104
14.9584	1076.969	60.1201
14.9597	1074.42	60.1299
14.9605	1060.99	60.1396
14.96181	1057.65	60.1494
14.9625	1062.97	60.15918
14.963	1073.26	60.1689
14.9639	1077.98	60.1787
14.9639	1070.7	60.1885
14.9648	1067.04	60.1982
14.9656	1060.42	60.208
14.9663	1059.98	60.2178
14.9672	1068.45	60.2275
14.9686	1074.33	60.2373
14.9694	1077.38	60.24707
14.9694	1068.18	60.2568
14.9722	1058.7	60.2666
14.9719	1059.74	60.2764
14.9722	1066.37	60.2861
14.9736	1075.67	60.2959
14.9747	1075.29	60.3057
14.9742	1070.11	60.31543
14.9761	1064.52	60.3252
14.9772	1059.82	60.335
14.9765	1062.73	60.3447
14.9783	1067.86	60.3545
14.9793	1076.38	60.3643
14.97951	1075.3	60.374
14.9807	1064.969	60.3838
14.9814	1060.51	60.3936
14.9819	1061.17	60.40332
14.9836	1066.87	60.4131
14.9837	1074.29	60.4229
14.9849	1073.19	60.4326
14.9856	1068.09	60.4424
14.9861	1064.97	60.4521
14.9869	1059.41	60.4619
14.9878	1063.41	60.47168
14.98894	1071.33	60.4814
14.9886	1075.27	60.4912
14.99	1073.7	60.501
14.9907	1064.93	60.5107
14.9921	1059.93	60.5205
14.9923	1064.39	60.5303
14.9936	1067.09	60.54
14.9952	1071.31	60.5498
14.99506	1073.26	60.55957
14.9959	1070.52	60.5693
14.9974	1063.464	60.5791
14.9977	1057.95	60.5889
14.9984	1063.99	60.5986
14.9997	1072.86	60.6084
14.9993	1074.53	60.6182
15.0008	1072.18	60.62793
15.002	1062.13	60.6377
15.0028	1060	60.6475
15.0035	1061.38	60.6572
15.0045	1065.71	60.667
15.00527	1074.85	60.6768
15.0062	1073.75	60.6865
15.0069	1067.72	60.6963
15.0073	1060.35	60.7061
15.0084	1055.61	60.71582
15.0086	1065.64	60.7256
15.01	1073.09	60.7354
15.0108	1075.02	60.7451
15.0117	1067.43	60.7549
15.0118	1061.34	60.7646
15.0132	1058.324	60.7744
15.01495	1060.32	60.78418
15.0143	1069.95	60.7939
15.0148	1076.51	60.8037
15.0166	1073	60.8135
15.0174	1063.281	60.8232
15.0188	1055.74	60.833
15.019	1057.99	60.8428
15.02081	1068.53	60.8525
15.021	1074.6	60.8623
15.0211	1072.2	60.87207
15.0221	1068.52	60.8818
15.0227	1060.19	60.8916
15.0238	1057.03	60.9014
15.0248	1064.94	60.9111
15.0249	1070.11	60.9209
15.0267	1075.744	60.9307
15.02708	1069.77	60.94043
15.0279	1059.32	60.9502
15.0277	1057.92	60.96
15.0289	1059.06	60.9697
15.0303	1071.49	60.9795
15.0312	1072.07	60.9893
15.0313	1069.85	60.999
15.0334	1064.94	61.0088
15.0342	1057.7	61.0186
15.0345	1060.12	61.02832
15.0355	1065	61.0381
15.0361	1070.543	61.0479
15.037	1074.87	61.0576
15.0383	1065.4	61.0674
15.0385	1059.1	61.0771
15.0387	1057.19	61.0869
15.039	1061.99	61.09668
15.0404	1069.79	61.1064
15.0426	1070.25	61.1162
15.0419	1068.86	61.126
15.0439	1064.54	61.1357
15.0442	1057.34	61.1455
15.0456	1057.579	61.1553
15.0456	1064.84	61.165
15.046	1070.65	61.1748
15.0473	1070.74	61.18457
15.0479	1065.85	61.1943
15.0487	1058	61.2041
15.05	1058.14	61.2139
15.0508	1059.85	61.2236
15.05102	1068.65	61.2334
15.0522	1070.75	61.2432
15.0523	1068.98	61.25293
15.0535	1062.79	61.2627
15.0546	1052.9	61.2725
15.0558	1057.06	61.2822
15.056	1065.5	61.292
15.0563	1072.088	61.3018
15.0583	1072.04	61.3115
15.0592	1061.12	61.3213
15.0603	1056.19	61.3311
15.0595	1055.77	61.34082
15.0626	1059.47	61.3506
15.0614	1071.41	61.3604
15.0625	1072.88	61.3701
15.0641	1066.03	61.3799
15.0638	1056.9	61.3896
15.0649	1050.394	61.3994
15.0655	1058.86	61.40918
15.0674	1067.39	61.4189
15.0677	1071.5	61.4287
15.0672	1066.36	61.4385
15.0691	1059.73	61.4482
15.0696	1055.56	61.458
15.07081	1053.51	61.4678
15.0716	1063.18	61.4775
15.073	1069.07	61.4873
15.0734	1070.19	61.49707
15.0737	1064.43	61.5068
15.0748	1054.35	61.5166
15.0767	1051.618	61.5264
15.0766	1060.74	61.5361
15.077	1068.26	61.5459
15.078	1066.69	61.5557
15.07964	1063.632	61.56543
15.0798	1055.7	61.5752
15.0805	1053.77	61.585
15.0821	1054.82	61.5947
15.0824	1062.01	61.6045
15.0828	1070.18	61.6143
15.0841	1065.96	61.624
15.0838	1057.23	61.6338
15.0853	1051.78	61.6436
15.0869	1049.17	61.65332
15.0868	1055.32	61.6631
15.0956	-80.6077	61.6729
15.096	6.40938	61.6826
15.0959	-39.7128	61.6924
15.0956	-36.3911	61.7021
15.095	-49.1933	61.7119
15.0962	-49.5508	61.72168
15.0952	-31.4457	61.7314
15.0955	-30.3242	61.7412
15.09842	-30.7448	61.751
15.09746	-40.5211	61.7607
15.0985	-47.6176	61.7705
15.0993	-47.6045	61.7803
15.0998	-41.8058	61.79
15.10161	-33.2046	61.7998
15.101	-31.2378	61.80957
15.1027	-35.24622	61.8193
15.1026	-46.4684	61.8291
15.1026	-50.85973	61.8389
15.1035	-46.6035	61.8486
15.1048	-34.6437	61.8584
15.1048	-28.11804	61.8682
15.1066	-34.17234	61.87793
15.1063	-42.82465	61.8877
15.1077	-49.3851	61.8975
15.108	-48.2675	61.9072
15.1097	-39.7721	61.917
15.11	-32.3764	61.9268
15.1119	-28.0023	61.9365
15.1109	-37.1105	61.9463
15.1129	-49.9053	61.9561
15.11288	-50.63599	61.96582
15.1137	-44.0924	61.9756
15.1149	-32.3641	61.9854
15.1159	-28.77	61.9951
15.1167	-36.9522	62.0049
15.1179	-44.8727	62.0146
15.1184	-51.1126	62.0244
15.1198	-46.9821	62.03418
15.1197	-35.5011	62.0439
15.1208	-30.1162	62.0537
15.1219	-30.2505	62.0635
15.1221	-40.2569	62.0732
15.1222	-51.806	62.083
15.123	-48.3652	62.0928
15.1246	-39.8268	62.1025
15.1249	-30.4321	62.1123
15.1258	-32.6284	62.12207
15.127	-38.9487	62.1318
15.1277	-44.7404	62.1416
15.1283	-50.81218	62.1514
15.12925	-43.8309	62.1611
15.1302	-34.9954	62.1709
15.1306	-30.85648	62.1807
15.1317	-34.4058	62.19043
15.1319	-45.58532	62.2002
15.133	-49.5958	62.21
15.1336	-44.25275	62.2197
15.1354	-38.1252	62.2295
15.1364	-33.0864	62.2393
15.1362	-34.7744	62.249
15.1378	-39.5922	62.2588
15.1384	-45.5892	62.2686
15.13956	-48.7944	62.27832
15.14	-42.0384	62.2881
15.14079	-32.0297	62.2979
15.1406	-30.8878	62.3076
15.1422	-36.8707	62.3174
15.1429	-45.1614	62.3271
15.1446	-48.2807	62.3369
15.1447	-42.8241	62.34668
15.145	-36.8709	62.3564
15.1467	-33.8642	62.3662
15.14682	-33.966	62.376
15.1476	-40.1966	62.3857
15.1495	-47.5963	62.3955
15.149	-48.6401	62.4053
15.15	-40.3063	62.415
15.1517	-32.0525	62.4248
15.1527	-34.5876	62.43457
15.1528	-37.1017	62.4443
15.1538	-46.6742	62.4541
15.1545	-46.7241	62.4639
15.156	-43.1727	62.4736
15.1575	-39.1164	62.4834
15.1577	-32.0402	62.4932
15.1575	-33.5675	62.50293
15.1583	-41.9668	62.5127
15.1593	-48.7045	62.5225
15.15926	-48.8858	62.5322
15.1614	-38.7021	62.542
15.1622	-31.21121	62.5518
15.1623	-32.5343	62.5615
15.163	-40.6258	62.5713
15.1646	-46.2426	62.5811
15.16505	-47.0108	62.59082
15.1655	-45.0199	62.6006
15.167	-34.6265	62.6104
15.1674	-29.9701	62.6201
15.1679	-36.2628	62.6299
15.1683	-46.2084	62.6396
15.16896	-50.3081	62.6494
15.1708	-46.8807	62.65918
15.1707	-36.1971	62.6689
15.1718	-30.9726	62.6787
15.1728	-36.7177	62.6885
15.1745	-42.2146	62.6982
15.1755	-48.3968	62.708
15.1756	-49.1712	62.7178
15.1773	-41.4324	62.7275
15.1768	-34.3629	62.7373
15.1778	-31.2872	62.74707
15.1788	-38.41814	62.7568
15.1803	-49.5837	62.7666
15.18	-49.5361	62.7764
15.1815	-43.1784	62.7861
15.1818	-33.0545	62.7959
15.1827	-34.3498	62.8057
15.184	-37.6762	62.81543
15.1838	-43.0056	62.8252
15.1862	-48.6303	62.835
15.1855	-44.1499	62.8447
15.1869	-39.4686	62.8545
15.1883	-32.8635	62.8643
15.1887	-32.5268	62.874
15.19018	-42.3952	62.8838
15.1903	-47.94619	62.8936
15.1911	-45.9433	62.90332
15.1914	-41.2073	62.9131
15.1933	-34.8853	62.9229
15.194	-34.2827	62.9326
15.1936	-37.1995	62.9424
15.1949	-43.368	62.9521
15.1962	-49.3039	62.9619
15.1967	-45.6476	62.97168
15.198	-37.1419	62.9814
15.1992	-31.71678	62.9912
15.1986	-34.9117	63.001
15.2006	-41.6776	63.0107
15.2002	-47.602	63.0205
15.2013	-46.1193	63.0303
15.2015	-41.2809	63.04
15.204	-35.6268	63.0498
15.2039	-34.2497	63.05957
15.2053	-35.4804	63.0693
15.2054	-45.518	63.0791
15.2069	-50.6255	63.0889
15.207	-43.0327	63.0986
15.20919	-35.1097	63.1084
15.2091	-33.9194	63.1182
15.2101	-35.4323	63.12793
15.2114	-43.9673	63.1377
15.2112	-46.97	63.1475
15.2107	-45.3812	63.1572
15.214	-42.8003	63.167
15.2136	-32.9001	63.1768
15.215	-33.1731	63.1865
15.2149	-39.2932	63.1963
15.2166	-48.2178	63.2061
15.2168	-50.375	63.21582
15.2169	-41.0835	63.2256
15.2194	-33.4844	63.2354
15.21912	-31.1875	63.2451
15.2197	-37.47139	63.2549
15.2215	-45.631	63.2646
15.2221	-47.1424	63.2744
15.2229	-46.7986	63.28418
15.2239	-37.4202	63.2939
15.2241	-31.4552	63.3037
15.2256	-34.1722	63.3135
15.2257	-43.441	63.3232
15.2267	-50.6362	63.333
15.2272	-48.3221	63.3428
15.2281	-37.15522	63.3525
15.2295	-33.80373	63.3623
15.2297	-34.4454	63.37207
15.2297	-39.9137	63.3818
15.2308	-46.7567	63.3916
15.2324	-49.3553	63.4014
15.2332	-43.932	63.4111
15.23351	-36.8923	63.4209
15.2346	-31.2182	63.4307
15.2358	-36.10619	63.44043
15.23646	-46.0408	63.4502
15.2383	-50.4764	63.46
15.2385	-46.3083	63.4697
15.2395	-36.0002	63.4795
15.2394	-34.9322	63.4893
15.2405	-35.1117	63.499
15.2412	-40.7042	63.5088
15.2425	-47.2904	63.5186
15.2426	-47.7484	63.52832
15.244	-42.90015	63.5381
15.2453	-33.9351	63.5479
15.245	-32.2319	63.5576
15.2475	-39.5833	63.5674
15.2473	-45.28344	63.5771
15.2472	-47.9783	63.5869
15.2489	-44.58	63.59668
15.2491	-37.2257	63.6064
15.25	-35.8003	63.6162
15.2505	-36.2164	63.626
15.2514	-39.0069	63.6357
15.2523	-47.3344	63.6455
15.2551	-47.4724	63.6553
15.255	-40.48822	63.665
15.2542	-33.6951	63.6748
15.2556	-35.0744	63.68457
15.2569	-39.6752	63.6943
15.2569	-46.5877	63.7041
15.2584	-47.4771	63.7139
15.2601	-42.8137	63.7236
15.2599	-37.9218	63.7334
15.26063	-34.6	63.7432
15.2609	-32.8116	63.75293
15.2627	-42.7681	63.7627
15.263	-51.3861	63.7725
15.2646	-47.542	63.7822
15.2645	-37.4637	63.792
15.266	-32.7361	63.8018
15.2676	-33.00267	63.8115
15.26726	-41.9535	63.8213
15.26848	-46.1058	63.8311
15.269	-47.6242	63.84082
15.2699	-45.2851	63.8506
15.2712	-35.0827	63.8604
15.272	-32.1547	63.8701
15.2722	-35.2474	63.8799
15.2726	-45.9596	63.8896
15.2741	-51.1314	63.8994
15.2748	-45.13718	63.90918
15.2752	-37.7993	63.9189
15.2773	-29.5801	63.9287
15.2773	-36.8378	63.9385
15.2774	-43.2492	63.9482
15.27828	-47.0825	63.958
15.2792	-48.2965	63.9678
15.2806	-40.1519	63.9775
15.2817	-32.3981	63.9873
15.2832	-32.2222	63.99707
15.2829	-40.6844	64.0068
15.2843	-49.8362	64.0166
15.2845	-50.1755	64.0264
15.285	-41.1921	64.0361
15.2853	-36.4928	64.0459
15.2876	-32.7476	64.0557
15.2887	-37.7888	64.06543
15.2869	-45.639	64.0752
15.2899	-48.4913	64.085
15.2903	-47.39241	64.0947
15.2912	-38.3321	64.1045
15.2921	-31.71336	64.1143
15.2928	-34.6895	64.124
15.2933	-43.5115	64.1338
15.2952	-48.894	64.1436
15.29538	-45.3628	64.15332
15.2958	-40.00544	64.1631
15.297	-36.4763	64.1729
15.2974	-33.5205	64.1826
15.2989	-38.7398	64.1924
15.2991	-46.7993	64.2021
15.29968	-47.1102	64.2119
15.3001	-45.6399	64.22168
15.3015	-37.3388	64.2314
15.302	-31.7784	64.2412
15.3048	-37.8479	64.251
15.305	-42.8154	64.2607
15.3043	-49.1322	64.2705
15.3053	-46.0498	64.2803
15.3066	-41.3347	64.29
15.3076	-38.0014	64.2998
15.3082	-33.449	64.30957
15.309	-37.1758	64.3193
15.30947	-46.1061	64.3291
15.3104	-48.8453	64.3389
15.3116	-45.8612	64.3486
15.3137	-35.9043	64.3584
15.3143	-34.9963	64.3682
15.3137	-37.0106	64.37793
15.3146	-44.1735	64.3877
15.3156	-49.1159	64.3975
15.3171	-46.0513	64.4072
15.3168	-41.3411	64.417
15.3176	-35.0287	64.4268
15.3187	-32.0739	64.4365
15.3194	-40.1668	64.4463
15.3199	-50.3544	64.4561
15.3211	-51.0872	64.46582
15.3224	-43.7556	64.4756
15.3228	-34.0295	64.4854