File: data/processed_data_files/tensile/0.254_solid_uprint_typei_090_r(3).dat
MTS793|BTW|ENU|1|2|.|/|:|1|0|0|A

Data Header:			0.254_solid_uprint_typei_090_r0			Time:	20.0178	s	4/15/2019 2:53:37 PM
Data Acquisition:	Timed
Station Name:	ft40.cfg
Test File Name:	monotonic_0.2540_typei_solid_090_uprint.tst
Displacement	Force	Running Time
mm	N	s
9.98133	-163.64	0.0227051
9.98157	-158.625	0.0422363
9.98213	-154.766	0.0617676
9.98339	-158.716	0.0812988
9.98482	-160.638	0.10083
9.9865	-154.148	0.120361
9.98864	-152.042	0.139893
9.99028	-159.7291	0.159424
9.99278	-150.356	0.178955
9.9939	-147.449	0.198486
9.99466	-153.257	0.218018
9.997303	-153.211	0.237549
9.99754	-142.107	0.25708
9.99983	-151.615	0.276611
10.0006	-145.21	0.296143
10.0028	-137.823	0.315674
10.005	-146.189	0.335205
10.0057	-151.706	0.354736
10.0075	-135.107	0.374268
10.0103	-140.444	0.393799
10.0111	-145.82	0.41333
10.0125	-134.086	0.432861
10.0153	-135.866	0.452393
10.0169	-142.652	0.471924
10.0168	-132.265	0.491455
10.02012	-132.621	0.510986
10.0214	-138.798	0.530518
10.0227	-130.508	0.550049
10.0241	-126.347	0.56958
10.025	-135.9812	0.589111
10.0275	-131.273	0.608643
10.0293	-122.409	0.628174
10.0299	-128.795	0.647705
10.0317	-127.5406	0.667236
10.034	-122.5012	0.686768
10.0354	-125.542	0.706299
10.0375	-127.6776	0.72583
10.0378	-116.544	0.745361
10.0405	-119.25	0.764893
10.0424	-124.0872	0.784424
10.04231	-117.844	0.803955
10.0461	-112.8731	0.823486
10.0466	-121.874	0.843018
10.0486	-114.809	0.862549
10.0506	-109.287	0.88208
10.0519	-115.08	0.901611
10.0541	-115.762	0.921143
10.0554	-105.5407	0.940674
10.0567	-113.978	0.960205
10.0578	-110.483	0.979736
10.0601	-102.043	0.999268
10.0615	-105.002	1.0188
10.06321	-112.184	1.03833
10.0655	-99.7436	1.05786
10.067	-100.848	1.07739
10.0685	-104.952	1.09692
10.0705	-98.4231	1.11646
10.0717	-96.2735	1.13599
10.0726	-106.985	1.15552
10.074	-95.2893	1.17505
10.0756	-90.9482	1.19458
10.078	-100.924	1.21411
10.0788	-94.7091	1.23364
10.0815	-88.6665	1.25317
10.08272	-96.0243	1.27271
10.0846	-95.1612	1.29224
10.0862	-86.4472	1.31177
10.0877	-89.2752	1.3313
10.09035	-91.0553	1.35083
10.0904	-85.1599	1.37036
10.0921	-83.8481	1.38989
10.0951	-89.9668	1.40942
10.0947	-78.9452	1.42896
10.0987	-79.474	1.44849
10.099	-84.27655	1.46802
10.1006	-82.8592	1.48755
10.1028	-73.1242	1.50708
10.104	-83.5294	1.52661
10.1072	-77.9122	1.54614
10.1074	-71.5422	1.56567
10.10897	-75.1765	1.58521
10.1107	-80.0241	1.60474
10.112	-66.3992	1.62427
10.1143	-73.49501	1.6438
10.1151	-74.8923	1.66333
10.117	-65.2853	1.68286
10.119	-65.0906	1.70239
10.11978	-75.4791	1.72192
10.1213	-63.308	1.74146
10.1239	-64.5502	1.76099
10.1249	-68.1534	1.78052
10.1268	-62.3317	1.80005
10.12813	-57.1124	1.81958
10.129	-69.8616	1.83911
10.1322	-59.9699	1.85864
10.1337	-52.6301	1.87817
10.1354	-60.6694	1.89771
10.1359	-59.23814	1.91724
10.1389	-52.1432	1.93677
10.1402	-55.0601	1.9563
10.1421	-56.1129	1.97583
10.1425	-48.0341	1.99536
10.1439	-50.3663	2.01489
10.146	-52.0647	2.03442
10.1464	-48.3585	2.05396
10.1505	-43.7803	2.07349
10.1508	-53.93811	2.09302
10.1522	-43.6315	2.11255
10.1543	-36.8942	2.13208
10.1569	-45.9852	2.15161
10.1571	-46.9566	2.17114
10.1596	-35.4411	2.19067
10.1614	-42.79097	2.21021
10.1643	-40.0671	2.22974
10.1639	-33.3617	2.24927
10.1643	-36.6683	2.2688
10.1673	-41.5608	2.28833
10.169	-28.9099	2.30786
10.171	-33.2025	2.32739
10.1711	-37.5914	2.34692
10.1741	-28.1942	2.36646
10.1757	-26.2565	2.38599
10.1777	-35.5024	2.40552
10.1785	-27.1494	2.42505
10.1803	-24.19352	2.44458
10.1824	-28.621	2.46411
10.1842	-24.0032	2.48364
10.1863	-19.5442	2.50317
10.18655	-27.9285	2.52271
10.18989	-25.594	2.54224
10.19	-16.8746	2.56177
10.193	-20.5408	2.5813
10.1942	-22.3651	2.60083
10.1953	-15.2989	2.62036
10.196	-15.3949	2.63989
10.1981	-19.3572	2.65942
10.2008	-11.5429	2.67896
10.201	-11.15602	2.69849
10.2037	-14.7612	2.71802
10.20557	-11.9196	2.73755
10.2063	-4.464891	2.75708
10.208	-14.5691	2.77661
10.21	-8.34548	2.79614
10.2108	-0.229975	2.81567
10.2132	-5.43986	2.83521
10.2149	-10.0886	2.85474
10.2161	2.70113	2.87427
10.21807	-3.116163	2.8938
10.2192	-5.26589	2.91333
10.2205	4.38723	2.93286
10.2228	4.37355	2.95239
10.22425	-6.3464	2.97192
10.22621	8.8685	2.99146
10.228	10.9203	3.01099
10.22894	2.43465	3.03052
10.2308	7.39743	3.05005
10.233	12.5739	3.06958
10.2344	3.97141	3.08911
10.2364	11.41445	3.10864
10.2363	16.2674	3.12817
10.2392	10.7375	3.14771
10.2414	11.1897	3.16724
10.2421	19.9	3.18677
10.2442	12.9332	3.2063
10.2452	11.9365	3.22583
10.24721	23.3678	3.24536
10.2488	22.5452	3.26489
10.2501	16.673	3.28442
10.2525	20.5072	3.30396
10.2539	24.6639	3.32349
10.25534	18.3337	3.34302
10.2563	25.73	3.36255
10.2589	30.9068	3.38208
10.26022	24.262	3.40161
10.2628	24.7954	3.42114
10.2636	36.3817	3.44067
10.2645	27.8908	3.46021
10.267	30.5656	3.47974
10.268	37.2182	3.49927
10.2696	36.0495	3.5188
10.2705	28.6642	3.53833
10.2737	41.3121	3.55786
10.27474	36.8811	3.57739
10.277	34.9098	3.59692
10.2781	44.3661	3.61646
10.2807	46.7106	3.63599
10.2825	35.1931	3.65552
10.2832	44.21032	3.67505
10.285	48.6421	3.69458
10.2869	43.165	3.71411
10.288	44.6255	3.73364
10.2902	52.568	3.75317
10.2916	44.0075	3.77271
10.2923	49.6678	3.79224
10.2941	55.6635	3.81177
10.2962	51.1967	3.8313
10.2977	48.4147	3.85083
10.2992	58.5114	3.87036
10.3008	55.4536	3.88989
10.3027	52.03891	3.90942
10.304	58.66	3.92896
10.3062	63.2306	3.94849
10.3071	56.7977	3.96802
10.3087	61.1748	3.98755
10.3097	67.1884	4.00708
10.3118	59.3623	4.02661
10.31338	63.9381	4.04614
10.3167	71.3008	4.06567
10.3175	65.55201	4.08521
10.3167	59.5137	4.10474
10.3206	73.71685	4.12427
10.3226	70.1154	4.1438
10.323	67.0416	4.16333
10.3246	75.0277	4.18286
10.32618	76.6732	4.20239
10.3283	67.1052	4.22192
10.3298	79.5119	4.24146
10.3319	78.5995	4.26099
10.3335	73.4228	4.28052
10.3361	79.7754	4.30005
10.3367	86.2771	4.31958
10.33842	73.8336	4.33911
10.3395	80.9153	4.35864
10.3417	88.5467	4.37817
10.34294	83.7222	4.39771
10.3443	82.4617	4.41724
10.3459	91.1558	4.43677
10.348	84.68454	4.4563
10.3501	83.7823	4.47583
10.3519	93.7311	4.49536
10.352	93.9252	4.51489
10.3548	87.42543	4.53442
10.3551	94.4449	4.55396
10.35707	96.4623	4.57349
10.35903	92.24324	4.59302
10.3613	96.8473	4.61255
10.3622	101.682	4.63208
10.3645	96.7389	4.65161
10.36553	97.8347	4.67114
10.3673	103.749	4.69067
10.3691	98.1514	4.71021
10.371	99.6833	4.72974
10.37175	111.421	4.74927
10.3742	106.683	4.7688
10.3755	99.7257	4.78833
10.3773	111.469	4.80786
10.379	110.473	4.82739
10.3814	107.444	4.84692
10.38168	114.192	4.86646
10.3843	116.012	4.88599
10.386	104.7842	4.90552
10.3872	115.075	4.92505
10.389	119.959	4.94458
10.39007	113.013	4.96411
10.3919	115.442	4.98364
10.3932	125.718	5.00317
10.3956	115.486	5.02271
10.3977	119.092	5.04224
10.3978	125.5236	5.06177
10.3992	123.869	5.0813
10.4016	121.883	5.10083
10.4033	130.783	5.12036
10.4047	125.182	5.13989
10.4062	123.602	5.15942
10.40872	131.579	5.17896
10.4101	135.664	5.19849
10.4117	127.288	5.21802
10.4129	131.249	5.23755
10.415	136.069	5.25708
10.4164	131.821	5.27661
10.4188	133.114	5.29614
10.41957	139.952	5.31567
10.4211	136.208	5.33521
10.4232	133.977	5.35474
10.42417	143.4767	5.37427
10.4263	140.259	5.3938
10.428	137.062	5.41333
10.4285	146.33	5.43286
10.431	148.064	5.45239
10.4333	136.887	5.47192
10.4348	147.4563	5.49146
10.4366	149.5144	5.51099
10.4391	143.935	5.53052
10.4391	148.681	5.55005
10.4415	155.638	5.56958
10.4423	143.203	5.58911
10.4436	152.631	5.60864
10.4451	160.384	5.62817
10.4474	152.926	5.64771
10.4495	150.595	5.66724
10.4514	162.722	5.68677
10.45179	155.911	5.7063
10.4525	155.19	5.72583
10.4561	161.892	5.74536
10.4584	164.5049	5.76489
10.4581	158.36	5.78442
10.4606	165.507	5.80396
10.4622	166.4669	5.82349
10.4633	161.593	5.84302
10.4656	166.9211	5.86255
10.4678	174.402	5.88208
10.4686	166.348	5.90161
10.4702	167.067	5.92114
10.4721	173.679	5.94067
10.4735	171.846	5.96021
10.4754	170.657	5.97974
10.4766	180.56	5.99927
10.4784	176.363	6.0188
10.4793	170.388	6.03833
10.4816	180.7451	6.05786
10.4833	180.678	6.07739
10.4847	174.575	6.09692
10.4859	183.381	6.11646
10.4879	188.738	6.13599
10.4892	176.744	6.15552
10.4913	185.306	6.17505
10.4933	190.187	6.19458
10.4952	184.851	6.21411
10.4961	187.474	6.23364
10.4984	195.724	6.25317
10.5004	184.629	6.27271
10.5013	187.713	6.29224
10.502	197.321	6.31177
10.504	195.2807	6.3313
10.506	191.199	6.35083
10.5075	200.326	6.37036
10.509	195.25	6.38989
10.5111	194.612	6.40942
10.5115	201.322	6.42896
10.5143	204.532	6.44849
10.5158	196.54	6.46802
10.5172	202.9035	6.48755
10.51884	206.537	6.50708
10.521	201.634	6.52661
10.5221	202.455	6.54614
10.5235	213.267	6.56567
10.5255	206.746	6.58521
10.5265	205.536	6.60474
10.52983	212.14	6.62427
10.5298	211.403	6.6438
10.5314	206.398	6.66333
10.5338	219.417	6.68286
10.5352	218.45	6.70239
10.5372	208.335	6.72192
10.5384	218.632	6.74146
10.54	222.368	6.76099
10.5418	214.565	6.78052
10.54373	219.67	6.80005
10.546	228.138	6.81958
10.5464	217.145	6.83911
10.54792	222.612	6.85864
10.5502	229.51	6.87817
10.5522	224.926	6.89771
10.5535	222.455	6.91724
10.5548	235.74	6.93677
10.5563	225.9	6.9563
10.5584	225.491	6.97583
10.5601	232.157	6.99536
10.5614	234.835	7.01489
10.5636	227.876	7.03442
10.5638	237.484	7.05396
10.568	233.89	7.07349
10.5686	233.382	7.09302
10.5691	236.293	7.11255
10.5711	244.663	7.13208
10.5728	235.58	7.15161
10.5744	239.604	7.17114
10.5759	244.63	7.19067
10.5774	242.95	7.21021
10.5784	238.085	7.22974
10.5802	249.34	7.24927
10.5826	246.973	7.2688
10.5846	243.834	7.28833
10.5851	249.1543	7.30786
10.5872	251.495	7.32739
10.5891	245.319	7.34692
10.591	253.465	7.36646
10.5932	258.09	7.38599
10.5941	246.6479	7.40552
10.5969	252.538	7.42505
10.598	260.786	7.44458
10.5984	254.869	7.46411
10.60112	255.148	7.48364
10.6031	266.341	7.50317
10.6024	254.981	7.52271
10.6045	258.3067	7.54224
10.6075	268.553	7.56177
10.6074	263.6445	7.5813
10.6113	258.807	7.60083
10.6115	272.575	7.62036
10.6137	266.6593	7.63989
10.6145	265.856	7.65942
10.6165	269.997	7.67896
10.6186	274.174	7.69849
10.6188	267.629	7.71802
10.6212	274.425	7.73755
10.6238	274.042	7.75708
10.6247	271.692	7.77661
10.6261	272.703	7.79614
10.6291	284.105	7.81567
10.6304	276.761	7.83521
10.6314	274.7507	7.85474
10.6321	282.399	7.87427
10.6343	282.52	7.8938
10.6364	276.573	7.91333
10.6375	287.721	7.93286
10.63852	287.492	7.95239
10.6424	280.685	7.97192
10.6424	287.026	7.99146
10.6442	292.648	8.01099
10.6465	283.591	8.03052
10.647	289.266	8.05005
10.6489	297.184	8.06958
10.6509	287.412	8.08911
10.6526	288.731	8.10864
10.6541	298.956	8.12817
10.6549	295.081	8.14771
10.6572	295.631	8.16724
10.65949	303.137	8.18677
10.6599	294.963	8.2063
10.6625	293.8765	8.22583
10.664	305.107	8.24536
10.6648	305.903	8.26489
10.667	297.131	8.28442
10.6691	307.749	8.30396
10.6707	306.52	8.32349
10.6725	303.2182	8.34302
10.6737	305.051	8.36255
10.6749	313.498	8.38208
10.6768	306.059	8.40161
10.6783	310.423	8.42114
10.6801	314.325	8.44067
10.682	311.21	8.46021
10.6838	308.192	8.47974
10.6842	322.073	8.49927
10.6866	316.923	8.5188
10.6887	311.724	8.53833
10.6905	318.019	8.55786
10.692	322.829	8.57739
10.6935	316.091	8.59692
10.69486	324.501	8.61646
10.6966	326.628	8.63599
10.6981	316.292	8.65552
10.6998	324.3472	8.67505
10.7002	331.301	8.69458
10.7025	321.62	8.71411
10.7049	324.528	8.73364
10.7065	335.868	8.75317
10.7083	325.634	8.77271
10.7095	324.248	8.79224
10.7107	336.622	8.81177
10.7117	333.471	8.8313
10.7144	329.515	8.85083
10.7158	340.985	8.87036
10.7173	334.552	8.88989
10.7194	330.937	8.90942
10.7216	339.907	8.92896
10.7219	345.421	8.94849
10.7235	336.102	8.96802
10.7253	342.113	8.98755
10.7284	344.244	9.00708
10.7292	341.894	9.02661
10.7301	341.4364	9.04614
10.7321	351.826	9.06567
10.7338	344.781	9.08521
10.7351	346.51	9.10474
10.7378	352.695	9.12427
10.7378	351.6265	9.1438
10.7411	344.134	9.16333
10.74154	356.47	9.18286
10.7434	356.762	9.20239
10.745	348.323	9.22192
10.7463	353.881	9.24146
10.7484	362.456	9.26099
10.7498	352.184	9.28052
10.7513	359.905	9.30005
10.752	366.789	9.31958
10.75465	354.7818	9.33911
10.7559	356.979	9.35864
10.7576	370.428	9.37817
10.76	361.39	9.39771
10.76129	360.111	9.41724
10.7625	371.722	9.43677
10.7647	366.075	9.4563
10.7665	362.1698	9.47583
10.76827	373.694	9.49536
10.77	372.822	9.51489
10.7708	365.614	9.53442
10.773	376.8476	9.55396
10.775	375.3808	9.57349
10.7749	368.435	9.59302
10.7777	374.751	9.61255
10.7803	383.437	9.63208
10.78106	373.254	9.65161
10.783	376.694	9.67114
10.7837	381.959	9.69067
10.786	379.613	9.71021
10.7872	377.919	9.72974
10.7888	389.146	9.74927
10.7918	385.097	9.7688
10.7926	379.671	9.78833
10.7947	389.433	9.80786
10.7955	393.06	9.82739
10.7974	380.984	9.84692
10.7987	392.818	9.86646
10.7998	396.723	9.88599
10.80195	387.777	9.90552
10.8038	390.585	9.92505
10.8054	401.168	9.94458
10.8067	389.491	9.96411
10.8079	395.139	9.98364
10.8101	403.7363	10.0032
10.8117	396.129	10.0227
10.8134	391.718	10.0422
10.8154	407.125	10.0618
10.81619	403.051	10.0813
10.8175	398.43	10.10083
10.81941	407.417	10.1204
10.8208	404.5	10.1399
10.8233	398.078	10.1594
10.8249	410.1377	10.179
10.826	411.91	10.1985
10.8276	401.628	10.218
10.8301	411.76	10.2375
10.831	415.227	10.25708
10.8327	407.1015	10.2766
10.8338	409.29	10.2961
10.8365	420.487	10.3157
10.8365	413.486	10.3352
10.83962	414.124	10.3547
10.8409	419.8157	10.3743
10.8419	419.249	10.3938
10.8439	412.315	10.41333
10.84571	426.3916	10.4329
10.8475	425.852	10.4524
10.8492	417.189	10.4719
10.8503	422.487	10.4915
10.8535	431.7937	10.511
10.8537	418.847	10.5305
10.8556	426.685	10.55
10.8582	432.831	10.56958
10.8588	427.08	10.5891
10.8599	425.937	10.6086
10.8627	438.534	10.6282
10.8642	428.67	10.6477
10.8652	429.521	10.6672
10.8663	441.501	10.6868
10.868	436.43	10.7063
10.8699	428.18	10.72583
10.872	441.971	10.7454
10.8735	440.177	10.7649
10.8744	434.2146	10.7844
10.8768	442.367	10.804
10.8784	443.582	10.8235
10.8795	434.808	10.843
10.8814	444.571	10.8625
10.8828	450.903	10.88208
10.8854	439.842	10.9016
10.8865	444.638	10.9211
10.8885	452.426	10.9407
10.8896	446.852	10.9602
10.8904	444.251	10.9797
10.89272	456.189	10.9993
10.894	452.328	11.0188
10.8963	448.567	11.03833
10.899	455.841	11.0579
10.899	457.347	11.0774
10.9017	447.9119	11.0969
10.9038	460.752	11.1165
10.9042	463.704	11.136
10.9057	453.3486	11.1555
10.9086	456.163	11.175
10.9094	468.836	11.19458
10.9107	457.093	11.2141
10.9118	459.926	11.2336
10.9134	470.793	11.2532
10.9153	462.975	11.2727
10.918	459.612	11.2922
10.91949	474.483	11.3118
10.9207	466.204	11.3313
10.9218	464.208	11.35083
10.9239	475.422	11.3704
10.9256	472.989	11.3899
10.9263	463.6994	11.4094
10.9288	473.945	11.429
10.9302	477.975	11.4485
10.9319	469.007	11.468
10.9331	477.661	11.4875
10.9342	480.627	11.50708
10.9362	471.083	11.5266
10.9382	476.294	11.5461
10.9413	488.095	11.5657
10.9417	479.79	11.5852
10.9436	479.262	11.6047
10.9452	488.361	11.6243
10.9468	485.143	11.6438
10.948	481.236	11.66333
10.9507	491.055	11.6829
10.9518	488.845	11.7024
10.9533	483.4906	11.7219
10.95502	490.622	11.7415
10.9567	496.482	11.761
10.9576	483.58	11.7805
10.9604	493.892	11.8
10.9607	502.11	11.81958
10.9626	491.99	11.8391
10.9651	491.69	11.8586
10.9666	505.06	11.8782
10.9676	495.82	11.8977
10.9687	494.924	11.9172
10.9705	506.518	11.9368
10.9729	501.35	11.9563
10.9739	492.216	11.97583
10.976	509.585	11.9954
10.9776	508.195	12.0149
10.9795	499.067	12.0344
10.9817	507.529	12.054
10.982	512.113	12.0735
10.9828	500.414	12.093
10.9864	510.283	12.1125
10.9881	515.201	12.13208
10.9879	506.404	12.1516
10.99	511.913	12.1711
10.9925	518.096	12.1907
10.9938	509.174	12.2102
10.9953	509.631	12.2297
10.9961	521.798	12.2493
10.9984	519.158	12.2688
11.0002	513.735	12.28833
11.003	520.444	12.3079
11.0039	522.642	12.3274
11.0055	514.57	12.3469
11.007	526.393	12.3665
11.00904	526.779	12.386
11.0103	520.126	12.4055
11.0107	521.937	12.425
11.013	533.534	12.44458
11.0146	520.951	12.4641
11.01624	527.04	12.4836
11.018	536.02	12.5032
11.02	529.162	12.5227
11.0211	523.163	12.5422
11.02284	540.39	12.5618
11.025	530.657	12.5813
11.0266	529.11	12.60083
11.0277	541.678	12.6204
11.0299	539.049	12.6399
11.032	527.402	12.6594
11.03265	542.86	12.679
11.0344	543.438	12.6985
11.0352	534.014	12.718
11.0375	540.621	12.7375
11.039	549.111	12.75708
11.04015	536.575	12.7766
11.043	544.114	12.7961
11.0441	553.414	12.8157
11.0463	542.195	12.8352
11.0473	543.735	12.8547
11.0495	553.164	12.8743
11.0519	548.184	12.8938
11.0527	542.119	12.91333
11.0541	554.796	12.9329
11.0554	554.386	12.9524
11.0576	548.636	12.9719
11.05892	553.852	12.9915
11.06	559.23	13.011
11.0629	549.328	13.0305
11.0636	558.769	13.05
11.0661	564.606	13.06958
11.0668	554.784	13.0891
11.06828	554.371	13.1086
11.07	568.777	13.1282
11.0721	557.668	13.1477
11.0738	558.549	13.1672
11.0751	569.187	13.1868
11.0779	565.7467	13.2063
11.0786	558.29	13.22583
11.0803	573.0296	13.2454
11.0813	569.153	13.2649
11.0842	562.629	13.2844
11.0848	574.047	13.304
11.086	576.648	13.3235
11.0882	563.327	13.343
11.0902	574.709	13.3625
11.0921	578.02	13.38208
11.0933	571.669	13.4016
11.0944	575.182	13.4211
11.0966	581.851	13.4407
11.0972	571.934	13.4602
11.0992	576.069	13.4797
11.1016	587.044	13.4993
11.1026	580.117	13.5188
11.1054	576.848	13.53833
11.1066	585.908	13.5579
11.1075	585.6131	13.5774
11.1102	577.508	13.5969
11.1103	587.833	13.6165
11.1125	590.598	13.636
11.114	582.73	13.6555
11.1167	587.386	13.675
11.1176	595.453	13.69458
11.1195	583.086	13.7141
11.12	589.5376	13.7336
11.1232	601.684	13.7532
11.1243	592.233	13.7727
11.1263	587.716	13.7922
11.1268	603.401	13.8118
11.1291	595.724	13.8313
11.1296	593.074	13.85083
11.1315	603.887	13.8704
11.1333	601.383	13.8899
11.1347	591.122	13.9094
11.1368	606.657	13.929
11.13961	606.693	13.9485
11.13954	598.1795	13.968
11.1425	604.14	13.9875
11.14454	612.796	14.00708
11.1449	599.674	14.0266
11.1456	604.602	14.0461
11.1484	611.486	14.0657
11.1501	607.004	14.0852
11.1521	607.58	14.1047
11.153	617.168	14.1243
11.1558	608.106	14.1438
11.1563	607.8692	14.16333
11.1581	618.968	14.1829
11.15988	618.992	14.2024
11.1615	610.054	14.2219
11.1631	617.363	14.2415
11.1644	621.14	14.261
11.1661	614.369	14.2805
11.1671	620.822	14.3
11.1699	626.035	14.31958
11.1719	619.291	14.3391
11.1731	620.045	14.3586
11.175	631.118	14.3782
11.1757	621.447	14.3977
11.178	620.821	14.4172
11.1795	634.27	14.4368
11.18063	630.027	14.4563
11.1833	619.536	14.47583
11.185	634.895	14.4954
11.1856	632.7276	14.5149
11.1877	626.331	14.5344
11.1891	635.605	14.554
11.19056	638.758	14.5735
11.1921	624.557	14.593
11.194	636.5827	14.6125
11.1955	642.247	14.63208
11.1977	632.086	14.6516
11.1996	635.1	14.6711
11.2009	645.718	14.6907
11.2016	637.004	14.7102
11.2032	639.121	14.7297
11.2059	648.589	14.7493
11.2077	643.217	14.7688
11.2086	639.371	14.78833
11.21023	650.5531	14.8079
11.2124	645.053	14.8274
11.2125	640.02	14.8469
11.2151	649.72	14.8665
11.2176	652.606	14.886
11.2184	644.465	14.9055
11.2187	647.604	14.925
11.2222	655.218	14.94458
11.2232	647.22	14.9641
11.2243	651.3689	14.9836
11.226	660.685	15.0032
11.22866	654.068	15.0227
11.2298	651.197	15.0422
11.2314	664.039	15.0618
11.2338	657.599	15.0813
11.235	654.392	15.10083
11.2361	664.154	15.1204
11.2382	665.5946	15.1399
11.2397	652.655	15.1594
11.2408	666.351	15.179
11.2421	668.3913	15.1985
11.2439	659.173	15.218
11.2457	668.931	15.2375
11.2481	673.482	15.25708
11.2492	660.626	15.2766
11.25069	667.84	15.2961
11.252	674.711	15.3157
11.2536	668.445	15.3352
11.2561	667.231	15.3547
11.2575	679.231	15.3743
11.26	669.932	15.3938
11.2605	669.56	15.41333
11.2618	678.904	15.4329
11.26358	678.159	15.4524
11.2656	670.473	15.4719
11.2672	681.449	15.4915
11.2682	681.261	15.511
11.2705	674.795	15.5305
11.2718	679.87	15.55
11.2734	686.404	15.56958
11.275	680.731	15.5891
11.277	680.8067	15.6086
11.279	687.432	15.6282
11.2807	681.5567	15.6477
11.2814	683.665	15.6672
11.2829	692.492	15.6868
11.2843	687.906	15.7063
11.2867	680.755	15.72583
11.288	694.953	15.7454
11.2902	692.433	15.7649
11.29103	685.868	15.7844
11.2928	695.202	15.804
11.294	698.419	15.8235
11.2955	686.538	15.843
11.2977	696.7348	15.8625
11.3005	700.078	15.88208
11.301	693.452	15.9016
11.3031	696.567	15.9211
11.3048	708.485	15.9407
11.3065	694.192	15.9602
11.3069	697.551	15.9797
11.3095	708.502	15.9993
11.3104	704.8692	16.0188
11.3119	698.778	16.03833
11.3142	710.374	16.0579
11.3161	705.582	16.0774
11.3178	703.581	16.0969
11.3191	710.205	16.1165
11.3203	714.025	16.136
11.322	704.369	16.1555
11.3242	710.701	16.175
11.3258	714.958	16.19458
11.32695	707.46	16.2141
11.32883	709.618	16.2336
11.3317	719.783	16.2532
11.3329	713.472	16.2727
11.3339	710.148	16.2922
11.3348	719.926	16.3118
11.3376	716.498	16.3313
11.3383	712.251	16.35083
11.3401	723.815	16.3704
11.3418	724.362	16.3899
11.343	711.255	16.4094
11.3456	725.438	16.429
11.3468	729.015	16.4485
11.3483	719.8302	16.468
11.3496	726.088	16.4875
11.352	732.977	16.50708
11.3541	720.058	16.5266
11.355	728.21	16.5461
11.3564	733.804	16.5657
11.3583	727.444	16.5852
11.3601	726.902	16.6047
11.3629	739.7951	16.6243
11.3629	728.801	16.6438
11.3641	728.203	16.66333
11.3665	737.6723	16.6829
11.3683	738.406	16.7024
11.3696	730.507	16.7219
11.37065	739.355	16.7415
11.3737	737.517	16.761
11.3745	733.297	16.7805
11.375	738.387	16.8
11.3771	747.893	16.81958
11.3789	736.517	16.8391
11.3806	738.646	16.8586
11.3814	746.827	16.8782
11.3849	742.884	16.8977
11.3854	741.086	16.9172
11.3883	750.291	16.9368
11.3894	746.895	16.9563
11.3901	738.941	16.97583
11.3932	751.97	16.9954
11.3949	750.725	17.0149
11.3957	743.92	17.0344
11.3972	754.66	17.054
11.3993	759.3858	17.0735
11.39943	743.655	17.093
11.4028	753.627	17.1125
11.405	759.674	17.13208
11.4055	753.094	17.1516
11.4067	754.561	17.1711
11.4088	765.551	17.1907
11.4106	751.386	17.2102
11.411	756.886	17.2297
11.4135	764.998	17.2493
11.4153	758.571	17.2688
11.4165	755.02	17.28833
11.419	768.073	17.3079
11.4199	765.621	17.3274
11.4223	760.129	17.3469
11.4236	765.6377	17.3665
11.4245	770.782	17.386
11.4259	761.806	17.4055
11.4275	767.867	17.425
11.4306	771.575	17.44458
11.4319	765.6311	17.4641
11.4336	768.552	17.4836
11.435	778.232	17.5032
11.4361	771.029	17.5227
11.4384	768.586	17.5422
11.43961	777.911	17.5618
11.442	774.81	17.5813
11.4428	770.613	17.60083
11.4446	779.5304	17.6204
11.4468	779.636	17.6399
11.4478	769.331	17.6594
11.4489	781.487	17.679
11.452	785.349	17.6985
11.4521	774.808	17.718
11.4537	781.416	17.7375
11.4559	791.307	17.75708
11.4577	776.142	17.7766
11.4585	780.755	17.7961
11.4607	790.423	17.8157
11.462	784.789	17.8352
11.4641	784.716	17.8547
11.4667	794.195	17.8743
11.4682	785.825	17.8938
11.4689	783.613	17.91333
11.4708	793.9	17.9329
11.4727	794.2431	17.9524
11.47409	786.679	17.9719
11.4756	795.217	17.9915
11.4767	795.71	18.011
11.4789	791.3316	18.0305
11.47955	794.356	18.05
11.48176	802.689	18.06958
11.484	793.489	18.0891
11.4858	796.672	18.1086
11.4862	802.435	18.1282
11.4883	796.474	18.1477
11.4899	794.516	18.1672
11.4921	808.522	18.1868
11.4939	803.8407	18.2063
11.4947	796.099	18.22583
11.4965	805.746	18.2454
11.4978	807.5293	18.2649
11.4994	800.536	18.2844
11.5028	808.185	18.304
11.5029	812.807	18.3235
11.5051	800.609	18.343
11.5063	808.478	18.3625
11.5078	815.39	18.38208
11.5098	806.03	18.4016
11.5111	807.274	18.4211
11.5133	820.117	18.4407
11.515	808.069	18.4602
11.5163	809.203	18.4797
11.5168	818.126	18.4993
11.5203	816.616	18.5188
11.5209	810.02	18.53833
11.5222	823.648	18.5579
11.5262	815.701	18.5774
11.5256	812.001	18.5969
11.5277	820.897	18.6165
11.5285	825.756	18.636
11.5301	813.784	18.6555
11.533	821.682	18.675
11.5345	823.194	18.69458
11.5359	819.609	18.7141
11.5373	820.283	18.7336
11.538	831.6059	18.7532
11.5409	823.984	18.7727
11.5426	821.612	18.7922
11.5444	830.031	18.8118
11.5454	829.44	18.8313
11.5466	821.8	18.85083
11.5492	834.263	18.8704
11.5503	833.5813	18.8899
11.5525	824.834	18.9094
11.5539	830.896	18.929
11.5551	836.7829	18.9485
11.557	828.282	18.968
11.55989	834.727	18.9875
11.5602	842.882	19.00708
11.5638	827.875	19.0266
11.5635	834.123	19.0461
11.5651	844.881	19.0657
11.5668	836.975	19.0852
11.5688	834.998	19.1047
11.5698	845.666	19.1243
11.5717	838.297	19.1438
11.57255	836.033	19.16333
11.5747	844.8764	19.1829
11.5762	845.109	19.2024
11.5776	837.325	19.2219
11.5801	849.141	19.2415
11.5808	847.379	19.261
11.5838	841.013	19.2805
11.5843	845.36	19.3
11.58578	853.857	19.31958
11.5878	844.159	19.3391
11.5889	847.097	19.3586
11.591	852.66	19.3782
11.5927	849.19	19.3977
11.5939	847.864	19.4172
11.5959	859.484	19.4368
11.5976	852.252	19.4563
11.5994	847.259	19.47583
11.6014	857.127	19.4954
11.60171	858.836	19.5149
11.6051	850.115	19.5344
11.6051	857.999	19.554
11.6073	862.865	19.5735
11.60864	851.788	19.593
11.6103	857.157	19.6125
11.6119	865.568	19.63208
11.6136	855.176	19.6516
11.6142	859.356	19.6711
11.6173	870.095	19.6907
11.6192	856.67	19.7102
11.6208	857.312	19.7297
11.6223	869.425	19.7493
11.6243	865.597	19.7688
11.6256	859.79	19.78833
11.62711	870.076	19.8079
11.6293	867.517	19.8274
11.6306	862.711	19.8469
11.6321	870.412	19.8665
11.6337	875.7182	19.886
11.6348	863.89	19.9055
11.6365	872.131	19.925
11.6384	874.682	19.94458
11.6409	869.31	19.9641
11.6414	868.021	19.9836
11.6434	879.796	20.0032
11.6452	876.17	20.0129

Data Header:			0.254_solid_uprint_typei_090_r0			Time:	29.741	s	4/15/2019 2:53:47 PM
Data Acquisition:	Timed
Station Name:	ft40.cfg
Test File Name:	monotonic_0.2540_typei_solid_090_uprint.tst
Displacement	Force	Running Time
mm	N	s
11.6448	871.5611	20.0227
11.6455	867.673	20.0325
11.6456	870.727	20.0422
11.64656	877.151	20.052
11.648	877.896	20.0618
11.64844	879.95	20.0715
11.6492	878.41	20.0813
11.6507	873.118	20.0911
11.6508	871.233	20.10083
11.6511	872.307	20.1106
11.6537	883.516	20.1204
11.6539	883.235	20.1301
11.6546	882.167	20.1399
11.655	874.644	20.1497
11.65588	871.717	20.1594
11.6577	878.176	20.1692
11.6592	879.337	20.179
11.658	885.948	20.1887
11.6601	885.065	20.1985
11.6595	880.036	20.2083
11.6603	876.352	20.218
11.6611	873.234	20.2278
11.6633	880.766	20.2375
11.663	889.935	20.2473
11.6635	888.751	20.25708
11.6651	882.378	20.2668
11.665	877.381	20.2766
11.6664	877.245	20.2864
11.6672	881.97	20.2961
11.6689	887.893	20.3059
11.66962	890.018	20.3157
11.6689	889.072	20.3254
11.6702	881.838	20.3352
11.6711	877.313	20.345
11.6728	881.367	20.3547
11.67371	888.352	20.3645
11.6737	894.568	20.3743
11.6749	890.483	20.384
11.6749	885.174	20.3938
11.6769	882.126	20.4036
11.677	882.707	20.41333
11.679	888.129	20.4231
11.6786	891.031	20.4329
11.6802	897.175	20.4426
11.6813	891.68	20.4524
11.6821	883.936	20.4622
11.6814	884.899	20.4719
11.683	885.5614	20.4817
11.6836	895.184	20.4915
11.6854	898.091	20.5012
11.6858	891.985	20.511
11.6864	890.331	20.5208
11.6869	886.4176	20.5305
11.6873	886.657	20.5403
11.6889	892.93	20.55
11.6896	895.4939	20.5598
11.6891	900.096	20.56958
11.6909	893.445	20.5793
11.6914	890.099	20.5891
11.6927	889.008	20.5989
11.6932	893.536	20.6086
11.6938	899.2149	20.6184
11.69564	898.685	20.6282
11.6956	898.714	20.6379
11.6966	896.608	20.6477
11.6974	891.796	20.6575
11.6993	892.355	20.6672
11.6996	897.897	20.677
11.7001	903.42	20.6868
11.6999	903.064	20.6965
11.70118	899.1048	20.7063
11.7023	892.238	20.7161
11.7042	895.467	20.72583
11.7045	898.4682	20.7356
11.705	900.759	20.7454
11.7047	906.7	20.7551
11.707	901.975	20.7649
11.7076	899.921	20.7747
11.708	894.476	20.7844
11.7094	895.728	20.7942
11.7099	904.052	20.804
11.7115	906.268	20.8137
11.7112	908.318	20.8235
11.7123	900.397	20.8333
11.7132	896.82	20.843
11.7139	899.939	20.8528
11.7146	900.969	20.8625
11.7156	910.306	20.8723
11.7157	910.337	20.88208
11.7162	906.57	20.8918
11.7185	900.086	20.9016
11.7193	896.146	20.9114
11.71828	903.226	20.9211
11.7205	911.448	20.9309
11.72126	911.595	20.9407
11.7218	910.536	20.9504
11.7232	902.509	20.9602
11.7231	902.825	20.97
11.7252	902.837	20.9797
11.7253	909.11	20.9895
11.7271	915.04	20.9993
11.7268	913.195	21.009
11.7277	909.908	21.0188
11.7281	900.62	21.0286
11.7286	901.574	21.03833
11.7302	909.596	21.0481
11.7314	916.804	21.0579
11.7323	916.326	21.0676
11.7333	911.682	21.0774
11.7336	906.74	21.0872
11.73446	905.664	21.0969
11.7356	909.414	21.1067
11.7347	913.749	21.1165
11.7373	919.088	21.1262
11.7378	917.944	21.136
11.7388	907.499	21.1458
11.7393	906.655	21.1555
11.74	908.22	21.1653
11.7408	916.293	21.175
11.7413	918.49	21.1848
11.7424	917.466	21.19458
11.7433	917.006	21.2043
11.7444	911.149	21.2141
11.7443	910.638	21.2239
11.7454	913.969	21.2336
11.7463	916.974	21.2434
11.7475	924.886	21.2532
11.7479	916.246	21.2629
11.7488	915.277	21.2727
11.7492	912.625	21.2825
11.7504	912.819	21.2922
11.7506	919.694	21.302
11.7524	921.223	21.3118
11.7533	922.696	21.3215
11.7542	920.289	21.3313
11.7529	912.929	21.3411
11.756	913.676	21.35083
11.756	915.02	21.3606
11.7572	924.047	21.3704
11.7583	925.343	21.3801
11.759	922.204	21.3899
11.7599	916.515	21.3997
11.7613	917.901	21.4094
11.7616	917.767	21.4192
11.7615	922.216	21.429
11.7627	925.41	21.4387
11.7637	927.661	21.4485
11.764	922.602	21.4583
11.7654	915.396	21.468
11.7655	915.841	21.4778
11.76734	923.435	21.4875
11.7674	929.449	21.4973
11.7685	931.178	21.50708
11.7691	924.649	21.5168
11.7709	920.0426	21.5266
11.7699	920.338	21.5364
11.7722	920.376	21.5461
11.7722	929.883	21.5559
11.7731	931.024	21.5657
11.774	929.921	21.5754
11.7742	923.792	21.5852
11.7754	916.167	21.595
11.7759	922.613	21.6047
11.7775	928.7309	21.6145
11.7775	936.451	21.6243
11.7788	932.432	21.634
11.7802	926.968	21.6438
11.7814	924.124	21.6536
11.7809	920.667	21.66333
11.7824	927.8512	21.6731
11.7828	934.727	21.6829
11.78332	934.823	21.6926
11.7854	934.242	21.7024
11.7852	924.6543	21.7122
11.7862	923.047	21.7219
11.788	928.632	21.7317
11.789	933.712	21.7415
11.7889	938.217	21.7512
11.7902	934.859	21.761
11.7902	928.781	21.7708
11.792	927.016	21.7805
11.7927	929.312	21.7903
11.7931	932.173	21.8
11.793	938.808	21.8098
11.7951	938.7655	21.81958
11.7956	932	21.8293
11.7965	929.157	21.8391
11.7975	927.5686	21.8489
11.7971	934.034	21.8586
11.7981	937.004	21.8684
11.7997	937.4895	21.8782
11.7997	936.909	21.8879
11.7997	933.113	21.8977
11.8009	930.539	21.9075
11.8017	928.313	21.9172
11.8032	935.742	21.927
11.8049	942.346	21.9368
11.8052	939.493	21.9465
11.8065	937.035	21.9563
11.8062	932.318	21.9661
11.8075	933.394	21.97583
11.80908	936.006	21.9856
11.81	938.525	21.9954
11.8091	943.677	22.0051
11.811	941.414	22.0149
11.8113	934.477	22.0247
11.8118	932.536	22.0344
11.8138	933	22.0442
11.8137	942.607	22.054
11.8145	943.444	22.0637
11.8157	944.5531	22.0735
11.8154	938.967	22.0833
11.8169	933.56	22.093
11.8184	936.008	22.1028
11.8193	937.979	22.1125
11.8206	943.908	22.1223
11.82	948.598	22.13208
11.822	944.42	22.1418
11.8212	935.826	22.1516
11.8231	934.124	22.1614
11.82372	939.165	22.1711
11.8257	947.372	22.1809
11.8252	950.4361	22.1907
11.82633	944.992	22.2004
11.8272	940.377	22.2102
11.828	938.084	22.22
11.8291	936.151	22.2297
11.8298	946.634	22.2395
11.8296	948.825	22.2493
11.8305	952.248	22.259
11.8317	943.8725	22.2688
11.8318	936.404	22.2786
11.8338	939.0517	22.28833
11.8342	945.313	22.2981
11.8348	952.105	22.3079
11.8352	950.0163	22.3176
11.8362	946.258	22.3274
11.8375	944.878	22.3372
11.83742	937.906	22.3469
11.83924	942.629	22.3567
11.8406	948.915	22.3665
11.8411	952.55	22.3762
11.8423	952.629	22.386
11.8429	940.097	22.3958
11.843	941.078	22.4055
11.8446	944.914	22.4153
11.8449	948.576	22.425
11.8461	952.741	22.4348
11.8468	951.714	22.44458
11.8469	950.618	22.4543
11.8475	945.775	22.4641
11.8486	943.138	22.4739
11.8501	947.619	22.4836
11.8507	952.291	22.4934
11.8515	956.95	22.5032
11.8522	952.714	22.5129
11.853	947.88	22.5227
11.8544	946.506	22.5325
11.8555	948.89	22.5422
11.856	952.005	22.552
11.8562	955.569	22.5618
11.8569	954.603	22.5715
11.858	952.258	22.5813
11.8586	947.035	22.5911
11.8587	944.854	22.60083
11.8606	949.672	22.6106
11.86187	958.635	22.6204
11.862	957.842	22.6301
11.8626	956.755	22.6399
11.86375	948.765	22.6497
11.8648	948.645	22.6594
11.8645	951.2876	22.6692
11.8663	953.332	22.679
11.8662	959.398	22.6887
11.8674	958.653	22.6985
11.8683	954.848	22.7083
11.8696	948.867	22.718
11.8704	946.662	22.7278
11.87	956.048	22.7375
11.8722	960.185	22.7473
11.8722	960.2699	22.75708
11.8734	956.7262	22.7668
11.8737	950.424	22.7766
11.8755	951.366	22.7864
11.8757	950.2088	22.7961
11.8763	959.361	22.8059
11.8777	964.695	22.8157
11.878	959.821	22.8254
11.8793	953.869	22.8352
11.8798	948.61	22.845
11.8802	954.079	22.8547
11.8807	959.865	22.8645
11.8829	963.857	22.8743
11.88296	959.821	22.884
11.8835	956.292	22.8938
11.8851	954.114	22.9036
11.88609	952.465	22.91333
11.886	956.445	22.9231
11.8878	962.85	22.9329
11.8875	966.119	22.9426
11.8881	961.223	22.9524
11.8894	952.332	22.9622
11.8906	951.944	22.9719
11.892	957.514	22.9817
11.8924	963.861	22.9915
11.8929	964.154	23.0012
11.8943	962.084	23.011
11.8946	959.771	23.0208
11.8951	953.784	23.0305
11.8959	957.3114	23.0403
11.8964	960.39	23.05
11.8981	967.072	23.0598
11.8978	967.688	23.06958
11.8998	959.301	23.0793
11.90036	958.498	23.0891
11.9002	957.723	23.0989
11.9023	960.542	23.1086
11.9031	964.685	23.1184
11.9038	965.124	23.1282
11.9039	965.922	23.1379
11.9044	959.298	23.1477
11.9048	957.146	23.1575
11.9057	957.537	23.1672
11.9079	962.618	23.177
11.9079	970.112	23.1868
11.9086	965.92	23.1965
11.9099	962.537	23.2063
11.9104	959.794	23.2161
11.9117	959.4892	23.22583
11.9131	963.352	23.2356
11.9141	964.686	23.2454
11.9136	967.774	23.2551
11.9157	969.137	23.2649
11.9154	961.947	23.2747
11.917	956.871	23.2844
11.91775	960.776	23.2942
11.91817	966.386	23.304
11.919	969.008	23.3137
11.9196	968.4339	23.3235
11.9203	962.982	23.3333
11.9211	962.337	23.343
11.9222	960.172	23.3528
11.9231	965.261	23.3625
11.9249	970.203	23.3723
11.9247	971.92	23.38208
11.926	969.275	23.3918
11.9268	961.979	23.4016
11.9275	957.128	23.4114
11.9273	966.149	23.4211
11.9291	967.582	23.4309
11.93	974.138	23.4407
11.9309	969.507	23.4504
11.93154	963.75	23.4602
11.9317	964.176	23.47
11.9326	959.568	23.4797
11.9333	969.4	23.4895
11.93442	974.401	23.4993
11.9353	972.517	23.509
11.9355	967.857	23.5188
11.936	959.797	23.5286
11.9391	962.711	23.53833
11.9383	969.6004	23.5481
11.9388	971.1076	23.5579
11.9402	974.309	23.5676
11.9404	969.135	23.5774
11.9418	966.074	23.5872
11.9432	961.818	23.5969
11.942	964.618	23.6067
11.944	972.375	23.6165
11.9456	976.056	23.6262
11.9461	973.629	23.636
11.9463	965.986	23.6458
11.94804	963.114	23.6555
11.9477	966.801	23.6653
11.9488	971.652	23.675
11.9505	973.718	23.6848
11.9508	974.152	23.69458
11.9514	970.221	23.7043
11.9528	965.862	23.7141
11.9526	965.497	23.7239
11.9539	967.914	23.7336
11.9551	974.303	23.7434
11.9572	976.621	23.7532
11.9563	970.308	23.7629
11.9576	969.239	23.7727
11.9581	966.611	23.7825
11.9577	969.876	23.7922
11.9594	970.669	23.802
11.9608	973.4295	23.8118
11.9621	976.914	23.8215
11.962	970.74	23.8313
11.9618	966.266	23.8411
11.96346	964.652	23.85083
11.9658	969.469	23.8606
11.9655	977.566	23.8704
11.9672	974.552	23.8801
11.9672	974.033	23.8899
11.9674	969.005	23.8997
11.9695	966.57	23.9094
11.9701	970.137	23.9192
11.9713	970.752	23.929
11.9708	976.931	23.9387
11.9713	977.197	23.9485
11.97252	972.072	23.9583
11.9739	966.573	23.968
11.9739	965.6369	23.9778
11.9764	973.375	23.9875
11.9755	976.597	23.9973
11.97717	978.86	24.00708
11.9781	974.657	24.0168
11.9789	969.897	24.0266
11.9777	968.545	24.0364
11.9796	967.832	24.0461
11.9816	976.47	24.0559
11.98117	980.047	24.0657
11.9828	978.578	24.0754
11.9841	970.976	24.0852
11.9848	966.112	24.095
11.9841	971.362	24.1047
11.9864	974.428	24.1145
11.9868	980.315	24.1243
11.9871	976.273	24.134
11.9876	975.461	24.1438
11.9885	970.461	24.1536
11.99	964.438	24.16333
11.9903	973.159	24.1731
11.9915	979.114	24.1829
11.9919	980.784	24.1926
11.9945	975.724	24.2024
11.9929	965.9	24.2122
11.9941	967.468	24.2219
11.9952	970.747	24.2317
11.997	976.9884	24.2415
11.9976	979.853	24.2512
11.9978	976.379	24.261
11.9986	974.032	24.2708
12.00018	967.091	24.2805
12.0005	969.738	24.2903
12.0014	975.996	24.3
12.002	981.1	24.3098
12.00287	980.732	24.31958
12.0035	973.338	24.3293
12.0048	969.785	24.3391
12.0056	972.281	24.3489
12.0057	974.274	24.3586
12.0063	978.555	24.3684
12.0073	978.911	24.3782
12.008	977.906	24.3879
12.0089	971.918	24.3977
12.0098	968.586	24.4075
12.0105	971.376	24.4172
12.0121	976.746	24.427
12.0131	981.631	24.4368
12.013	976.354	24.4465
12.01475	975.185	24.4563
12.0142	970.635	24.4661
12.0154	972.367	24.47583
12.0171	973.965	24.4856
12.0175	976.137	24.4954
12.0182	981.296	24.5051
12.0192	976.246	24.5149
12.0201	972.789	24.5247
12.0201	967.697	24.5344
12.0209	972.128	24.5442
12.0234	978.219	24.554
12.0227	977.818	24.5637
12.0248	980.842	24.5735
12.0244	975.511	24.5833
12.0265	971.3371	24.593
12.026	971.262	24.6028
12.0285	971.924	24.6125
12.0279	979.463	24.6223
12.02884	981.437	24.63208
12.03	976.893	24.6418
12.0308	970.4856	24.6516
12.031	967.2077	24.6614
12.03242	974.492	24.6711
12.0324	978.758	24.6809
12.0341	982.172	24.6907
12.0346	979.405	24.7004
12.0365	972.88	24.7102
12.0352	970.821	24.72
12.0371	968.353	24.7297
12.0382	975.314	24.7395
12.0382	983.357	24.7493
12.03963	980.998	24.759
12.0396	973.614	24.7688
12.0402	968.398	24.7786
12.04203	968.479	24.78833
12.042	975.829	24.7981
12.04348	980.607	24.8079
12.0443	980.598	24.8176
12.0446	978.655	24.8274
12.0471	971.644	24.8372
12.0466	967.781	24.8469
12.0483	972.673	24.8567
12.0488	977.998	24.8665
12.0492	982.339	24.8762
12.05	979.902	24.886
12.0511	970.891	24.8958
12.05196	971.254	24.9055
12.0528	972.016	24.9153
12.0538	976.905	24.925
12.0537	979.031	24.9348
12.0546	978.792	24.94458
12.0551	979.034	24.9543
12.0569	969.7713	24.9641
12.05774	971.034	24.9739
12.0586	973.515	24.9836
12.0592	977.978	24.9934
12.06017	982.643	25.0032
12.0596	973.7511	25.0129
12.0612	972.285	25.0227
12.0622	971.716	25.0325
12.0628	971.4151	25.0422
12.0634	975.688	25.052
12.0647	978.385	25.0618
12.0651	979.732	25.0715
12.0658	974.062	25.0813
12.0672	970.382	25.0911
12.0675	969.753	25.10083
12.0679	973.1817	25.1106
12.0697	980.2063	25.1204
12.07034	976.796	25.1301
12.0722	975.464	25.1399
12.0724	973.133	25.1497
12.0731	970.909	25.1594
12.0736	969.955	25.1692
12.0729	977.135	25.179
12.0746	980.726	25.1887
12.0767	979.085	25.1985
12.078	975.226	25.2083
12.0773	969.1709	25.218
12.0784	968.6275	25.2278
12.0793	975.411	25.2375
12.0809	975.985	25.2473
12.0818	979.359	25.25708
12.0826	974.1521	25.2668
12.08236	971.741	25.2766
12.0838	967.967	25.2864
12.0842	968.446	25.2961
12.0851	979.378	25.3059
12.0857	982.131	25.3157
12.0862	979.219	25.3254
12.08766	970.624	25.3352
12.0888	965.264	25.345
12.089	970.539	25.3547
12.0901	974.477	25.3645
12.0901	978.6203	25.3743
12.0915	978.948	25.384
12.0928	973.751	25.3938
12.0926	970.1167	25.4036
12.0937	964.97	25.41333
12.09437	973.346	25.4231
12.0962	979.832	25.4329
12.0965	981.321	25.4426
12.097	974.951	25.4524
12.0983	969.455	25.4622
12.0988	968.2547	25.4719
12.09998	972.355	25.4817
12.1007	975.134	25.4915
12.1011	979.0274	25.5012
12.1026	978.897	25.511
12.1036	972.3573	25.5208
12.1028	965.47	25.5305
12.1048	968.015	25.5403
12.1052	973.282	25.55
12.1059	980.478	25.5598
12.107	978.322	25.56958
12.1078	970.397	25.5793
12.1086	968.837	25.5891
12.1102	967.907	25.5989
12.1097	973.376	25.6086
12.1111	974.408	25.6184
12.1118	978.587	25.6282
12.1124	977.447	25.6379
12.1139	968.204	25.6477
12.1149	969.395	25.6575
12.1149	968.351	25.6672
12.1167	975.1051	25.677
12.1172	978.651	25.6868
12.1186	971.39	25.6965
12.1181	971.896	25.7063
12.1195	967.986	25.7161
12.1185	968.059	25.72583
12.1205	970.734	25.7356
12.1204	972.223	25.7454
12.1227	979.847	25.7551
12.12332	973.573	25.7649
12.1232	967.571	25.7747
12.1252	966.289	25.7844
12.1257	967.971	25.7942
12.1259	974.838	25.804
12.1279	974.599	25.8137
12.1275	974.304	25.8235
12.1299	971.371	25.8333
12.1302	966.245	25.843
12.1303	965.842	25.8528
12.1324	968.765	25.8625
12.1321	974.0509	25.8723
12.1339	978.3999	25.88208
12.1337	971.832	25.8918
12.1335	965.676	25.9016
12.1351	965.095	25.9114
12.1356	968.445	25.9211
12.138	971.634	25.9309
12.1366	977.071	25.9407
12.1388	972.78	25.9504
12.1395	970.9917	25.9602
12.1401	963.204	25.97
12.1418	962.118	25.9797
12.1425	971.599	25.9895
12.1425	976.625	25.9993
12.143	977.1734	26.009
12.1452	968.152	26.0188
12.1456	962.364	26.0286
12.14518	965.117	26.03833
12.1479	965.372	26.0481
12.14727	974.989	26.0579
12.1488	975.906	26.0676
12.1493	971.949	26.0774
12.14913	966.66	26.0872
12.1516	960.589	26.0969
12.151	966.638	26.1067
12.1529	973.429	26.1165
12.153	976.1972	26.1262
12.1545	971.82	26.136
12.1537	964.643	26.1458
12.1552	963.178	26.1555
12.1564	964.774	26.1653
12.1582	970.283	26.175
12.1584	973.658	26.1848
12.15984	974.631	26.19458
12.1603	970.8	26.2043
12.1611	962.14	26.2141
12.16107	962.151	26.2239
12.1626	968.021	26.2336
12.1624	973.6618	26.2434
12.1636	973.426	26.2532
12.1649	970.148	26.2629
12.16535	964.371	26.2727
12.1666	962.981	26.2825
12.1677	965.889	26.2922
12.1681	967.122	26.302
12.168	971.919	26.3118
12.1704	973.295	26.3215
12.1702	965.59	26.3313
12.171	964.418	26.3411
12.17144	961.1637	26.35083
12.1721	968.321	26.3606
12.1743	970.488	26.3704
12.175	969.213	26.3801
12.1746	969.433	26.3899
12.17586	964.941	26.3997
12.1765	962.49	26.4094
12.1787	963.873	26.4192
12.1789	966.679	26.429
12.1798	974.116	26.4387
12.1795	970.339	26.4485
12.1795	966.596	26.4583
12.1822	961.061	26.468
12.1819	961.465	26.4778
12.1846	967.854	26.4875
12.18401	968.086	26.4973
12.1851	972.459	26.50708
12.1859	968.901	26.5168
12.1868	962.138	26.5266
12.1883	961.424	26.5364
12.1891	960.206	26.5461
12.1897	968.247	26.5559
12.18995	974.4339	26.5657
12.1902	969.4021	26.5754
12.1917	962.7677	26.5852
12.1926	959.305	26.595
12.1929	962.861	26.6047
12.1939	964.345	26.6145
12.19496	970.505	26.6243
12.1957	970.481	26.634
12.1966	966.969	26.6438
12.19625	959.108	26.6536
12.1974	956.605	26.66333
12.1992	963.83	26.6731
12.1996	969.314	26.6829
12.201	972.604	26.6926
12.2011	964.953	26.7024
12.2019	960.926	26.7122
12.203	959.527	26.7219
12.2042	959.049	26.7317
12.2044	967.543	26.7415
12.2057	969.158	26.7512
12.2054	969.474	26.761
12.207	964.025	26.7708
12.2081	954.814	26.7805
12.2089	959.261	26.7903
12.21	964.673	26.8
12.2093	970.453	26.8098
12.2115	969.129	26.81958
12.2117	960.397	26.8293
12.2139	960.099	26.8391
12.21337	958.792	26.8489
12.2149	961.5517	26.8586
12.2153	966.221	26.8684
12.2151	967.8064	26.8782
12.2171	967.697	26.8879
12.2172	957.144	26.8977
12.2183	956.423	26.9075
12.2187	960.78	26.9172
12.2195	964.269	26.927
12.2205	967.448	26.9368
12.22109	964.815	26.9465
12.2221	961.352	26.9563
12.2228	958.333	26.9661
12.2242	956.545	26.97583
12.2245	958.638	26.9856
12.2256	965.438	26.9954
12.2265	967.499	27.0051
12.2271	963.244	27.0149
12.2282	958.271	27.0247
12.2292	955.572	27.0344
12.22983	961.619	27.0442
12.2292	963.267	27.054
12.231	965.513	27.0637
12.2327	964.35	27.0735
12.2334	961.495	27.0833
12.2345	958.662	27.093
12.2344	955.107	27.1028
12.2351	957.977	27.1125
12.2364	967.346	27.1223
12.2371	965.607	27.13208
12.2393	962.842	27.1418
12.2395	954.376	27.1516
12.2401	952.987	27.1614
12.2411	959.222	27.1711
12.2412	959.466	27.1809
12.2427	966.463	27.1907
12.2432	963.017	27.2004
12.2431	960.112	27.2102
12.2448	954.037	27.22
12.2451	952.353	27.2297
12.2462	960.5332	27.2395
12.2462	966.171	27.2493
12.2472	963.774	27.259
12.2489	958.576	27.2688
12.25	951.376	27.2786
12.2503	954.518	27.28833
12.25139	954.612	27.2981
12.2518	961.101	27.3079
12.2526	963.102	27.3176
12.2542	960.989	27.3274
12.254	953.4826	27.3372
12.2553	948.129	27.3469
12.2552	951.973	27.3567
12.2562	960.553	27.3665
12.2578	963.742	27.3762
12.25854	957.977	27.386
12.2586	953.77	27.3958
12.259	951.858	27.4055
12.2614	949.57	27.4153
12.26178	958.0874	27.425
12.2625	960.389	27.4348
12.26353	961.7876	27.44458
12.2639	956.063	27.4543
12.2653	948.7818	27.4641
12.2659	949.191	27.4739
12.2673	953.068	27.4836
12.2661	960.6543	27.4934
12.2678	960.273	27.5032
12.2688	954.915	27.5129
12.2698	952.595	27.5227
12.2711	947.674	27.5325
12.2707	951.298	27.5422
12.2717	953.184	27.552
12.2733	958.11	27.5618
12.2746	960.58	27.5715
12.2732	950.605	27.5813
12.2751	949.29	27.5911
12.2772	948.112	27.60083
12.2768	951.549	27.6106
12.2778	958.072	27.6204
12.2794	953.763	27.6301
12.2788	954.61	27.6399
12.2796	950.915	27.6497
12.282	946.903	27.6594
12.2819	951.252	27.6692
12.2828	952.5011	27.679
12.2851	957.791	27.6887
12.2842	954.722	27.6985
12.2849	950.33	27.7083
12.2857	945.535	27.718
12.2879	949.403	27.7278
12.28778	951.319	27.7375
12.2882	953.942	27.7473
12.289	955.005	27.75708
12.2899	954.496	27.7668
12.2909	947.925	27.7766
12.2913	942.814	27.7864
12.2921	944.108	27.7961
12.2941	952.925	27.8059
12.2942	957.355	27.8157
12.2952	954.049	27.8254
12.29508	945.528	27.8352
12.2973	944.631	27.845
12.2971	946.7959	27.8547
12.2983	945.488	27.8645
12.299	954.871	27.8743
12.3001	954.137	27.884
12.3006	950.566	27.8938
12.3019	942.606	27.9036
12.3031	938.522	27.91333
12.303	946.614	27.9231
12.304	951.655	27.9329
12.3046	952.586	27.9426
12.3057	948.415	27.9524
12.3068	940.937	27.9622
12.3063	939.697	27.9719
12.3076	939.515	27.9817
12.3088	948.034	27.9915
12.31002	950.009	28.0012
12.3104	950.0528	28.011
12.3114	942.756	28.0208
12.3128	932.472	28.0305
12.3128	934.772	28.0403
12.3133	877.228	28.05
12.3223	-117.925	28.0598
12.3218	-18.8862	28.06958
12.321	-42.9612	28.0793
12.3218	-36.378	28.0891
12.3204	-48.1123	28.0989
12.321	-38.9604	28.1086
12.3227	-41.3053	28.1184
12.3217	-31.9966	28.1282
12.322	-40.71817	28.1379
12.3238	-44.3575	28.1477
12.324	-45.8472	28.1575
12.32418	-46.8817	28.1672
12.3254	-37.5668	28.177
12.32656	-36.7294	28.1868
12.3269	-39.2224	28.1965
12.3269	-41.1807	28.2063
12.3277	-45.0482	28.2161
12.3293	-45.2845	28.22583
12.3303	-44.2952	28.2356
12.3308	-34.942	28.2454
12.3312	-33.0902	28.2551
12.3327	-41.8439	28.2649
12.3335	-43.0209	28.2747
12.3338	-47.2464	28.2844
12.3349	-43.5495	28.2942
12.3364	-39.2813	28.304
12.3361	-39.13504	28.3137
12.3377	-35.4284	28.3235
12.3392	-41.5715	28.3333
12.3387	-44.9411	28.343
12.3391	-46.82935	28.3528
12.3398	-43.882	28.3625
12.342	-34.0997	28.3723
12.342	-35.8086	28.38208
12.3429	-40.5466	28.3918
12.3437	-44.6614	28.4016
12.3452	-45.6431	28.4114
12.3451	-42.6591	28.4211
12.347	-38.8467	28.4309
12.3463	-35.8673	28.4407
12.34905	-34.89677	28.4504
12.34909	-42.7253	28.4602
12.3482	-47.6144	28.47
12.35	-47.1471	28.4797
12.35123	-41.5322	28.4895
12.3519	-33.6215	28.4993
12.353	-37.2658	28.509
12.3529	-41.6201	28.5188
12.35387	-44.9022	28.5286
12.3569	-46.4569	28.53833
12.3561	-42.7881	28.5481
12.3576	-36.0566	28.5579
12.3566	-35.10635	28.5676
12.3574	-37.0414	28.5774
12.3595	-44.4954	28.5872
12.3595	-48.1955	28.5969
12.3606	-44.1152	28.6067
12.3614	-37.7492	28.6165
12.3628	-33.4	28.6262
12.3631	-37.4831	28.636
12.3631	-42.5831	28.6458
12.36478	-45.2464	28.6555
12.3652	-46.5101	28.6653
12.3667	-40.1206	28.675
12.3669	-36.5032	28.6848
12.3684	-34.1603	28.69458
12.3687	-38.2581	28.7043
12.36856	-49.7225	28.7141
12.37	-46.0235	28.7239
12.3718	-41.795	28.7336
12.3722	-35.5448	28.7434
12.3734	-35.4909	28.7532
12.3735	-40.9068	28.7629
12.3742	-41.9124	28.7727
12.3751	-46.164	28.7825
12.37557	-43.9438	28.7922
12.377	-39.694	28.802
12.3776	-35.1288	28.8118
12.3795	-35.5768	28.8215
12.3793	-43.2454	28.8313
12.3803	-44.8753	28.8411
12.3814	-44.1148	28.85083
12.3811	-40.324	28.8606
12.382	-36.8708	28.8704
12.385	-35.2392	28.8801
12.38444	-41.2323	28.8899
12.3845	-42.6262	28.8997
12.38573	-45.1938	28.9094
12.3871	-45.7317	28.9192
12.38762	-37.4019	28.929
12.3882	-34.6311	28.9387
12.38886	-38.8699	28.9485
12.389	-42.4525	28.9583
12.3909	-47.3504	28.968
12.3917	-43.4307	28.9778
12.3918	-39.6952	28.9875
12.3919	-39.0752	28.9973
12.3938	-34.5431	29.00708
12.39492	-38.3547	29.0168
12.3961	-43.1227	29.0266
12.3963	-46.3089	29.0364
12.3964	-45.321	29.0461
12.39765	-35.2988	29.0559
12.39782	-37.7299	29.0657
12.3994	-36.7913	29.0754
12.4	-40.869	29.0852
12.40111	-45.9643	29.095
12.4011	-41.7035	29.1047
12.40225	-43.3122	29.1145
12.4038	-35.2628	29.1243
12.40492	-35.1565	29.134
12.4053	-38.2575	29.1438
12.40572	-44.93	29.1536
12.4069	-49.07476	29.16333
12.4076	-41.2747	29.1731
12.409	-35.9344	29.1829
12.4096	-35.3674	29.1926
12.4107	-38.9402	29.2024
12.4106	-44.73513	29.2122
12.4125	-44.7943	29.2219
12.4117	-44.084	29.2317
12.4133	-39.0541	29.2415
12.4144	-34.8688	29.2512
12.4146	-35.358	29.261
12.4167	-42.1282	29.2708
12.41685	-47.0653	29.2805
12.4172	-47.3052	29.2903
12.41831	-39.5427	29.3
12.4197	-34.1488	29.3098
12.419	-37.7018	29.31958
12.421	-40.2664	29.3293
12.4216	-43.8505	29.3391
12.4203	-47.769	29.3489
12.4232	-42.2235	29.3586
12.424	-38.5527	29.3684
12.42479	-33.6482	29.3782
12.4255	-36.3599	29.3879
12.4258	-45.9235	29.3977
12.427	-44.9304	29.4075
12.42708	-44.9159	29.4172
12.4283	-36.6736	29.427
12.429	-35.9054	29.4368
12.4305	-39.314	29.4465
12.4315	-39.4466	29.4563
12.4318	-45.6746	29.4661
12.4333	-43.846	29.47583
12.4345	-42.9262	29.4856
12.4345	-37.8386	29.4954
12.435	-34.9224	29.5051
12.43695	-42.11	29.5149
12.4367	-43.61721	29.5247
12.4379	-43.2556	29.5344
12.4381	-42.7768	29.5442
12.4391	-38.8553	29.554
12.4402	-37.3977	29.5637
12.4415	-36.4441	29.5735
12.4429	-38.61261	29.5833
12.4425	-44.551	29.593
12.44303	-45.4188	29.6028
12.4442	-39.2887	29.6125
12.4448	-34.5812	29.6223
12.4457	-35.7793	29.63208
12.4464	-37.3027	29.6418
12.4474	-43.3686	29.6516
12.4483	-43.28159	29.6614
12.4489	-43.1396	29.6711
12.44961	-39.6766	29.6809
12.4508	-35.0662	29.6907
12.4519	-35.6239	29.7004
12.45309	-39.9029	29.7102
12.4536	-46.8685	29.72
12.4546	-46.33	29.7297