File: data/processed_data_files/tensile/0.254_solid_uprint_typei_4545_r(5).dat
MTS793|BTW|ENU|1|2|.|/|:|1|0|0|A

Data Header:			0.254_solid_uprint_typei_4545_r0			Time:	20.0176	s	4/14/2019 4:29:36 AM
Data Acquisition:	Timed
Station Name:	ft40.cfg
Test File Name:	monotonic_0.2540_typei_solid_4545_uprint.tst
Displacement	Force	Running Time
mm	N	s
9.95785	-122.918	0.0224609
9.95754	-119.231	0.0419922
9.95764	-109.8713	0.0615234
9.958972	-116.1446	0.0810547
9.96036	-122.722	0.100586
9.96359	-106.968	0.120117
9.964138	-109.753	0.139648
9.96514	-122.36	0.15918
9.96783	-110.371	0.178711
9.96956	-105.973	0.198242
9.96967	-114.619	0.217773
9.97256	-108.93	0.237305
9.97409	-100.066	0.256836
9.97572	-114.902	0.276367
9.97798	-109.654	0.295898
9.97831	-96.5251	0.31543
9.98158	-106.253	0.334961
9.98215	-110.693	0.354492
9.98424	-93.7579	0.374023
9.98562	-103.939	0.393555
9.986886	-108.332	0.413086
9.98745	-94.7808	0.432617
9.99037	-94.2684	0.452148
9.99209	-105.357	0.47168
9.99367	-93.4995	0.491211
9.9947	-95.2449	0.510742
9.99721	-101.12	0.530273
9.99827	-94.4808	0.549805
9.99959	-85.5583	0.569336
10.0012	-97.381	0.588867
10.0036	-94.8161	0.608398
10.0052	-85.30442	0.62793
10.006	-90.0786	0.647461
10.0086	-95.5359	0.666992
10.0099	-81.0998	0.686523
10.0116	-87.4898	0.706055
10.0127	-94.4304	0.725586
10.014	-81.2405	0.745117
10.0161	-81.3808	0.764648
10.0177	-92.3164	0.78418
10.0196	-79.184	0.803711
10.0217	-73.7284	0.823242
10.0232	-91.3888	0.842773
10.0244	-79.9712	0.862305
10.0266	-72.9566	0.881836
10.0271	-82.3125	0.901367
10.02955	-78.2433	0.920898
10.0314	-66.2501	0.94043
10.0321	-83.0179	0.959961
10.0336	-78.4039	0.979492
10.0355	-65.6712	0.999023
10.0379	-72.3562	1.01855
10.0385	-78.14502	1.03809
10.0404	-63.7072	1.05762
10.0428	-67.4193	1.07715
10.0432	-74.1582	1.09668
10.0447	-67.6067	1.11621
10.0461	-60.6308	1.13574
10.0489	-72.9102	1.15527
10.0504	-63.1098	1.1748
10.0531	-59.1862	1.19434
10.0532	-68.1213	1.21387
10.0547	-65.978	1.2334
10.05644	-50.5316	1.25293
10.05797	-63.4455	1.27246
10.0602	-66.20047	1.29199
10.0611	-51.2862	1.31152
10.0632	-56.4914	1.33105
10.065	-62.8141	1.35059
10.066	-50.8246	1.37012
10.0682	-50.499	1.38965
10.0696	-62.5535	1.40918
10.0708	-49.63319	1.42871
10.0724	-45.5971	1.44824
10.0747	-58.325	1.46777
10.0758	-49.5722	1.4873
10.0774	-39.6088	1.50684
10.0794	-54.6723	1.52637
10.0815	-48.631	1.5459
10.0834	-37.00346	1.56543
10.0843	-46.132	1.58496
10.0857	-49.0189	1.60449
10.0878	-34.6249	1.62402
10.0894	-44.8867	1.64355
10.0909	-46.6675	1.66309
10.0921	-34.4957	1.68262
10.0944	-35.2366	1.70215
10.096	-46.1788	1.72168
10.0981	-32.1755	1.74121
10.0984	-31.9469	1.76074
10.1007	-41.4025	1.78027
10.1022	-34.73896	1.7998
10.1037	-26.265	1.81934
10.1049	-35.6523	1.83887
10.1076	-33.71833	1.8584
10.109	-24.823	1.87793
10.111	-32.1207	1.89746
10.1122	-32.7908	1.91699
10.1146	-18.9632	1.93652
10.11583	-24.8625	1.95605
10.1168	-35.1959	1.97559
10.1181	-18.9033	1.99512
10.1209	-18.2883	2.01465
10.1207	-29.797	2.03418
10.12289	-20.6999	2.05371
10.1248	-12.2502	2.07324
10.127	-28.2558	2.09277
10.1278	-17.6995	2.1123
10.1298	-10.5282	2.13184
10.1314	-20.8326	2.15137
10.1327	-17.5247	2.1709
10.1359	-3.9063	2.19043
10.1366	-20.47714	2.20996
10.1388	-18.1823	2.22949
10.1391	-3.58566	2.24902
10.14233	-6.99974	2.26855
10.14265	-15.5009	2.28809
10.1445	-3.28051	2.30762
10.1459	-6.090694	2.32715
10.148	-11.9396	2.34668
10.1492	0.0503321	2.36621
10.1511	3.00371	2.38574
10.152	-11.1701	2.40527
10.1543	-2.66316	2.4248
10.1568	4.93026	2.44434
10.1564	-4.76072	2.46387
10.1594	-2.17867	2.4834
10.1613	8.71867	2.50293
10.1629	0.650696	2.52246
10.1635	-2.73609	2.54199
10.1658	10.3554	2.56152
10.1676	4.53608	2.58105
10.1693	-1.8541	2.60059
10.17	14.5644	2.62012
10.17113	11.7114	2.63965
10.1728	-2.34606	2.65918
10.1754	13.4555	2.67871
10.176	17.6728	2.69824
10.1792	5.07261	2.71777
10.18	12.7336	2.7373
10.1815	23.08935	2.75684
10.1837	8.0827	2.77637
10.185	15.0141	2.7959
10.1859	25.0869	2.81543
10.1893	15.9017	2.83496
10.1895	14.0774	2.85449
10.1918	30.687	2.87402
10.1936	18.9323	2.89355
10.1957	15.0997	2.91309
10.1968	28.9621	2.93262
10.1975	30.5882	2.95215
10.1989	19.0256	2.97168
10.2007	31.5401	2.99121
10.2016	30.9934	3.01074
10.2042	22.5271	3.03027
10.2063	32.06459	3.0498
10.209	38.1529	3.06934
10.2098	27.0397	3.08887
10.2115	29.4969	3.1084
10.2124	42.018	3.12793
10.2144	32.871	3.14746
10.21543	28.9546	3.16699
10.2169	44.6017	3.18652
10.2189	39.7244	3.20605
10.2205	29.9229	3.22559
10.2226	44.614	3.24512
10.2236	44.4918	3.26465
10.225	35.4868	3.28418
10.2271	47.31374	3.30371
10.22935	50.8915	3.32324
10.2302	35.2237	3.34277
10.2325	46.7524	3.3623
10.2344	54.9508	3.38184
10.2353	43.96764	3.40137
10.237	44.9065	3.4209
10.23865	59.76749	3.44043
10.24	45.5596	3.45996
10.2425	48.6427	3.47949
10.2434	59.0294	3.49902
10.2449	54.7923	3.51855
10.2475	47.4381	3.53809
10.2482	63.56115	3.55762
10.2508	58.37727	3.57715
10.25197	49.3559	3.59668
10.2534	62.8951	3.61621
10.2545	66.2873	3.63574
10.2559	56.0562	3.65527
10.2575	61.0595	3.6748
10.2599	69.0098	3.69434
10.2614	59.1385	3.71387
10.2623	64.4455	3.7334
10.2651	74.1777	3.75293
10.2663	64.4832	3.77246
10.2672	60.286	3.79199
10.2694	78.3148	3.81152
10.2711	72.24852	3.83105
10.2732	63.8242	3.85059
10.2734	78.7439	3.87012
10.2759	80.2163	3.88965
10.278	64.4074	3.90918
10.2779	80.0284	3.92871
10.2806	82.3091	3.94824
10.2826	71.94088	3.96777
10.2837	79.8375	3.9873
10.2856	89.7307	4.00684
10.2876	71.7077	4.02637
10.2881	80.85495	4.0459
10.2904	90.677	4.06543
10.2917	82.1116	4.08496
10.2948	77.7668	4.10449
10.2961	93.0288	4.12402
10.2972	85.4113	4.14355
10.2989	82.9633	4.16309
10.2989	95.0624	4.18262
10.3015	93.586	4.20215
10.3044	84.7834	4.22168
10.3052	96.22509	4.24121
10.30631	98.4369	4.26074
10.3085	84.9252	4.28027
10.3097	94.3561	4.2998
10.312	105.4366	4.31934
10.314	93.7169	4.33887
10.3143	93.3367	4.3584
10.3171	106.926	4.37793
10.318	98.5223	4.39746
10.3202	98.3007	4.41699
10.3199	110.232	4.43652
10.3228	105.679	4.45605
10.3249	95.6362	4.47559
10.3264	115.371	4.49512
10.3275	111.521	4.51465
10.3289	100.751	4.53418
10.3316	111.67	4.55371
10.3333	118.698	4.57324
10.3356	101.1322	4.59277
10.3363	114.999	4.6123
10.3377	120.367	4.63184
10.3387	108.669	4.65137
10.3405	114.234	4.6709
10.343	126.5049	4.69043
10.3441	111.871	4.70996
10.3461	113.417	4.72949
10.3478	128.12	4.74902
10.3493	121.908	4.76855
10.3507	113.042	4.78809
10.3529	127.618	4.80762
10.35356	125.0633	4.82715
10.3552	117.525	4.84668
10.3578	128.585	4.86621
10.3591	131.99	4.88574
10.3606	120.554	4.90527
10.3615	128.773	4.9248
10.36315	137.468	4.94434
10.3659	125.531	4.96387
10.36685	127.5966	4.9834
10.3694	141.891	5.00293
10.3699	132.741	5.02246
10.3727	125.857	5.04199
10.3737	144.864	5.06152
10.375	138.697	5.08105
10.3763	131.119	5.10059
10.37813	144.856	5.12012
10.3799	145.901	5.13965
10.3824	129.037	5.15918
10.3824	147.047	5.17871
10.3847	149.784	5.19824
10.3852	136.692	5.21777
10.388	144.72	5.2373
10.3893	155.116	5.25684
10.3917	139.435	5.27637
10.3938	147.489	5.2959
10.3944	156.789	5.31543
10.396	148.606	5.33496
10.3979	146.92	5.35449
10.4007	160.159	5.37402
10.4016	150.846	5.39355
10.4033	146.449	5.41309
10.4038	160.982	5.43262
10.4063	162.671	5.45215
10.4082	148.105	5.47168
10.4097	158.918	5.49121
10.4109	165.055	5.51074
10.4118	154.298	5.53027
10.4148	160.729	5.5498
10.4162	169.552	5.56934
10.4179	159.059	5.58887
10.41842	158.732	5.6084
10.42065	174.83	5.62793
10.4222	163.2653	5.64746
10.4237	160.944	5.66699
10.4242	177.6461	5.68652
10.4269	170.901	5.70605
10.4283	157.669	5.72559
10.4303	178.957	5.74512
10.432	175.706	5.76465
10.4337	166.321	5.78418
10.4355	178.967	5.80371
10.4358	182.649	5.82324
10.43799	165.683	5.84277
10.4397	179.998	5.8623
10.4414	187.647	5.88184
10.4437	174.281	5.90137
10.4447	177.5692	5.9209
10.447	191.019	5.94043
10.4482	179.289	5.95996
10.4501	178.179	5.97949
10.4519	193.26	5.99902
10.4541	186.777	6.01855
10.45533	180.314	6.03809
10.4567	192.134	6.05762
10.4577	189.555	6.07715
10.459	180.351	6.09668
10.4608	196.288	6.11621
10.46342	199.635	6.13574
10.4646	185.805	6.15527
10.4662	189.277	6.1748
10.46806	202.777	6.19434
10.4687	192.243	6.21387
10.47083	193.7365	6.2334
10.4729	205.878	6.25293
10.4745	196.542	6.27246
10.4761	190.334	6.29199
10.4783	211.569	6.31152
10.4794	201.212	6.33105
10.4816	194.701	6.35059
10.483	210.602	6.37012
10.4842	210.893	6.38965
10.4855	194.588	6.40918
10.4874	211.145	6.42871
10.489	216.133	6.44824
10.4905	202.809	6.46777
10.49185	210.408	6.4873
10.4943	218.701	6.50684
10.496	203.393	6.52637
10.497	212.514	6.5459
10.4986	225.435	6.56543
10.5005	212.759	6.58496
10.5015	209.265	6.60449
10.5026	224.655	6.62402
10.5059	217.117	6.64355
10.5071	211.573	6.66309
10.5086	226.165	6.68262
10.5104	225.711	6.70215
10.5118	214.296	6.72168
10.5135	224.424	6.74121
10.5151	230.782	6.76074
10.5171	216.5488	6.78027
10.5189	227.171	6.7998
10.5202	237.371	6.81934
10.5208	222.529	6.83887
10.5227	222.227	6.8584
10.5251	240.557	6.87793
10.5263	229.43	6.89746
10.5289	228.363	6.91699
10.5292	240.596	6.93652
10.5317	236.437	6.95605
10.53168	225.153	6.97559
10.5345	245.658	6.99512
10.5359	241.812	7.01465
10.538	230.31	7.03418
10.5389	243.018	7.05371
10.5414	250.24	7.07324
10.5426	230.225	7.09277
10.5436	243.548	7.1123
10.5458	252.038	7.13184
10.5477	241.669	7.15137
10.5499	243.022	7.1709
10.55216	257.102	7.19043
10.5519	243.002	7.20996
10.5544	245.15	7.22949
10.5563	260.461	7.24902
10.558	249.211	7.26855
10.5591	245.055	7.28809
10.5602	258.027	7.30762
10.5627	258.425	7.32715
10.5638	245.353	7.34668
10.5662	258.9057	7.36621
10.5663	264.812	7.38574
10.5681	252.5923	7.40527
10.57063	258.215	7.4248
10.5716	269.899	7.44434
10.5737	255.695	7.46387
10.5762	259.709	7.4834
10.5776	273.578	7.50293
10.5787	261.328	7.52246
10.58059	253.53	7.54199
10.5818	276.581	7.56152
10.58308	269.004	7.58105
10.584	260.441	7.60059
10.58622	276.091	7.62012
10.5881	277.2872	7.63965
10.59	260.395	7.65918
10.5915	277.1514	7.67871
10.5936	279.9592	7.69824
10.596	266.81	7.71777
10.59594	276.012	7.7373
10.5972	286.356	7.75684
10.5998	269.69	7.77637
10.6007	275.716	7.7959
10.6034	288.9794	7.81543
10.6043	279.857	7.83496
10.606	276.846	7.85449
10.6075	289.291	7.87402
10.6093	283.47	7.89355
10.6117	277.534	7.91309
10.61241	292.894	7.93262
10.6142	292.723	7.95215
10.6159	280.154	7.97168
10.6179	289.03	7.99121
10.6188	298.528	8.01074
10.6202	283.65	8.03027
10.6228	290.593	8.0498
10.6239	302.28	8.06934
10.6264	289.932	8.08887
10.628	288.02	8.1084
10.62949	306.258	8.12793
10.6302	292.774	8.14746
10.6315	293.5199	8.16699
10.6344	310.153	8.18652
10.6352	302.617	8.20605
10.6369	287.687	8.22559
10.6402	311.462	8.24512
10.6405	308.134	8.26465
10.6415	295.525	8.28418
10.6445	308.803	8.30371
10.6439	313.164	8.32324
10.6473	298.065	8.34277
10.6479	310.279	8.3623
10.6506	318.417	8.38184
10.6518	302.794	8.40137
10.6531	306.747	8.4209
10.655	321.054	8.44043
10.6565	308.701	8.45996
10.658	306.794	8.47949
10.6596	325.236	8.49902
10.6606	318.206	8.51855
10.6627	308.708	8.53809
10.6649	321.196	8.55762
10.6668	322.407	8.57715
10.6683	311.345	8.59668
10.6688	323.978	8.61621
10.6709	330.01	8.63574
10.6725	316.393	8.65527
10.6756	319.373	8.6748
10.67688	336.1366	8.69434
10.6774	323.071	8.71387
10.679	322.316	8.7334
10.6812	338.213	8.75293
10.682	327.995	8.77246
10.6842	318.401	8.79199
10.686	339.099	8.81152
10.6875	334.176	8.83105
10.6894	322.827	8.85059
10.6916	339.853	8.87012
10.6914	341.7308	8.88965
10.6943	323.723	8.90918
10.6963	338.021	8.92871
10.6973	346.2038	8.94824
10.6982	331.115	8.96777
10.7005	335.999	8.9873
10.702	349.078	9.00684
10.7032	336.696	9.02637
10.7053	337.387	9.0459
10.7069	353.996	9.06543
10.70836	342.932	9.08496
10.7107	337.713	9.10449
10.7114	352.846	9.12402
10.7126	351.125	9.14355
10.7151	337.32	9.16309
10.7163	355.146	9.18262
10.71906	357.508	9.20215
10.7199	343.235	9.22168
10.721	348.964	9.24121
10.72275	364.62	9.26074
10.725	345.838	9.28027
10.7275	354.924	9.2998
10.7269	368.534	9.31934
10.7294	354.442	9.33887
10.7319	347.376	9.3584
10.7338	372.35	9.37793
10.7355	361.0719	9.39746
10.7357	351.589	9.41699
10.73801	369.853	9.43652
10.7396	368.4	9.45605
10.7403	351.804	9.47559
10.74334	371.612	9.49512
10.7442	373.9603	9.51465
10.7453	359.422	9.53418
10.7469	369.461	9.55371
10.7497	379.085	9.57324
10.7512	359.926	9.59277
10.7523	368.219	9.6123
10.7534	384.685	9.63184
10.7553	371.074	9.65137
10.7567	366.667	9.6709
10.7585	382.976	9.69043
10.7607	375.5881	9.70996
10.7621	368.727	9.72949
10.7642	387.961	9.74902
10.76648	382.31	9.76855
10.767	370.632	9.78809
10.7693	382.743	9.80762
10.77113	392.051	9.82715
10.7717	371.1228	9.84668
10.7743	385.906	9.86621
10.7749	396.277	9.88574
10.7774	380.919	9.90527
10.7785	379.552	9.9248
10.7802	400.99	9.94434
10.7816	384.498	9.96387
10.7838	383.763	9.9834
10.7847	401.298	10.00293
10.7867	392.975	10.0225
10.7886	379.101	10.042
10.79	403.801	10.0615
10.7918	401.026	10.0811
10.7931	385.055	10.1006
10.7951	400.6554	10.1201
10.7964	407.432	10.1396
10.7981	387.2355	10.15918
10.8003	399.583	10.1787
10.8004	410.87	10.1982
10.8025	394.752	10.2178
10.8044	399.135	10.2373
10.8058	414.01	10.2568
10.80679	398.306	10.2764
10.8089	397.852	10.2959
10.81176	419.001	10.31543
10.8128	409.001	10.335
10.8139	399.986	10.3545
10.8157	415.305	10.374
10.8175	415.306	10.3936
10.8191	400.842	10.4131
10.8214	416.293	10.4326
10.8224	421.435	10.4521
10.8242	405.814	10.47168
10.8274	412.609	10.4912
10.8277	428.139	10.5107
10.8285	409.586	10.5303
10.8304	412.482	10.5498
10.8323	432.338	10.5693
10.8343	418.422	10.5889
10.8353	408.717	10.6084
10.8369	433.505	10.62793
10.8384	424.277	10.6475
10.8399	413.6908	10.667
10.8412	434.045	10.6865
10.8444	430.0231	10.7061
10.84482	412.685	10.7256
10.8475	433.731	10.7451
10.8477	439.476	10.7646
10.8497	420.883	10.78418
10.85164	431.148	10.8037
10.8537	442.92	10.8232
10.85564	425.879	10.8428
10.8561	430.133	10.8623
10.85851	445.614	10.8818
10.8597	433.759	10.9014
10.8608	429.051	10.9209
10.8632	446.67	10.94043
10.8641	438.371	10.96
10.8668	427.37	10.9795
10.8696	450.184	10.999
10.8698	447.626	11.0186
10.8716	432.524	11.0381
10.8728	443.918	11.0576
10.8746	456.071	11.0771
10.876	435.864	11.09668
10.8777	446.533	11.1162
10.8784	459.0325	11.1357
10.8813	442.648	11.1553
10.8828	441.982	11.1748
10.8837	465.6423	11.1943
10.8848	446.597	11.2139
10.8873	443.9249	11.2334
10.8905	464.801	11.25293
10.8906	456.828	11.2725
10.8922	440.22	11.292
10.8933	465.28	11.3115
10.8955	463.3381	11.3311
10.8984	446.126	11.3506
10.89865	463.658	11.3701
10.9006	469.043	11.3896
10.9023	449.32	11.40918
10.9037	463.522	11.4287
10.9047	476.613	11.4482
10.9068	457.903	11.4678
10.9087	460.671	11.4873
10.9098	476.793	11.5068
10.9115	463.892	11.5264
10.9136	458.621	11.5459
10.9149	479.753	11.56543
10.91717	472.15	11.585
10.9194	462.146	11.6045
10.92039	477.315	11.624
10.9222	479.13	11.6436
10.9233	461.776	11.6631
10.9244	478.236	11.6826
10.9269	486.946	11.7021
10.9279	466.4527	11.72168
10.929	473.266	11.7412
10.9315	491.5549	11.7607
10.9331	472.408	11.7803
10.9346	474.414	11.7998
10.9364	491.319	11.8193
10.9373	479.973	11.8389
10.9398	471.227	11.8584
10.9407	495.82	11.87793
10.9422	485.386	11.8975
10.9443	473.51	11.917
10.9469	496.199	11.9365
10.9476	494.216	11.9561
10.9494	475.202	11.9756
10.951	492.74	11.9951
10.9519	501.464	12.0146
10.9547	482.261	12.03418
10.9559	493.825	12.0537
10.9571	501.542	12.0732
10.9597	486.028	12.0928
10.9607	489.188	12.1123
10.9629	510.837	12.1318
10.9644	492.204	12.1514
10.9655	489.5329	12.1709
10.96682	507.247	12.19043
10.9688	502.314	12.21
10.9713	490.1647	12.2295
10.972	510.787	12.249
10.973	508.866	12.2686
10.9763	494.124	12.2881
10.9765	506.5896	12.3076
10.9789	515.649	12.3271
10.98	494.796	12.34668
10.9827	507.249	12.3662
10.983	521.7049	12.3857
10.98437	503.3623	12.4053
10.986	502.372	12.4248
10.9883	524.805	12.4443
10.9894	511.5	12.4639
10.9912	505.097	12.4834
10.993	524.6983	12.50293
10.9951	514.5116	12.5225
10.9959	502.492	12.542
10.9984	526.726	12.5615
10.9995	523.066	12.5811
11.001	505.671	12.6006
11.0043	523.501	12.6201
11.0046	528.769	12.6396
11.0062	509.585	12.65918
11.0078	518.758	12.6787
11.0101	535.618	12.6982
11.012	515.806	12.7178
11.013	522.038	12.7373
11.0145	535.129	12.7568
11.0164	524.541	12.7764
11.01751	518.645	12.7959
11.02	539.3	12.81543
11.0209	530.95	12.835
11.0219	519.19	12.8545
11.0249	536.0636	12.874
11.0264	541.229	12.8936
11.0265	520.185	12.9131
11.0295	537.238	12.9326
11.03143	546.056	12.9521
11.0324	526.127	12.97168
11.0344	533.822	12.9912
11.0354	551.106	13.0107
11.0389	531.075	13.0303
11.0383	535.336	13.0498
11.0408	554.366	13.0693
11.0425	538.794	13.0889
11.044	529.435	13.1084
11.0462	555.42	13.12793
11.0476	547.416	13.1475
11.0489	532.92	13.167
11.04897	553.16	13.1865
11.05213	550.942	13.2061
11.0539	533.088	13.2256
11.0562	552.184	13.2451
11.0578	559.9	13.2646
11.0585	538.503	13.28418
11.0598	548.94	13.3037
11.0614	562.469	13.3232
11.0632	545.161	13.3428
11.065	548.343	13.3623
11.0652	568.2583	13.3818
11.0685	553.957	13.4014
11.0691	548.901	13.4209
11.07098	563.518	13.44043
11.073	560.776	13.46
11.0745	547.13	13.4795
11.0768	569.64	13.499
11.0779	567.888	13.5186
11.0794	550.119	13.5381
11.0811	563.2735	13.5576
11.08217	577.451	13.5771
11.084	554.671	13.59668
11.08644	564.115	13.6162
11.0873	578.811	13.6357
11.0893	560.695	13.6553
11.09069	561.108	13.6748
11.0926	581.498	13.6943
11.09466	565.639	13.7139
11.0955	562.255	13.7334
11.0978	583.9613	13.75293
11.0989	573.107	13.7725
11.1002	557.8623	13.792
11.1021	583.098	13.8115
11.1048	581.803	13.8311
11.1044	563.832	13.8506
11.10749	580.706	13.8701
11.1093	585.973	13.8896
11.1099	568.689	13.90918
11.1115	577.799	13.9287
11.1134	593.057	13.9482
11.1157	572.806	13.9678
11.1168	579.296	13.9873
11.1184	594.482	14.0068
11.1203	582.12	14.0264
11.12248	573.958	14.0459
11.1234	597.428	14.06543
11.1254	589.899	14.085
11.1268	578.07	14.1045
11.1277	592.481	14.124
11.1299	597.183	14.1436
11.1318	578.886	14.1631
11.1321	597.299	14.1826
11.1346	602.828	14.2021
11.1364	583.252	14.22168
11.1386	588.812	14.2412
11.14	608.189	14.2607
11.141	588.983	14.2803
11.1431	590.925	14.2998
11.1443	610.748	14.3193
11.1469	595.748	14.3389
11.1485	587.529	14.3584
11.1498	611.55	14.37793
11.15119	602.1853	14.3975
11.1527	589.216	14.417
11.1543	612.049	14.4365
11.1569	608.54	14.4561
11.1581	590.116	14.4756
11.1584	607.8902	14.4951
11.1604	617.874	14.5146
11.1616	595.235	14.53418
11.1636	607.203	14.5537
11.16622	617.749	14.5732
11.1674	603.17	14.5928
11.1692	603.945	14.6123
11.1703	624.923	14.6318
11.1723	609.412	14.6514
11.1734	605.1427	14.6709
11.1754	623.538	14.69043
11.1765	619.936	14.71
11.1785	602.6	14.7295
11.1814	624.809	14.749
11.1827	625.125	14.7686
11.183	609.2644	14.7881
11.1852	618.414	14.8076
11.1872	632.504	14.8271
11.1883	609.91	14.84668
11.1909	622.658	14.8662
11.1921	637.148	14.8857
11.1926	614.823	14.9053
11.1956	616.237	14.9248
11.1965	640.211	14.9443
11.1982	624.1261	14.9639
11.1993	615.793	14.9834
11.2013	640.092	15.00293
11.2037	629.48	15.0225
11.2042	617.003	15.042
11.2062	638.774	15.0615
11.208	638.547	15.0811
11.2094	620.681	15.1006
11.2105	638.8103	15.1201
11.2128	641.252	15.1396
11.2143	624.498	15.15918
11.2165	633.4079	15.1787
11.21818	651.646	15.1982
11.2197	631.807	15.2178
11.2204	632.912	15.2373
11.2225	647.286	15.2568
11.2249	640.671	15.2764
11.2246	630.645	15.2959
11.2278	655.098	15.31543
11.2286	645.476	15.335
11.2306	632.941	15.3545
11.2326	650.426	15.374
11.2344	654.569	15.3936
11.235	634.3	15.4131
11.2365	650.669	15.4326
11.2382	659.093	15.4521
11.2403	638.898	15.47168
11.242	645.7016	15.4912
11.2439	662.948	15.5107
11.2454	643.977	15.5303
11.2463	646.285	15.5498
11.2485	666.673	15.5693
11.2501	650.596	15.5889
11.2521	644.116	15.6084
11.2538	668.825	15.62793
11.2558	660.316	15.6475
11.2562	644.112	15.667
11.2584	666.771	15.6865
11.2604	665.206	15.7061
11.26079	650.087	15.7256
11.2633	662.858	15.7451
11.2643	672.333	15.7646
11.2666	651.262	15.78418
11.2682	663.336	15.8037
11.2698	673.314	15.8232
11.2707	657.218	15.8428
11.27286	658.411	15.8623
11.2752	681.446	15.8818
11.2762	666.516	15.9014
11.2772	658.549	15.9209
11.2798	676.56	15.94043
11.2816	674.6076	15.96
11.2834	659.998	15.9795
11.2844	680.638	15.999
11.2864	681.462	16.0186
11.2883	662.135	16.0381
11.2885	676.826	16.0576
11.2904	686.927	16.0771
11.2927	664.908	16.09668
11.2945	675.186	16.1162
11.2956	691.391	16.1357
11.2974	672.003	16.1553
11.2981	672.353	16.1748
11.3017	693.317	16.1943
11.3027	679.331	16.2139
11.304	672.263	16.2334
11.3054	693.533	16.25293
11.3079	681.2652	16.2725
11.3093	672.148	16.292
11.31	690.775	16.3115
11.3119	694.254	16.3311
11.3137	674.281	16.3506
11.3155	692.364	16.3701
11.3175	696.306	16.3896
11.3179	681.644	16.40918
11.3201	687.729	16.4287
11.3224	703.183	16.4482
11.3242	685.473	16.4678
11.32568	688.931	16.4873
11.3268	703.912	16.5068
11.3272	691.796	16.5264
11.3293	684.628	16.5459
11.3324	707.9	16.56543
11.3334	700.164	16.585
11.335	685.306	16.6045
11.337	702.158	16.624
11.3372	706.479	16.6436
11.3406	688.363	16.6631
11.3404	701.562	16.6826
11.34389	712.604	16.7021
11.3444	690.0343	16.72168
11.3464	699.879	16.7412
11.3474	718.501	16.7607
11.3491	696.462	16.7803
11.3507	697.509	16.7998
11.352	720.502	16.8193
11.354	702.279	16.8389
11.3561	696.675	16.8584
11.3584	717.7865	16.87793
11.3588	712.923	16.8975
11.3607	698.958	16.917
11.3621	721.249	16.9365
11.3646	714.194	16.9561
11.3658	701.387	16.9756
11.3671	717.444	16.9951
11.3689	727.325	17.0146
11.3701	704.861	17.03418
11.3724	714.0271	17.0537
11.3747	727.649	17.0732
11.3746	714.202	17.0928
11.3766	711.329	17.1123
11.3783	732.03	17.1318
11.3808	718.831	17.1514
11.3815	712.5426	17.1709
11.3844	731.151	17.19043
11.3851	725.2475	17.21
11.386	710.91	17.2295
11.3876	731.54	17.249
11.3899	732.679	17.2686
11.3916	712.702	17.2881
11.393	726.016	17.3076
11.3953	737.61	17.3271
11.3966	718.179	17.34668
11.3977	726.921	17.3662
11.4007	742.807	17.3857
11.4004	721.368	17.4053
11.40386	723.971	17.4248
11.4062	744.815	17.4443
11.4065	730.249	17.4639
11.4086	724.437	17.4834
11.4104	747.666	17.50293
11.4105	734.6026	17.5225
11.4143	724.727	17.542
11.4135	742.62	17.5615
11.4162	745.659	17.5811
11.4175	726.983	17.6006
11.4188	743.435	17.6201
11.421	745.741	17.6396
11.4229	729.9209	17.65918
11.4251	741.149	17.6787
11.4263	755.624	17.6982
11.4274	736.368	17.7178
11.4291	737.249	17.7373
11.4312	754.162	17.7568
11.432	745.983	17.7764
11.4343	735.737	17.7959
11.4355	756.448	17.81543
11.4373	750.556	17.835
11.43883	736.7135	17.8545
11.4413	753.957	17.874
11.442	755.222	17.8936
11.4438	736.936	17.9131
11.4455	754.999	17.9326
11.4472	764.624	17.9521
11.4486	740.834	17.97168
11.4488	749.945	17.9912
11.4516	766.206	18.0107
11.4536	748.82	18.0303
11.455	749.992	18.0498
11.4562	767.886	18.0693
11.459	751.353	18.0889
11.459	748.6651	18.1084
11.4614	769.066	18.12793
11.46249	762.193	18.1475
11.4654	748.222	18.167
11.4666	770.1264	18.1865
11.4687	765.541	18.2061
11.46999	753.754	18.2256
11.4716	763.81	18.2451
11.4738	774.776	18.2646
11.4743	758	18.28418
11.4758	766.354	18.3037
11.47763	774.885	18.3232
11.4799	762.259	18.3428
11.4818	762.194	18.3623
11.4829	780.252	18.3818
11.4842	767.036	18.4014
11.4862	760.61	18.4209
11.4883	781.4267	18.44043
11.4895	774.456	18.46
11.49078	760.985	18.4795
11.4927	778.7326	18.499
11.4943	781.05	18.5186
11.49635	763.475	18.5381
11.4978	779.095	18.5576
11.4989	785.6095	18.5771
11.5004	767.78	18.59668
11.5031	776.01	18.6162
11.5039	792.437	18.6357
11.5055	768.662	18.6553
11.5069	774.482	18.6748
11.509	792.7215	18.6943
11.5098	780.158	18.7139
11.5124	773.533	18.7334
11.51453	794.739	18.75293
11.5159	782.948	18.7725
11.5174	775.174	18.792
11.5184	792.781	18.8115
11.5205	792.105	18.8311
11.5222	775.929	18.8506
11.5229	792.29	18.8701
11.526	797.1322	18.8896
11.5263	780.547	18.90918
11.5272	787.525	18.9287
11.5311	803.226	18.9482
11.5325	785.129	18.9678
11.5327	787.599	18.9873
11.5349	801.899	19.0068
11.5367	790.878	19.0264
11.539	785.004	19.0459
11.5402	806.791	19.06543
11.542	798.755	19.085
11.5433	783.966	19.1045
11.5447	802.902	19.124
11.5469	804.542	19.1436
11.5475	787.121	19.1631
11.54921	802.226	19.1826
11.5512	811.151	19.2021
11.5534	788.806	19.22168
11.5544	801.258	19.2412
11.5561	812.574	19.2607
11.5579	796.284	19.2803
11.5598	797.728	19.2998
11.56082	818.899	19.3193
11.5617	799.121	19.3389
11.5646	797.726	19.3584
11.566	816.194	19.37793
11.56768	809.324	19.3975
11.5692	799.053	19.417
11.56997	817.323	19.4365
11.57209	812.356	19.4561
11.5744	801.396	19.4756
11.575	815.797	19.4951
11.5762	822.467	19.5146
11.5796	801.778	19.53418
11.58026	814.077	19.5537
11.5824	823.506	19.5732
11.58389	808.84	19.5928
11.586	808.69	19.6123
11.5877	827.801	19.6318
11.58831	813.321	19.6514
11.5896	808.346	19.6709
11.5921	826.478	19.69043
11.594	819.927	19.71
11.5949	809.725	19.7295
11.5965	829.482	19.749
11.5988	827.4079	19.7686
11.5997	808.421	19.7881
11.60126	827.401	19.8076
11.6035	831.6709	19.8271
11.6048	815.174	19.84668
11.606	823.917	19.8662
11.608	838.232	19.8857
11.6101	814.904	19.9053
11.61108	823.618	19.9248
11.614	836.922	19.9443
11.6147	825.37	19.9639
11.616	819.48	19.9834
11.6179	841.822	20.00293
11.6193	840.416	20.0127

Data Header:			0.254_solid_uprint_typei_4545_r0			Time:	40.0178	s	4/14/2019 4:29:56 AM
Data Acquisition:	Timed
Station Name:	ft40.cfg
Test File Name:	monotonic_0.2540_typei_solid_4545_uprint.tst
Displacement	Force	Running Time
mm	N	s
11.6204	828.285	20.0225
11.6218	821.147	20.042
11.6234	839.8255	20.0615
11.6241	839.697	20.0811
11.6256	823.056	20.1006
11.6279	837.676	20.1201
11.62959	840.763	20.1396
11.63043	826.893	20.15918
11.6334	836.84	20.1787
11.63291	846.911	20.1982
11.6353	828.682	20.2178
11.6381	831.791	20.2373
11.6389	849.093	20.2568
11.64145	835.581	20.2764
11.64238	829.955	20.2959
11.6436	850.93	20.31543
11.6449	844.055	20.335
11.64642	828.188	20.3545
11.6495	848.997	20.374
11.65098	847.65	20.3936
11.6514	833.068	20.4131
11.6533	850.477	20.4326
11.6561	856.717	20.4521
11.6581	831.204	20.47168
11.6588	846.064	20.4912
11.6608	859.295	20.5107
11.662	840.445	20.5303
11.6636	843.734	20.5498
11.6649	861.47	20.5693
11.6668	842.911	20.5889
11.6679	845.039	20.6084
11.6704	862.362	20.62793
11.6724	852.94	20.6475
11.6727	843.993	20.667
11.6751	864.1322	20.6865
11.6763	857.642	20.7061
11.6776	844.496	20.7256
11.6798	857.922	20.7451
11.6815	865.535	20.7646
11.683	848.151	20.78418
11.6848	854.951	20.8037
11.6868	866.2713	20.8232
11.6872	851.956	20.8428
11.68927	855.399	20.8623
11.6911	870.4	20.8818
11.6926	856.672	20.9014
11.6946	852.078	20.9209
11.69605	871.7384	20.94043
11.698	862.911	20.96
11.6999	853.389	20.9795
11.7013	870.495	20.999
11.70298	870.266	21.0186
11.7043	852.085	21.0381
11.7058	870.1236	21.0576
11.7078	871.735	21.0771
11.709	857.853	21.09668
11.71011	867.4834	21.1162
11.7126	880.534	21.1357
11.7146	857.754	21.1553
11.71536	866.245	21.1748
11.7183	881.666	21.1943
11.7189	867.894	21.2139
11.7204	862.995	21.2334
11.7228	881.6936	21.25293
11.7243	870.591	21.2725
11.725	865.673	21.292
11.7255	880.398	21.3115
11.7293	877.674	21.3311
11.7294	864.858	21.3506
11.732	880.672	21.3701
11.7346	882.04	21.3896
11.7358	864.327	21.40918
11.7364	876.351	21.4287
11.7383	888.669	21.4482
11.7405	872.93	21.4678
11.7414	873.287	21.4873
11.74263	890.464	21.5068
11.7448	875.942	21.5264
11.7468	874.208	21.5459
11.7479	891.296	21.56543
11.7497	883.053	21.585
11.7503	869.826	21.6045
11.7529	892.749	21.624
11.7544	890.718	21.6436
11.7561	875.004	21.6631
11.7578	891.556	21.6826
11.7595	895.431	21.7021
11.7606	874.708	21.72168
11.7628	887.974	21.7412
11.7644	897.345	21.7607
11.7659	882.153	21.7803
11.7682	886.781	21.7998
11.7687	902.917	21.8193
11.7705	882.431	21.8389
11.7727	885.4	21.8584
11.7742	901.263	21.87793
11.7755	892.906	21.8975
11.7768	882.758	21.917
11.7789	902.346	21.9365
11.7804	895.386	21.9561
11.7824	886.109	21.9756
11.78336	899.194	21.9951
11.78464	901.778	22.0146
11.7867	888.402	22.03418
11.7883	896.676	22.0537
11.7909	907.072	22.0732
11.7912	888.897	22.0928
11.7936	895.891	22.1123
11.79574	911.767	22.1318
11.7967	899.125	22.1514
11.7982	889.626	22.1709
11.8002	911.183	22.19043
11.8017	902.725	22.21
11.8045	894.696	22.2295
11.805	910.974	22.249
11.8076	908.744	22.2686
11.80934	890.06	22.2881
11.8096	911.3559	22.3076
11.8118	912.222	22.3271
11.8123	896.23	22.34668
11.81461	906.093	22.3662
11.817	919.262	22.3857
11.81738	897.933	22.4053
11.8194	906.087	22.4248
11.8211	918.883	22.4443
11.8232	904.8819	22.4639
11.825	902.8172	22.4834
11.8256	922.045	22.50293
11.8273	907.849	22.5225
11.8291	903.8924	22.542
11.8309	922.4494	22.5615
11.83238	916.846	22.5811
11.8343	903.567	22.6006
11.8363	917.085	22.6201
11.8378	921.78	22.6396
11.839	906.714	22.65918
11.8401	916.272	22.6787
11.8429	925.618	22.6982
11.8434	910.748	22.7178
11.8457	911.502	22.7373
11.8477	929.3775	22.7568
11.8489	912.05	22.7764
11.8517	911.595	22.7959
11.8517	930.033	22.81543
11.8537	921.469	22.835
11.8566	906.737	22.8545
11.8572	930.334	22.874
11.8583	924.671	22.8936
11.8611	912.285	22.9131
11.862	928.176	22.9326
11.8621	930.824	22.9521
11.8653	910.917	22.97168
11.8666	926.714	22.9912
11.8686	934.786	23.0107
11.87	916.35	23.0303
11.8713	919.487	23.0498
11.8725	937.058	23.0693
11.8741	921.959	23.0889
11.876	920.653	23.1084
11.8779	937.663	23.12793
11.8796	928.108	23.1475
11.8808	921.348	23.167
11.88262	937.917	23.1865
11.88501	930.899	23.2061
11.8865	920.639	23.2256
11.8876	938.035	23.2451
11.8898	938.617	23.2646
11.8913	922.934	23.28418
11.89383	931.438	23.3037
11.894	943.103	23.3232
11.8958	925.484	23.3428
11.8971	931.357	23.3623
11.8993	945.369	23.3818
11.9002	933.302	23.4014
11.9035	927.291	23.4209
11.9044	948.566	23.44043
11.9056	935.639	23.46
11.9074	929.878	23.4795
11.91	948.44	23.499
11.9108	943.58	23.5186
11.9134	926.57	23.5381
11.9141	946.8183	23.5576
11.9153	945.758	23.5771
11.9176	931.758	23.59668
11.9193	942.232	23.6162
11.9207	951.161	23.6357
11.9224	931.6767	23.6553
11.9229	940.711	23.6748
11.9252	953.361	23.6943
11.9274	938.473	23.7139
11.9279	936.519	23.7334
11.931	953.943	23.75293
11.9326	943.5127	23.7725
11.934	937.049	23.792
11.9349	952.542	23.8115
11.9363	947.656	23.8311
11.9386	939.006	23.8506
11.9409	950.595	23.8701
11.94244	954.765	23.8896
11.9429	937.975	23.90918
11.9449	950.4978	23.9287
11.9456	960.106	23.9482
11.9478	943.516	23.9678
11.9504	943.159	23.9873
11.9509	962.298	24.0068
11.953	946.087	24.0264
11.954	943.459	24.0459
11.9555	961.714	24.06543
11.9589	954.207	24.085
11.9603	940.056	24.1045
11.96125	964.857	24.124
11.9618	955.894	24.1436
11.9655	943.967	24.1631
11.9656	961.183	24.1826
11.9671	963.768	24.2021
11.969	941.741	24.22168
11.9712	956.945	24.2412
11.9726	967.26	24.2607
11.9742	950.664	24.2803
11.9758	956.417	24.2998
11.9782	969.813	24.3193
11.9797	953.416	24.3389
11.98	954.667	24.3584
11.9826	971.769	24.37793
11.9845	958.143	24.3975
11.9866	951.37	24.417
11.9877	968.348	24.4365
11.9887	965.95	24.4561
11.9912	952.178	24.4756
11.9919	967.43	24.4951
11.9943	970.402	24.5146
11.9951	954.412	24.53418
11.9967	962.047	24.5537
11.9979	973.4	24.5732
12.0006	955.006	24.5928
12.002	963.393	24.6123
12.0037	976.747	24.6318
12.0047	962.48	24.6514
12.0069	955.386	24.6709
12.00857	980.542	24.69043
12.0109	965.926	24.71
12.0121	958.793	24.7295
12.0136	975.5719	24.749
12.0145	971.866	24.7686
12.0162	956.232	24.7881
12.0176	977.399	24.8076
12.019	975.765	24.8271
12.0213	961.214	24.84668
12.02248	973.154	24.8662
12.0249	982.809	24.8857
12.0269	960.145	24.9053
12.0288	968.381	24.9248
12.0288	982.786	24.9443
12.0318	968.033	24.9639
12.0313	966.64	24.9834
12.0337	980.436	25.00293
12.0363	972.063	25.0225
12.0373	964.601	25.042
12.0391	984.168	25.0615
12.041	977.117	25.0811
12.04267	964.926	25.1006
12.0434	978.813	25.1201
12.0463	984.136	25.1396
12.047	965.286	25.15918
12.0489	977.119	25.1787
12.0505	985.698	25.1982
12.0525	972.107	25.2178
12.0538	971.8678	25.2373
12.0561	989.473	25.2568
12.0576	972.123	25.2764
12.0587	973.61	25.2959
12.0602	991.268	25.31543
12.0618	980.011	25.335
12.06429	967.135	25.3545
12.0664	991.299	25.374
12.0673	985.687	25.3936
12.0694	971.4079	25.4131
12.07104	986.372	25.4326
12.0719	989.742	25.4521
12.07361	970.9873	25.47168
12.0751	985.466	25.4912
12.0762	992.617	25.5107
12.0789	974.083	25.5303
12.07949	981.877	25.5498
12.081	995.753	25.5693
12.0829	978.8042	25.5889
12.0852	977.1817	25.6084
12.08609	996.449	25.62793
12.0883	984.33	25.6475
12.0887	977.433	25.667
12.0914	991.935	25.6865
12.09207	991.802	25.7061
12.0946	977.67	25.7256
12.0957	993.087	25.7451
12.0979	994.268	25.7646
12.0996	979.301	25.78418
12.1003	987.05	25.8037
12.1023	1000.56	25.8232
12.104	979.903	25.8428
12.1061	987.22	25.8623
12.1074	1001.63	25.8818
12.1086	986.43	25.9014
12.1121	981.191	25.9209
12.1128	1002.641	25.94043
12.1143	989.823	25.96
12.1142	983.44	25.9795
12.1178	1000.31	25.999
12.1194	995.001	26.0186
12.12073	979.719	26.0381
12.1218	999.199	26.0576
12.1237	1000.67	26.0771
12.1254	983.026	26.09668
12.1273	994.68	26.1162
12.1281	1002.85	26.1357
12.1306	985.816	26.1553
12.1324	994.074	26.1748
12.1333	1006.66	26.1943
12.1343	989.317	26.2139
12.1372	991.224	26.2334
12.1381	1005.07	26.25293
12.1401	996.072	26.2725
12.1408	985.638	26.292
12.14278	1006.77	26.3115
12.145	1002.32	26.3311
12.14744	989.878	26.3506
12.1477	999.826	26.3701
12.1503	1006.65	26.3896
12.15143	989.845	26.40918
12.1527	1001.8	26.4287
12.1553	1009.44	26.4482
12.1567	992.9585	26.4678
12.1579	994.549	26.4873
12.1591	1012.74	26.5068
12.1611	995.807	26.5264
12.1628	995.121	26.5459
12.1642	1011.07	26.56543
12.1667	1002.29	26.585
12.1663	990.814	26.6045
12.1696	1010.43	26.624
12.1717	1005.68	26.6436
12.1729	993.697	26.6631
12.1735	1011.1	26.6826
12.1755	1007.51	26.7021
12.178	991.2403	26.72168
12.17875	1005.85	26.7412
12.1809	1014.91	26.7607
12.1834	996.612	26.7803
12.1846	1003.08	26.7998
12.1857	1014.04	26.8193
12.1873	1001.96	26.8389
12.1888	1000.48	26.8584
12.1904	1017.66	26.87793
12.19127	1005.8	26.8975
12.193	999.144	26.917
12.1944	1014.34	26.9365
12.1969	1011.835	26.9561
12.1995	995.972	26.9756
12.2003	1015.43	26.9951
12.2016	1016.96	27.0146
12.2038	999.757	27.03418
12.2051	1006.42	27.0537
12.2066	1019.65	27.0732
12.2089	1000.83	27.0928
12.2097	1008.79	27.1123
12.21304	1020.34	27.1318
12.2128	1004.93	27.1514
12.2152	1000.56	27.1709
12.2168	1022.82	27.19043
12.21828	1008.2	27.21
12.2197	1000.72	27.2295
12.2206	1019.747	27.249
12.2237	1014.12	27.2686
12.2247	999.451	27.2881
12.22654	1017.27	27.3076
12.2276	1018.62	27.3271
12.22919	1003.07	27.34668
12.2317	1015.97	27.3662
12.233	1021.41	27.3857
12.2343	1003.93	27.4053
12.2353	1010.85	27.4248
12.237	1025.24	27.4443
12.2395	1009.53	27.4639
12.2407	1008.53	27.4834
12.2436	1021.84	27.50293
12.2444	1015.52	27.5225
12.2454	1006.57	27.542
12.2462	1024.35	27.5615
12.2492	1018.01	27.5811
12.2503	1006.55	27.6006
12.25271	1019.2	27.6201
12.2535	1025.78	27.6396
12.2564	1003.48	27.65918
12.2574	1018.59	27.6787
12.258	1026.47	27.6982
12.2606	1010.61	27.7178
12.2615	1012.77	27.7373
12.264	1029.49	27.7568
12.2659	1011.94	27.7764
12.2672	1012.13	27.7959
12.2688	1028.59	27.81543
12.2701	1016.26	27.835
12.2724	1007.23	27.8545
12.2731	1028.22	27.874
12.275	1020.95	27.8936
12.2763	1007.75	27.9131
12.2776	1025.46	27.9326
12.2803	1026.8	27.9521
12.2814	1009.28	27.97168
12.2834	1019.92	27.9912
12.2843	1029.63	28.0107
12.2878	1011.9	28.0303
12.28746	1020.5	28.0498
12.29	1028.06	28.0693
12.2914	1016.34	28.0889
12.2941	1014.84	28.1084
12.2947	1032.16	28.12793
12.2972	1021.09	28.1475
12.2988	1013.14	28.167
12.3002	1028.29	28.1865
12.3011	1026.69	28.2061
12.3015	1012.22	28.2256
12.3044	1027.97	28.2451
12.3058	1029.45	28.2646
12.3078	1013.66	28.28418
12.3108	1022.62	28.3037
12.3113	1033.12	28.3232
12.3118	1013.81	28.3428
12.3147	1021.19	28.3623
12.3152	1035.15	28.3818
12.3174	1020.14	28.4014
12.3194	1015.01	28.4209
12.3209	1034.061	28.44043
12.3231	1023.87	28.46
12.3239	1016.75	28.4795
12.32612	1034.18	28.499
12.327	1025.77	28.5186
12.3291	1013.59	28.5381
12.3308	1031.4	28.5576
12.3319	1031.38	28.5771
12.3332	1014.22	28.59668
12.3355	1028.51	28.6162
12.3366	1033.01	28.6357
12.33918	1019.12	28.6553
12.3406	1021.82	28.6748
12.3417	1038.312	28.6943
12.3439	1022.26	28.7139
12.3453	1021.2	28.7334
12.3464	1034.269	28.75293
12.3486	1024.943	28.7725
12.3503	1017.25	28.792
12.3517	1037.77	28.8115
12.3532	1031.13	28.8311
12.3543	1015.91	28.8506
12.3557	1030.5	28.8701
12.3575	1035.59	28.8896
12.3601	1018.46	28.90918
12.3612	1029.577	28.9287
12.3625	1036.74	28.9482
12.36448	1020.88	28.9678
12.3666	1024.66	28.9873
12.3672	1041.52	29.0068
12.36978	1022.9	29.0264
12.371	1022.6	29.0459
12.3728	1041.17	29.06543
12.3747	1028.58	29.085
12.3759	1018.25	29.1045
12.3777	1036.53	29.124
12.3808	1033.79	29.1436
12.3805	1019.84	29.1631
12.3825	1035.6	29.1826
12.384	1032.96	29.2021
12.38515	1021.013	29.22168
12.3872	1033.17	29.2412
12.3888	1040.96	29.2607
12.3905	1022.35	29.2803
12.3915	1030.54	29.2998
12.3947	1039.27	29.3193
12.3956	1027.75	29.3389
12.3969	1025.217	29.3584
12.39847	1042	29.37793
12.4006	1031.31	29.3975
12.4023	1024.43	29.417
12.4025	1038.73	29.4365
12.4047	1035.98	29.4561
12.4078	1022.96	29.4756
12.4089	1039.14	29.4951
12.4096	1039.95	29.5146
12.4119	1022.82	29.53418
12.4124	1031.52	29.5537
12.4148	1042.917	29.5732
12.4166	1025.64	29.5928
12.4181	1029.52	29.6123
12.41989	1043.97	29.6318
12.4207	1026.736	29.6514
12.4238	1026.11	29.6709
12.4244	1045.86	29.69043
12.4256	1032.68	29.71
12.4285	1025.1	29.7295
12.4297	1044.4	29.749
12.43094	1036.35	29.7686
12.4329	1023.82	29.7881
12.4349	1038.37	29.8076
12.4372	1041.99	29.8271
12.4373	1025.74	29.84668
12.4389	1038.71	29.8662
12.4414	1040.07	29.8857
12.4427	1028.575	29.9053
12.4442	1033.33	29.9248
12.4451	1045.74	29.9443
12.4466	1028.94	29.9639
12.4493	1031.27	29.9834
12.4509	1043.58	30.00293
12.4528	1035.29	30.0225
12.4537	1025.31	30.042
12.4551	1043.63	30.0615
12.4579	1039.4	30.0811
12.4587	1028	30.1006
12.4607	1040.2	30.1201
12.4628	1044.14	30.1396
12.4632	1025.7	30.15918
12.4658	1037.68	30.1787
12.4665	1046.94	30.1982
12.4695	1025.73	30.2178
12.47	1031.99	30.2373
12.4716	1047.67	30.2568
12.4738	1031.65	30.2764
12.4748	1029.22	30.2959
12.4765	1046.64	30.31543
12.479	1034.62	30.335
12.48001	1028.79	30.3545
12.4815	1045.91	30.374
12.4846	1040.42	30.3936
12.4856	1026.07	30.4131
12.4867	1045.83	30.4326
12.4883	1041.04	30.4521
12.4899	1028.79	30.47168
12.4916	1038.94	30.4912
12.4931	1047.7	30.5107
12.4947	1029.67	30.5303
12.4962	1037.006	30.5498
12.4973	1043.87	30.5693
12.4997	1033.97	30.5889
12.5014	1033.36	30.6084
12.5027	1048.61	30.62793
12.5035	1036.99	30.6475
12.5055	1030.11	30.667
12.50728	1043.82	30.6865
12.5083	1043.39	30.7061
12.5115	1028.51	30.7256
12.5134	1042.43	30.7451
12.5144	1045.28	30.7646
12.5168	1029.63	30.78418
12.5174	1038.55	30.8037
12.51872	1047.82	30.8232
12.5207	1030.88	30.8428
12.5223	1036.28	30.8623
12.52448	1051.51	30.8818
12.5254	1030.801	30.9014
12.5273	1032.23	30.9209
12.5297	1050.17	30.94043
12.53093	1038.926	30.96
12.53119	1030.17	30.9795
12.5341	1047.61	30.999
12.535	1038.86	31.0186
12.5374	1031.22	31.0381
12.5381	1043.69	31.0576
12.5402	1045.25	31.0771
12.5418	1032.17	31.09668
12.5437	1042.99	31.1162
12.54496	1047.63	31.1357
12.5468	1032.77	31.1553
12.5484	1037.32	31.1748
12.5492	1052.45	31.1943
12.5517	1037.41	31.2139
12.5537	1035.93	31.2334
12.554	1046.83	31.25293
12.5565	1040.249	31.2725
12.55772	1032.94	31.292
12.5595	1049.55	31.3115
12.5619	1042.65	31.3311
12.5632	1030.13	31.3506
12.5645	1044.15	31.3701
12.5664	1047.86	31.3896
12.56853	1030.86	31.40918
12.5688	1040.13	31.4287
12.5707	1050.24	31.4482
12.57239	1033.09	31.4678
12.5743	1040.62	31.4873
12.57643	1049.55	31.5068
12.5782	1036.94	31.5264
12.5795	1035.19	31.5459
12.5814	1053.47	31.56543
12.5824	1036.99	31.585
12.5842	1032.23	31.6045
12.5853	1050.26	31.624
12.5869	1044.36	31.6436
12.5891	1033.83	31.6631
12.5899	1048.85	31.6826
12.5925	1044.21	31.7021
12.5943	1034.18	31.72168
12.5948	1044.88	31.7412
12.5966	1050.23	31.7607
12.598	1033.1	31.7803
12.6002	1040.91	31.7998
12.6031	1048.69	31.8193
12.6028	1036.89	31.8389
12.6052	1034.755	31.8584
12.6073	1052.55	31.87793
12.6079	1042.07	31.8975
12.6101	1033.53	31.917
12.61214	1046.71	31.9365
12.6142	1045.1	31.9561
12.6141	1032.68	31.9756
12.61647	1047.74	31.9951
12.6188	1048.58	32.0146
12.6204	1030.06	32.03418
[...]
15.9589	1033.5	72.1123
15.96118	1043.85	72.1318
15.9623	1029.62	72.1514
15.9639	1027.59	72.1709
15.9653	1042.77	72.19043
15.9674	1030.94	72.21
15.9692	1028.96	72.2295
15.9704	1043	72.249
15.9726	1034.51	72.2686
15.9746	1022.57	72.2881
15.9758	1040.1	72.3076
15.9775	1036.85	72.3271
15.97978	1025.81	72.34668
15.9806	1037.13	72.3662
15.981	1040.71	72.3857
15.9834	1025.43	72.4053
15.9852	1035.06	72.4248
15.9864	1041.17	72.4443
15.9889	1026.79	72.4639
15.99	1032.49	72.4834
15.9918	1041.42	72.50293
15.993	1031.25	72.5225
15.9942	1027.13	72.542
15.99752	1043.09	72.5615
15.9978	1034.73	72.5811
15.9998	1026.79	72.6006
16.0025	1036.65	72.6201
16.0034	1038.73	72.6396
16.0045	1025.9	72.65918
16.00679	1037.36	72.6787
16.0083	1039.75	72.6982
16.01026	1028.56	72.7178
16.01363	1032.3	72.7373
16.0118	1044.91	72.7568
16.0147	1026.5	72.7764
16.01631	1029.97	72.7959
16.0178	1043.584	72.81543
16.0193	1031.66	72.835
16.0211	1024.21	72.8545
16.0224	1041.05	72.874
16.0256	1033.28	72.8936
16.0266	1025.17	72.9131
16.0283	1041.228	72.9326
16.0304	1036.34	72.9521
16.0316	1024.4	72.97168
16.0331	1037.97	72.9912
16.0346	1040.981	73.0107
16.0353	1024.75	73.0303
16.0362	1034.55	73.0498
16.0391	1039.9	73.0693
16.0408	1028.91	73.0889
16.0423	1030.67	73.1084
16.0446	1042.3	73.12793
16.0462	1029.54	73.1475
16.0466	1031.28	73.167
16.0493	1039.58	73.1865
16.051	1035.5	73.2061
16.0524	1024.33	73.2256
16.0541	1040.06	73.2451
16.0555	1037.55	73.2646
16.056	1027.06	73.28418
16.0591	1032.03	73.3037
16.0603	1040.79	73.3232
16.0617	1025.88	73.3428
16.0631	1034.27	73.3623
16.0644	1040.57	73.3818
16.0662	1029.23	73.4014
16.0678	1027.06	73.4209
16.0691	1043.027	73.44043
16.0719	1030.34	73.46
16.074	1025.64	73.4795
16.0752	1042.78	73.499
16.0758	1033.269	73.5186
16.07815	1023.98	73.5381
16.0795	1039.74	73.5576
16.082	1036.17	73.5771
16.08252	1025.51	73.59668
16.0846	1037.6	73.6162
16.0865	1037.244	73.6357
16.088	1025.04	73.6553
16.0903	1033.34	73.6748
16.0902	1044.09	73.6943
16.093	1026.47	73.7139
16.0944	1031.18	73.7334
16.0966	1038.96	73.75293
16.0974	1033.03	73.7725
16.0999	1025.947	73.792
16.101	1039.97	73.8115
16.1018	1034.15	73.8311
16.1046	1027.21	73.8506
16.1048	1036.88	73.8701
16.1082	1038.395	73.8896
16.1094	1024.28	73.90918
16.1105	1037.6	73.9287
16.1115	1041.91	73.9482
16.1147	1027.23	73.9678
16.1145	1030.16	73.9873
16.1169	1042.57	74.0068
16.1197	1028.86	74.0264
16.1211	1030.24	74.0459
16.1225	1042.77	74.06543
16.1233	1029.43	74.085
16.125	1025.07	74.1045
16.1263	1042	74.124
16.1294	1034.44	74.1436
16.13026	1023.812	74.1631
16.132	1040.81	74.1826
16.1329	1035.81	74.2021
16.1352	1026.55	74.22168
16.1371	1035.58	74.2412
16.1388	1039.521	74.2607
16.1395	1026.46	74.2803
16.1415	1034.78	74.2998
16.1422	1037.06	74.3193
16.145	1029.09	74.3389
16.1473	1029.14	74.3584
16.1471	1044.08	74.37793
16.1493	1032.19	74.3975
16.15132	1029.33	74.417
16.1541	1038.86	74.4365
16.155	1035.22	74.4561
16.1569	1023.85	74.4756
16.1579	1037.69	74.4951
16.1599	1036.91	74.5146
16.1614	1026.619	74.53418
16.164	1034.7	74.5537
16.1649	1038.2	74.5732
16.1663	1024.2	74.5928
16.168	1033.38	74.6123
16.1691	1042.98	74.6318
16.1707	1025.79	74.6514
16.173	1026.58	74.6709
16.1735	1041.69	74.69043
16.1752	1031.51	74.71
16.1765	1027.3	74.7295
16.1796	1041.29	74.749
16.18017	1031.56	74.7686
16.182	1024.2	74.7881
16.1826	1038.72	74.8076
16.1841	1036.08	74.8271
16.1869	1023.11	74.84668
16.18861	1038.41	74.8662
16.1895	1037.45	74.8857
16.1926	1026.22	74.9053
16.1931	1029.81	74.9248
16.196	1040.75	74.9443
16.1968	1027.69	74.9639
16.19803	1030.693	74.9834
16.1996	1037.26	75.00293
16.2011	1030.32	75.0225
16.2029	1026.62	75.042
16.2043	1041.604	75.0615
16.207	1031.32	75.0811
16.2077	1025.05	75.1006
16.2096	1036.57	75.1201
16.2111	1038.97	75.1396
16.2124	1022.8	75.15918
16.2144	1034.44	75.1787
16.2164	1039.1	75.1982
16.2176	1026.51	75.2178
16.2193	1033.55	75.2373
16.22175	1039.99	75.2568
16.22337	1027.44	75.2764
16.2243	1028.19	75.2959
16.2259	1043.66	75.31543
16.2283	1027.44	75.335
16.2296	1024.251	75.3545
16.2317	1041.51	75.374
16.2324	1033.54	75.3936
16.2346	1023.31	75.4131
16.2356	1039.1	75.4326
16.2378	1033.38	75.4521
16.2382	1026.54	75.47168
16.24	1035.06	75.4912
16.2435	1038.81	75.5107
16.2432	1025.21	75.5303
16.2451	1032.85	75.5498
16.24752	1038.5	75.5693
16.2485	1027.8	75.5889
16.2501	1027.43	75.6084
16.2536	1040.81	75.62793
16.2534	1031.34	75.6475
16.2556	1027.76	75.667
16.2565	1037.51	75.6865
16.2598	1033.58	75.7061
16.2603	1023.53	75.7256
16.2619	1038.984	75.7451
16.2638	1036.64	75.7646
16.2656	1022.93	75.78418
16.2661	1034.01	75.8037
16.2685	1039.33	75.8232
16.2701	1025.59	75.8428
16.2718	1031.41	75.8623
16.2734	1040.76	75.8818
16.2745	1024.881	75.9014
16.2758	1030.44	75.9209
16.2783	1040.15	75.94043
16.2809	1029.91	75.96
16.2807	1025.83	75.9795
16.2824	1043.69	75.999
16.285	1030.59	76.0186
16.2862	1025.7	76.0381
16.288	1035.7	76.0576
16.28898	1037.649	76.0771
16.2905	1024.66	76.09668
16.29244	1034.72	76.1162
16.2947	1035.7	76.1357
16.2959	1027.73	76.1553
16.2973	1032.2	76.1748
16.2993	1039.4	76.1943
16.3009	1026.677	76.2139
16.302	1031.6	76.2334
16.3044	1038.22	76.25293
16.3054	1028.938	76.2725
16.307	1024.74	76.292
16.309	1039.76	76.3115
16.311	1034.09	76.3311
16.3131	1024.4	76.3506
16.3139	1035.82	76.3701
16.3162	1036.55	76.3896
16.31768	1024.7	76.40918
16.31978	1035.77	76.4287
16.32	1039.57	76.4482
16.3222	1022.73	76.4678
16.3245	1031.65	76.4873
16.3256	1038.78	76.5068
16.3263	1026.69	76.5264
16.3288	1025.95	76.5459
16.3301	1041.89	76.56543
16.3315	1027.83	76.585
16.3334	1026.14	76.6045
16.3347	1039.5	76.624
16.3365	1033.05	76.6436
16.3385	1024.1	76.6631
16.3407	1040.09	76.6826
16.3422	1031.7	76.7021
16.3431	1025	76.72168
16.3446	1033.9	76.7412
16.3472	1039.2	76.7607
16.3479	1023.877	76.7803
16.3497	1030.8	76.7998
16.3514	1037.17	76.8193
16.3532	1027.77	76.8389
16.3544	1026.3	76.8584
16.3556	1040.14	76.87793
16.35807	1027.69	76.8975
16.3593	1024.88	76.917
16.3616	1038.12	76.9365
16.3639	1032.01	76.9561
16.3651	1023.41	76.9756
16.3653	1036.69	76.9951
16.36762	1036.11	77.0146
16.3692	1021.53	77.03418
16.3704	1032.71	77.0537
16.3725	1037	77.0732
16.3745	1024.77	77.0928
16.3759	1032.27	77.1123
16.3773	1040.241	77.1318
16.3788	1022.83	77.1514
16.3807	1028.967	77.1709
16.3837	1038.87	77.19043
16.3837	1029.45	77.21
16.3841	1025.464	77.2295
16.3882	1040.7	77.249
16.3887	1030.78	77.2686
16.3911	1027.01	77.2881
16.3914	1035.8	77.3076
16.394	1035.28	77.3271
16.396	1023.9	77.34668
16.397	1036.15	77.3662
16.3987	1035.3	77.3857
16.3994	1021.92	77.4053
16.4015	1030.83	77.4248
16.4037	1039.13	77.4443
16.4045	1026.73	77.4639
16.4061	1028.26	77.4834
16.40888	1037.68	77.50293
16.4098	1030.26	77.5225
16.4117	1025.38	77.542
16.4133	1037.54	77.5615
16.4162	1032.47	77.5811
16.4159	1023.71	77.6006
16.4175	1037.63	77.6201
16.4204	1036.804	77.6396
16.4205	1022.05	77.65918
16.4227	1035.25	77.6787
16.4256	1040.22	77.6982
16.4261	1020.31	77.7178
16.4273	1030.58	77.7373
16.4287	1038.26	77.7568
16.4305	1026.18	77.7764
16.4327	1028.96	77.7959
16.4342	1040.48	77.81543
16.4357	1026.665	77.835
16.4372	1027.6	77.8545
16.4394	1039.23	77.874
16.4411	1032.6	77.8936
16.4432	1022.02	77.9131
16.4448	1037.59	77.9326
16.4453	1033.96	77.9521
16.4469	1024.22	77.97168
16.4501	1032.73	77.9912
16.4508	1036.08	78.0107
16.4518	1023.86	78.0303
16.4533	1029.28	78.0498
16.4549	1035.31	78.0693
16.4579	1022.368	78.0889
16.4578	1026.61	78.1084
16.461	1038.89	78.12793
16.4619	1027.88	78.1475
16.4643	1021.33	78.167
16.4653	1036.87	78.1865
16.4666	1031.1	78.2061
16.4683	1024.07	78.2256
16.4705	1035.28	78.2451
16.4718	1033.36	78.2646
16.472	1019.07	78.28418
16.4749	1036.05	78.3037
16.4765	1034.47	78.3232
16.47901	1023.38	78.3428
16.47982	1030.58	78.3623
16.4818	1040.07	78.3818
16.483	1022.23	78.4014
16.4857	1029.04	78.4209
16.4865	1037.52	78.44043
16.4879	1027.26	78.46
16.4898	1024.36	78.4795
16.4914	1038.21	78.499
16.4938	1026.82	78.5186
16.495	1023.76	78.5381
16.4963	1037.19	78.5576
16.4972	1034.33	78.5771
16.4992	1022.54	78.59668
16.5013	1034.18	78.6162
16.5033	1036.66	78.6357
16.5047	1023.01	78.6553
16.5054	1027.77	78.6748
16.509	1036.55	78.6943
16.5093	1027.52	78.7139
16.5107	1026.32	78.7334
16.5127	1038.06	78.75293
16.515	1026.58	78.7725
16.5159	1025.3	78.792
16.5172	1038.19	78.8115
16.5187	1031.35	78.8311
16.5211	1019.58	78.8506
16.5223	1037.3	78.8701
16.5238	1033.06	78.8896
16.52519	1022.23	78.90918
16.5278	1033.63	78.9287
16.5292	1036.42	78.9482
16.5305	1019.21	78.9678
16.5312	1031.97	78.9873
16.5337	1036.59	79.0068
16.5352	1023.12	79.0264
16.5354	1026.77	79.0459
16.5382	1040.465	79.06543
16.54	1024.09	79.085
16.5415	1024.37	79.1045
16.544	1036.12	79.124
16.5453	1030.3	79.1436
16.5467	1021.856	79.1631
16.5485	1031.11	79.1826
16.5499	1030.55	79.2021
16.5512	1022.16	79.22168
16.5534	1033.25	79.2412
16.554	1034.678	79.2607
16.5566	1022.78	79.2803
16.5577	1028.309	79.2998
16.5596	1036.95	79.3193
16.5613	1022.8	79.3389
16.5621	1022.63	79.3584
16.5642	1037.47	79.37793
16.5662	1028.24	79.3975
16.56785	1021.3	79.417
16.5698	1037.84	79.4365
16.5707	1028.39	79.4561
16.5727	1021.33	79.4756
16.5745	1036.99	79.4951
16.576	1034.64	79.5146
16.578	1015.73	79.53418
16.579	1031.77	79.5537
16.5811	1034.03	79.5732
16.58234	1022.35	79.5928
16.5844	1027.67	79.6123
16.5864	1035.4	79.6318
16.5875	1020.395	79.6514
16.58777	1027.23	79.6709
16.5901	1035.28	79.69043
16.592	1023.54	79.71
16.5944	1021.72	79.7295
16.5962	1037.22	79.749
16.5974	1025.86	79.7686
16.5993	1020.03	79.7881
16.60099	1034.29	79.8076
16.6022	1030.25	79.8271
16.6033	1021.15	79.84668
16.6051	1030.03	79.8662
16.6073	1033.23	79.8857
16.609	1020.51	79.9053
16.6096	1028.97	79.9248
16.6119	1034.83	79.9443
16.6132	1022.73	79.9639
16.6154	1023.4	79.9834
16.6174	1037.5	80.00293
16.61758	1033.07	80.0127

Data Header:			0.254_solid_uprint_typei_4545_r0			Time:	83.9773	s	4/14/2019 4:30:40 AM
Data Acquisition:	Timed
Station Name:	ft40.cfg
Test File Name:	monotonic_0.2540_typei_solid_4545_uprint.tst
Displacement	Force	Running Time
mm	N	s
16.6175	1024.01	80.0225
16.6188	1018.83	80.0322
16.6199	1020.44	80.042
16.6199	1027.63	80.0518
16.6215	1035.6	80.0615
16.6224	1035.38	80.0713
16.624	1030.35	80.0811
16.6238	1020.53	80.09082
16.6252	1017.4	80.1006
16.6257	1025.46	80.1104
16.6275	1033.92	80.1201
16.6266	1037.37	80.1299
16.6286	1030.8	80.1396
16.6299	1021.42	80.1494
16.6296	1020.149	80.15918
16.6316	1021.21	80.1689
16.63109	1032.52	80.1787
16.6317	1034.07	80.1885
16.6331	1036.26	80.1982
16.6349	1026.974	80.208
16.63435	1015.54	80.2178
16.6356	1020.54	80.2275
16.63529	1028.02	80.2373
16.6372	1034.91	80.24707
16.6374	1036.03	80.2568
16.6387	1027.7	80.2666
16.6393	1022.56	80.2764
16.6397	1020.62	80.2861
16.641	1024.47	80.2959
16.6413	1032.13	80.3057
16.6432	1036.22	80.31543
16.6434	1033.43	80.3252
16.6447	1022.82	80.335
16.6452	1016.68	80.3447
16.6463	1022.09	80.3545
16.6462	1031.44	80.3643
16.6474	1034.84	80.374
16.6483	1032.875	80.3838
16.649	1024.73	80.3936
16.6495	1021.48	80.40332
16.6513	1020.58	80.4131
16.6511	1023.41	80.4229
16.6526	1029.66	80.4326
16.65292	1034.89	80.4424
16.6546	1029.51	80.4521
16.65489	1020.38	80.4619
16.6555	1016.83	80.47168
16.6568	1022.86	80.4814
16.6569	1027.3	80.4912
16.65831	1031.66	80.501
16.6586	1031.47	80.5107
16.6602	1023.89	80.5205
16.6595	1018.85	80.5303
16.6614	1017.201	80.54
16.6628	1022.08	80.5498
16.6636	1032.4	80.55957
16.6634	1032.905	80.5693
16.6649	1028.59	80.5791
16.6653	1019.81	80.5889
16.6661	1016.71	80.5986
16.6692	1021.18	80.6084
16.6685	1027.95	80.6182
16.6679	1033.56	80.62793
16.6693	1031.47	80.6377
16.6706	1022.46	80.6475
16.671	1016.74	80.6572
16.6725	1014.578	80.667
16.6726	1023.15	80.6768
16.6738	1033.13	80.6865
16.675	1032.44	80.6963
16.67531	1021.74	80.7061
16.6765	1014.53	80.71582
16.6773	1014.966	80.7256
16.6779	1020.26	80.7354
16.6779	1026.2	80.7451
16.6793	1026.88	80.7549
16.6865	-79.4591	80.7646
16.688	0.953685	80.7744
16.6869	-51.7922	80.78418
16.6882	-48.8348	80.7939
16.6867	-31.10206	80.8037
16.688	-28.9567	80.8135
16.6879	-29.5572	80.8232
16.689	-41.8512	80.833
16.6886	-47.8786	80.8428
16.6897	-50.0343	80.8525
16.6907	-39.2033	80.8623
16.6912	-34.326	80.87207
16.6918	-28.1774	80.8818
16.6915	-34.1808	80.8916
16.6927	-49.167	80.9014
16.6936	-50.9377	80.9111
16.6942	-44.6979	80.9209
16.6941	-35.3163	80.9307
16.697	-29.5847	80.94043
16.6964	-33.7728	80.9502
16.6978	-41.806	80.96
16.6978	-48.4227	80.9697
16.6994	-48.21645	80.9795
16.7006	-40.0339	80.9893
16.7001	-32.5202	80.999
16.7003	-28.39636	81.0088
16.7033	-37.8267	81.0186
16.7031	-47.59153	81.02832
16.7042	-49.5837	81.0381
16.7043	-40.84116	81.0479
16.7052	-34.7206	81.0576
16.7069	-32.0312	81.0674
16.7059	-34.6438	81.0771
16.7077	-40.5134	81.0869
16.7091	-49.1757	81.09668
16.7095	-48.8166	81.1064
16.7107	-38.25705	81.1162
16.7112	-28.75219	81.126
16.7115	-31.3448	81.1357
16.7118	-38.16217	81.1455
16.7135	-51.0229	81.1553
16.714	-46.8914	81.165
16.715	-41.7768	81.1748
16.71526	-34.25	81.18457
16.717	-29.0228	81.1943
16.7182	-37.0288	81.2041
16.7172	-42.5889	81.2139
16.719	-50.7538	81.2236
16.7198	-48.4822	81.2334
16.7206	-37.1607	81.2432
16.7221	-28.50256	81.25293
16.7226	-32.7492	81.2627
16.72278	-41.8552	81.2725
16.7238	-50.2341	81.2822
16.725	-46.5866	81.292
16.7263	-40.7075	81.3018
16.7274	-32.1923	81.3115
16.7277	-30.767	81.3213
16.7275	-38.7678	81.3311
16.7283	-46.2807	81.34082
16.7292	-51.3725	81.3506
16.7309	-42.5789	81.3604
16.7308	-31.7057	81.3701
16.731	-31.1488	81.3799
16.7334	-36.8843	81.3896
16.7333	-46.0229	81.3994
16.7341	-49.4701	81.40918
16.7353	-43.2223	81.4189
16.7365	-35.9224	81.4287
16.737	-31.43943	81.4385
16.7376	-32.7103	81.4482
16.738	-40.8231	81.458
16.7385	-48.6936	81.4678
16.7396	-47.5121	81.4775
16.7412	-42.278	81.4873
16.7413	-31.4682	81.49707
16.7428	-33.7335	81.5068
16.7429	-40.82	81.5166
16.7439	-47.1245	81.5264
16.7454	-48.4018	81.5361
16.7456	-42.7718	81.5459
16.7469	-36.7646	81.5557
16.7474	-33.4331	81.56543
16.7466	-33.8275	81.5752
16.7494	-44.3512	81.585
16.7496	-46.5521	81.5947
16.7508	-47.24815	81.6045
16.7506	-38.2423	81.6143
16.7521	-32.6844	81.624
16.7535	-34.9886	81.6338
16.7531	-40.8378	81.6436
16.7555	-45.4629	81.65332
16.7552	-49.7117	81.6631
16.75684	-42.453	81.6729
16.7571	-36.7681	81.6826
16.7571	-30.8753	81.6924
16.7604	-34.4415	81.7021
16.7598	-45.6551	81.7119
16.7609	-49.3481	81.72168
16.761	-46.0296	81.7314
16.7613	-38.3544	81.7412
16.7636	-34.67244	81.751
16.7634	-35.13921	81.7607
16.7642	-38.4036	81.7705
16.7652	-46.4341	81.7803
16.7663	-48.3764	81.79
16.7681	-41.7687	81.7998
16.7681	-34.80574	81.80957
16.7685	-29.2923	81.8193
16.7686	-37.118	81.8291
16.77006	-48.0292	81.8389
16.7708	-48.839	81.8486
16.77042	-43.36375	81.8584
16.7718	-37.6341	81.8682
16.7731	-29.1376	81.87793
16.77375	-35.8136	81.8877
16.77478	-41.9226	81.8975
16.7764	-49.0811	81.9072
16.7755	-50.1735	81.917
16.7774	-41.153	81.9268
16.77877	-32.4594	81.9365
16.7787	-31.5904	81.9463
16.7795	-40.7066	81.9561
16.78084	-49.8176	81.96582
16.782	-48.4458	81.9756
16.7819	-41.91713	81.9854
16.7825	-34.9843	81.9951
16.7847	-31.3957	82.0049
16.7844	-36.9065	82.0146
16.78536	-42.9546	82.0244
16.7869	-51.0778	82.03418
16.78722	-47.352	82.0439
16.7879	-37.6145	82.0537
16.7886	-31.1569	82.0635
16.7898	-34.2951	82.0732
16.7904	-44.1607	82.083
16.7913	-49.9853	82.0928
16.7913	-46.2704	82.1025
16.7931	-41.6903	82.1123
16.794	-35.2366	82.12207
16.7947	-31.88084	82.1318
16.7968	-38.9672	82.1416
16.7967	-47.3658	82.1514
16.79731	-46.844	82.1611
16.7974	-44.5949	82.1709
16.7985	-34.2217	82.1807
16.7997	-33.848	82.19043
16.80057	-37.98217	82.2002
16.8004	-43.5391	82.21
16.8018	-48.4896	82.2197
16.8025	-42.731	82.2295
16.80295	-41.3669	82.2393
16.8044	-34.72419	82.249
16.8048	-32.5631	82.2588
16.8066	-40.4182	82.2686
16.8072	-46.92746	82.27832
16.8074	-49.2841	82.2881
16.8081	-43.0455	82.2979
16.8088	-34.8648	82.3076
16.8103	-35.6382	82.3174
16.81	-37.23159	82.3271
16.8107	-44.3431	82.3369
16.8125	-50.0993	82.34668
16.8127	-45.6909	82.3564
16.8126	-41.4701	82.3662
16.8148	-33.08012	82.376
16.8164	-32.0463	82.3857
16.816	-41.3787	82.3955
16.8167	-48.9694	82.4053
16.8185	-49.706	82.415
16.8194	-41.5559	82.4248
16.8204	-33.9441	82.43457
16.82058	-32.8037	82.4443
16.8213	-38.6322	82.4541
16.8222	-45.4265	82.4639
16.8221	-50.0818	82.4736
16.8232	-45.161	82.4834
16.8236	-39.1378	82.4932
16.8261	-30.0602	82.50293
16.8259	-34.0659	82.5127
16.8266	-46.1888	82.5225
16.8276	-49.5939	82.5322
16.8284	-47.4195	82.542
16.8293	-40.662	82.5518
16.8296	-31.7181	82.5615
16.8309	-34.3902	82.5713
16.8315	-38.6719	82.5811
16.8323	-47.9441	82.59082
16.833	-51.3155	82.6006
16.83428	-41.3612	82.6104
16.8342	-34.5722	82.6201
16.8353	-30.9467	82.6299
16.8358	-38.0434	82.6396
16.8376	-48.4868	82.6494
16.8377	-48.4705	82.65918
16.8394	-44.5124	82.6689
16.8396	-37.769	82.6787
16.8414	-32.5502	82.6885
16.8412	-37.6664	82.6982
16.8436	-41.4932	82.708
16.8439	-49.6893	82.7178
16.8436	-48.5933	82.7275
16.8447	-40.9441	82.7373
16.84552	-32.5405	82.74707
16.846	-32.66917	82.7568
16.8474	-41.1513	82.7666
16.8482	-47.1409	82.7764
16.8494	-45.66864	82.7861
16.8499	-43.254	82.7959
16.8508	-37.731	82.8057
16.8521	-34.6148	82.81543
16.8513	-37.7952	82.8252
16.8528	-43.6428	82.835
16.8532	-47.8974	82.8447
16.8537	-47.2037	82.8545
16.8552	-37.3537	82.8643
16.8571	-34.11808	82.874
16.8567	-34.9703	82.8838
16.8582	-40.9153	82.8936
16.8587	-46.8103	82.90332
16.8591	-44.8863	82.9131
16.861	-44.0864	82.9229
16.8612	-37.5019	82.9326
16.8623	-32.7655	82.9424
16.86314	-37.0287	82.9521
16.8642	-43.2028	82.9619
16.86462	-50.3474	82.97168
16.8642	-46.586	82.9814
16.8673	-37.8328	82.9912
16.8672	-33.6164	83.001
16.8678	-34.0097	83.0107
16.869	-41.9428	83.0205
16.8696	-48.1177	83.0303
16.87	-47.8009	83.04
16.8705	-44.9848	83.0498
16.8723	-35.835	83.05957
16.8722	-32.2444	83.0693
16.8727	-38.6369	83.0791
16.8748	-47.5052	83.0889
16.8754	-50.98661	83.0986
16.8761	-44.4862	83.1084
16.8765	-34.92234	83.1182
16.8768	-32.8153	83.12793
16.8788	-35.8587	83.1377
16.8798	-42.8185	83.1475
16.8792	-49.009	83.1572
16.8801	-47.69434	83.167
16.8809	-40.9553	83.1768
16.8821	-33.3281	83.1865
16.8834	-32.3993	83.1963
16.8839	-43.2258	83.2061
16.8835	-49.7737	83.21582
16.8853	-50.949	83.2256
16.8867	-41.3853	83.2354
16.8872	-34.2056	83.2451
16.8884	-36.7824	83.2549
16.8887	-38.8586	83.2646
16.8899	-45.9776	83.2744
16.8904	-51.9403	83.28418
16.8911	-45.5048	83.2939
16.8918	-38.4214	83.3037
16.8933	-32.76339	83.3135
16.893	-35.4915	83.3232
16.8952	-46.889	83.333
16.8944	-49.6336	83.3428
16.8962	-47.1929	83.3525
16.8963	-40.9954	83.3623
16.8982	-36.3559	83.37207
16.898	-36.0501	83.3818
16.9002	-38.781	83.3916
16.9004	-47.2412	83.4014
16.9008	-48.0651	83.4111
16.90173	-45.1805	83.4209
16.9016	-37.5117	83.4307
16.9036	-32.1286	83.44043
16.9044	-38.4686	83.4502
16.9049	-44.9604	83.46
16.905	-47.3371	83.4697
16.9071	-46.0444	83.4795
16.907	-40.7387	83.4893
16.90884	-35.537	83.499
16.9092	-35.3038	83.5088
16.9105	-40.6767	83.5186
16.9111	-46.0389	83.52832
16.912	-50.3592	83.5381
16.9115	-42.25671	83.5479
16.9134	-35.1599	83.5576
16.9138	-33.38002	83.5674
16.9146	-36.9108	83.5771
16.9152	-46.9202	83.5869
16.9163	-47.3994	83.59668
16.9175	-45.8188	83.6064
16.9179	-42.0407	83.6162
16.9189	-34.0131	83.626
16.9201	-34.6723	83.6357
16.9205	-40.638	83.6455
16.9211	-50.2091	83.6553
16.9223	-50.528	83.665
16.9235	-41.4749	83.6748
16.9243	-34.8561	83.68457
16.9247	-32.3094	83.6943
16.9258	-38.3848	83.7041
16.92647	-46.2812	83.7139
16.9261	-47.8068	83.7236
16.9279	-47.6997	83.7334
16.9292	-37.6097	83.7432
16.9291	-31.23094	83.75293
16.9303	-36.0376	83.7627
16.9322	-44.5857	83.7725
16.9321	-51.3432	83.7822
16.9327	-47.6274	83.792
16.9337	-38.25856	83.8018
16.9336	-34.9698	83.8115
16.9355	-34.33456	83.8213
16.9357	-42.2324	83.8311
16.937	-47.2283	83.84082
16.9374	-49.407	83.8506
16.9391	-43.5375	83.8604
16.9402	-35.9875	83.8701
16.9402	-31.1314	83.8799
16.941	-37.911	83.8896
16.9424	-48.6958	83.8994
16.9418	-49.8844	83.90918
16.94239	-44.4669	83.9189
16.9436	-37.5267	83.9287
16.9456	-35.05962	83.9385
16.94578	-36.7599	83.9482
16.94598	-42.4057	83.958
16.94747	-49.7231	83.9678