File: data/processed_data_files/tensile/0.254_hd_uprint_typei_4545_r(5).dat
MTS793|BTW|ENU|1|2|.|/|:|1|0|0|A

Data Header:			0.254_hd_uprint_typei_4545_r0			Time:	20.0254	s	4/15/2019 4:15:39 PM
Data Acquisition:	Timed
Station Name:	ft40.cfg
Test File Name:	monotonic_0.2540_typei_hd_4545_uprint.tst
Displacement	Force	Running Time
mm	N	s
9.98003	-162.45	0.0302734
9.97988	-169.597	0.0498047
9.98017	-167.381	0.0693359
9.98045	-161.919	0.0888672
9.98149	-162.019	0.108398
9.983	-169.234	0.12793
9.98456	-161.868	0.147461
9.98703	-162.557	0.166992
9.98841	-167.1028	0.186523
9.99098	-163.9	0.206055
9.99182	-159.081	0.225586
9.994401	-165.725	0.245117
9.99473	-160.065	0.264648
9.99548	-159.46	0.28418
9.99785	-161.503	0.303711
9.99943	-165.041	0.323242
10.0015	-155.678	0.342773
10.0035	-159.238	0.362305
10.0045	-162.669	0.381836
10.0056	-161.761	0.401367
10.0083	-155.499	0.420898
10.00981	-164.355	0.44043
10.0109	-157.84	0.459961
10.012	-153.913	0.479492
10.0147	-161.368	0.499023
10.0163	-159.932	0.518555
10.01736	-152.472	0.538086
10.0195	-162.104	0.557617
10.0196	-157.66	0.577148
10.0235	-151.271	0.59668
10.0241	-155.741	0.616211
10.0254	-161.612	0.635742
10.0274	-151.48	0.655273
10.0292	-156.093	0.674805
10.0305	-157.741	0.694336
10.03264	-148.296	0.713867
10.03414	-154.416	0.733398
10.0351	-157.848	0.75293
10.037	-150.653	0.772461
10.0384	-148.201	0.791992
10.0405	-155.956	0.811523
10.0418	-151.211	0.831055
10.0442	-148.745	0.850586
10.0448	-151.667	0.870117
10.0463	-151.465	0.889648
10.0473	-145.256	0.90918
10.0507	-150.899	0.928711
10.0517	-148.664	0.948242
10.0538	-145.233	0.967773
10.0558	-146.771	0.987305
10.0562	-153.319	1.00684
10.0589	-142.974	1.02637
10.0589	-142.7765	1.0459
10.0612	-149.465	1.06543
10.063	-149.404	1.08496
10.0653	-139.672	1.10449
10.0667	-149.5594	1.12402
10.0681	-144.613	1.14355
10.0703	-138.896	1.16309
10.0715	-145.99	1.18262
10.07351	-145.871	1.20215
10.0745	-136.327	1.22168
10.0763	-144.823	1.24121
10.07719	-145.9025	1.26074
10.08007	-134.937	1.28027
10.0806	-139.332	1.2998
10.0832	-144.821	1.31934
10.0838	-137.435	1.33887
10.08645	-137.729	1.3584
10.0869	-142.823	1.37793
10.088	-133.07	1.39746
10.0913	-134.983	1.41699
10.0926	-142.188	1.43652
10.0946	-138.1	1.45605
10.0964	-130.775	1.47559
10.098	-138.357	1.49512
10.0989	-135.0619	1.51465
10.1001	-131.3463	1.53418
10.1024	-133.513	1.55371
10.1048	-137.628	1.57324
10.1058	-126.94	1.59277
10.1065	-130.558	1.6123
10.1088	-133.243	1.63184
10.1102	-129.335	1.65137
10.1121	-126.9432	1.6709
10.1141	-137.021	1.69043
10.115	-128.42	1.70996
10.1173	-125.708	1.72949
10.1182	-131.194	1.74902
10.12	-130.706	1.76855
10.12122	-122.165	1.78809
10.1233	-129.426	1.80762
10.1252	-128.128	1.82715
10.1255	-120.036	1.84668
10.1269	-127.792	1.86621
10.1293	-130.194	1.88574
10.13	-118.838	1.90527
10.1342	-123.413	1.9248
10.1342	-130.316	1.94434
10.1362	-119.425	1.96387
10.1381	-120.664	1.9834
10.1394	-125.636	2.00293
10.141	-119.202	2.02246
10.14324	-117.438	2.04199
10.145	-125.536	2.06152
10.1456	-116.852	2.08105
10.1483	-117.277	2.10059
10.1496	-120.603	2.12012
10.1521	-120.334	2.13965
10.1524	-110.832	2.15918
10.1546	-117.818	2.17871
10.156	-116.433	2.19824
10.1578	-114.844	2.21777
10.1589	-113.942	2.2373
10.1609	-118.085	2.25684
10.1631	-109.061	2.27637
10.1641	-111.618	2.2959
10.1656	-115.784	2.31543
10.1669	-112.781	2.33496
10.1673	-106.4156	2.35449
10.1703	-115.453	2.37402
10.1711	-111.371	2.39355
10.1734	-104.41	2.41309
10.1749	-109.758	2.43262
10.1769	-114.328	2.45215
10.1783	-102.8381	2.47168
10.1804	-109.875	2.49121
10.1808	-111.08	2.51074
10.1838	-100.232	2.53027
10.1859	-107.234	2.5498
10.187	-112.382	2.56934
10.1887	-100.549	2.58887
10.1901	-101.264	2.6084
10.1925	-109.26	2.62793
10.1935	-101.092	2.64746
10.1956	-100.419	2.66699
10.1966	-104.438	2.68652
10.1985	-100.13	2.70605
10.2007	-97.0314	2.72559
10.2015	-104.1	2.74512
10.2035	-98.4216	2.76465
10.2043	-94.9989	2.78418
10.20666	-96.722	2.80371
10.2079	-102.018	2.82324
10.21	-92.99086	2.84277
10.2115	-92.8792	2.8623
10.2122	-96.9284	2.88184
10.2146	-94.1585	2.90137
10.2169	-88.8655	2.9209
10.21825	-97.4081	2.94043
10.2188	-89.2476	2.95996
10.2211	-86.5576	2.97949
10.2223	-94.9883	2.99902
10.2253	-92.4339	3.01855
10.2251	-82.8064	3.03809
10.2275	-92.6971	3.05762
10.2289	-91.8111	3.07715
10.2306	-82.4794	3.09668
10.2328	-86.7022	3.11621
10.234	-90.7437	3.13574
10.2366	-81.64801	3.15527
10.2366	-84.7889	3.1748
10.2395	-89.43586	3.19434
10.24054	-78.9513	3.21387
10.24218	-82.3393	3.2334
10.2438	-89.0802	3.25293
10.2463	-80.5455	3.27246
10.2474	-76.4091	3.29199
10.2486	-84.5264	3.31152
10.2508	-79.30867	3.33105
10.25061	-78.728	3.35059
10.25421	-80.1441	3.37012
10.2557	-79.948	3.38965
10.2577	-72.9003	3.40918
10.2583	-77.8577	3.42871
10.2601	-77.07708	3.44824
10.2609	-73.7113	3.46777
10.2641	-71.8127	3.4873
10.2644	-80.7921	3.50684
10.2659	-70.0637	3.52637
10.2681	-69.3932	3.5459
10.2706	-74.2951	3.56543
10.2713	-72.2499	3.58496
10.2735	-65.9658	3.60449
10.2749	-76.1471	3.62402
10.2754	-68.2053	3.64355
10.2785	-63.5166	3.66309
10.2794	-68.1349	3.68262
10.2808	-70.1915	3.70215
10.2831	-60.1187	3.72168
10.2845	-66.6153	3.74121
10.2859	-67.6469	3.76074
10.2885	-58.906	3.78027
10.28936	-63.9337	3.7998
10.2905	-66.8084	3.81934
10.2934	-57.8389	3.83887
10.2938	-60.1794	3.8584
10.2961	-65.8834	3.87793
10.2972	-56.2412	3.89746
10.2989	-57.5489	3.91699
10.3017	-61.918	3.93652
10.3027	-58.19846	3.95605
10.3049	-52.8564	3.97559
10.3063	-56.9197	3.99512
10.3072	-56.0255	4.01465
10.3084	-53.52224	4.03418
10.3107	-52.8662	4.05371
10.3119	-56.1796	4.07324
10.3132	-46.306	4.09277
10.3152	-51.0255	4.1123
10.3164	-53.7848	4.13184
10.3179	-50.0888	4.15137
10.3198	-44.6118	4.1709
10.3215	-54.742	4.19043
10.323	-47.2399	4.20996
10.3259	-43.3888	4.22949
10.3271	-48.1657	4.24902
10.3285	-47.6909	4.26855
10.32977	-39.2617	4.28809
10.3321	-48.1278	4.30762
10.3327	-44.8598	4.32715
10.3354	-36.9083	4.34668
10.337	-44.4105	4.36621
10.3379	-49.3584	4.38574
10.3407	-36.1072	4.40527
10.34129	-39.3454	4.4248
10.3431	-44.2714	4.44434
10.3442	-35.9054	4.46387
10.3467	-37.8055	4.4834
10.3483	-42.7305	4.50293
10.3502	-33.4097	4.52246
10.35137	-33.1328	4.54199
10.3534	-41.0021	4.56152
10.35354	-33.2583	4.58105
10.3559	-32.0799	4.60059
10.3573	-35.4679	4.62012
10.3596	-33.7446	4.63965
10.3615	-25.8383	4.65918
10.3634	-31.3268	4.67871
10.3644	-29.7814	4.69824
10.3651	-28.0787	4.71777
10.3674	-26.91	4.7373
10.3697	-32.0505	4.75684
10.3706	-22.69323	4.77637
10.3726	-23.7679	4.7959
10.3735	-29.3462	4.81543
10.3745	-26.0826	4.83496
10.3775	-17.4895	4.85449
10.3799	-28.4551	4.87402
10.3805	-22.6356	4.89355
10.3817	-16.5396	4.91309
10.38393	-22.8762	4.93262
10.3858	-24.3681	4.95215
10.3869	-14.6448	4.97168
10.38885	-22.14896	4.99121
10.3904	-21.8316	5.01074
10.39113	-11.8716	5.03027
10.3944	-14.35662	5.0498
10.39476	-22.1802	5.06934
10.3972	-12.67288	5.08887
10.399	-12.2163	5.1084
10.4001	-17.2103	5.12793
10.4009	-8.95131	5.14746
10.4034	-11.5279	5.16699
10.40404	-15.5174	5.18652
10.4066	-9.10074	5.20605
10.4085	-5.40043	5.22559
10.4095	-12.2575	5.24512
10.4116	-7.9203	5.26465
10.4121	-3.99382	5.28418
10.4144	-5.67948	5.30371
10.4166	-10.0195	5.32324
10.4179	-1.81907	5.34277
10.4187	-3.17684	5.3623
10.4219	-5.27411	5.38184
10.4233	-0.599797	5.40137
10.42466	1.40976	5.4209
10.4265	-6.51888	5.44043
10.4278	1.31698	5.45996
10.4287	5.6178	5.47949
10.4305	-1.83656	5.49902
10.4341	-1.638555	5.51855
10.4346	7.99497	5.53809
10.4349	0.213949	5.55762
10.4388	1.13385	5.57715
10.4387	8.84226	5.59668
10.4405	4.84257	5.61621
10.4422	3.67415	5.63574
10.444	13.5313	5.65527
10.4459	7.89611	5.6748
10.4472	2.80456	5.69434
10.4489	15.6571	5.71387
10.45143	13.412	5.7334
10.4527	7.51062	5.75293
10.4531	14.0787	5.77246
10.45441	17.7788	5.79199
10.4569	10.17192	5.81152
10.4583	17.9557	5.83105
10.4605	17.3067	5.85059
10.46178	14.39564	5.87012
10.4632	16.4177	5.88965
10.4659	25.0129	5.90918
10.4671	17.768	5.92871
10.4683	17.79521	5.94824
10.47045	20.9102	5.96777
10.4712	23.3422	5.9873
10.4735	17.80159	6.00684
10.4752	26.4244	6.02637
10.4776	25.4312	6.0459
10.4777	22.67387	6.06543
10.48	25.27211	6.08496
10.4821	31.2072	6.10449
10.4827	22.0146	6.12402
10.4854	28.5362	6.14355
10.4861	33.7325	6.16309
10.4875	27.6782	6.18262
10.4889	25.3647	6.20215
10.4912	37.2209	6.22168
10.4928	31.436	6.24121
10.4942	30.4804	6.26074
10.4967	39.6408	6.28027
10.4965	35.2861	6.2998
10.4988	29.3544	6.31934
10.5009	40.7889	6.33887
10.5037	38.7994	6.3584
10.5044	31.8337	6.37793
10.50601	42.3462	6.39746
10.5075	41.8633	6.41699
10.5096	36.2775	6.43652
10.511	39.4797	6.45605
10.5118	46.8509	6.47559
10.5142	39.05566	6.49512
10.5161	43.547	6.51465
10.5166	46.4638	6.53418
10.5193	45.17067	6.55371
10.5204	41.0815	6.57324
10.5224	52.0225	6.59277
10.5237	49.8714	6.6123
10.5248	46.682	6.63184
10.5279	48.9282	6.65137
10.52783	53.1522	6.6709
10.5301	45.1737	6.69043
10.5319	53.4889	6.70996
10.5327	56.2544	6.72949
10.5349	50.4632	6.74902
10.5365	51.7749	6.76855
10.5378	60.8613	6.78809
10.5404	51.3284	6.80762
10.5415	54.2126	6.82715
10.54358	63.4757	6.84668
10.5459	58.5855	6.86621
10.5471	51.8591	6.88574
10.548	63.4131	6.90527
10.5501	61.3275	6.9248
10.5516	57.1789	6.94434
10.55346	67.7849	6.96387
10.5538	65.43441	6.9834
10.5561	58.0879	7.00293
10.5581	68.4209	7.02246
10.5592	67.4287	7.04199
10.5614	62.8248	7.06152
10.5629	67.9129	7.08105
10.5639	68.6552	7.10059
10.56597	66.2972	7.12012
10.568	67.2153	7.13965
10.56881	75.5655	7.15918
10.5713	69.6791	7.17871
10.5729	68.52504	7.19824
10.5743	75.1856	7.21777
10.576	75.9124	7.2373
10.5776	68.51989	7.25684
10.5792	79.7804	7.27637
10.5807	79.3363	7.2959
10.582	74.5177	7.31543
10.5849	76.8878	7.33496
10.5861	83.5919	7.35449
10.5876	74.3123	7.37402
10.5902	81.3091	7.39355
10.59	86.7133	7.41309
10.5922	80.1122	7.43262
10.59451	80.2014	7.45215
10.5951	90.05854	7.47168
10.59797	82.8084	7.49121
10.5981	82.5161	7.51074
10.6014	91.3538	7.53027
10.601	88.8659	7.5498
10.6035	82.3965	7.56934
10.6061	92.5577	7.58887
10.607	90.5178	7.6084
10.608	84.8538	7.62793
10.6089	94.8919	7.64746
10.6113	94.1213	7.66699
10.6148	87.9884	7.68652
10.6148	93.10611	7.70605
10.61543	99.1389	7.72559
10.6178	92.2523	7.74512
10.6196	95.4081	7.76465
10.6212	100.249	7.78418
10.6226	98.1916	7.80371
10.6244	95.762	7.82324
10.6266	104.07	7.84277
10.6276	100.557	7.8623
10.6297	97.9	7.88184
10.6312	103.462	7.90137
10.6329	106.931	7.9209
10.63427	97.5868	7.94043
10.63636	108.391	7.95996
10.6374	110.599	7.97949
10.6394	103.699	7.99902
10.6421	103.78	8.01855
10.6427	112.846	8.03809
10.64506	104.089	8.05762
10.6451	109.174	8.07715
10.6472	116.365	8.09668
10.6486	109.767	8.11621
10.6511	105.628	8.13574
10.6525	118.937	8.15527
10.6542	113.1768	8.1748
10.655	108.547	8.19434
10.6562	119.376	8.21387
10.6585	117.971	8.2334
10.6601	111.52	8.25293
10.6628	119.2627	8.27246
10.6637	121.397	8.29199
10.6652	114.951	8.31152
10.6665	122.827	8.33105
10.6689	124.041	8.35059
10.66988	117.068	8.37012
10.672	118.885	8.38965
10.6734	128.7971	8.40918
10.6751	124.15	8.42871
10.6768	123.479	8.44824
10.678	127.554	8.46777
10.6799	127.584	8.4873
10.682	124.06	8.50684
10.6825	132.316	8.52637
10.6846	130.611	8.5459
10.6865	127.436	8.56543
10.6877	130.188	8.58496
10.6898	138.317	8.60449
10.6914	127.8137	8.62402
10.69429	132.664	8.64355
10.6954	139.457	8.66309
10.6957	134.479	8.68262
10.69751	132.1373	8.70215
10.6996	143.463	8.72168
10.7015	134.4774	8.74121
10.7016	135.3093	8.76074
10.7044	145.051	8.78027
10.7062	141.262	8.7998
10.708	134.682	8.81934
10.7096	147.171	8.83887
10.7112	144.177	8.8584
10.7126	137.231	8.87793
10.715	144.965	8.89746
10.7166	147.596	8.91699
10.7166	141.674	8.93652
10.7195	146.597	8.95605
10.7207	150.871	8.97559
10.72214	143.953	8.99512
10.7232	149.398	9.01465
10.7256	154.083	9.03418
10.7275	149.999	9.05371
10.7294	145.519	9.07324
10.7304	157.192	9.09277
10.73259	155.851	9.1123
10.73329	153.724	9.13184
10.7356	153.428	9.15137
10.7372	157.425	9.1709
10.73785	151.902	9.19043
10.7397	161.954	9.20996
10.7415	162.6731	9.22949
10.7437	156.068	9.24902
10.7448	156.9973	9.26855
10.7464	168.421	9.28809
10.74762	157.425	9.30762
10.7511	160.469	9.32715
10.7509	168.916	9.34668
10.75358	164.752	9.36621
10.7552	161.9146	9.38574
10.7571	171.271	9.40527
10.7588	166.051	9.4248
10.7594	163.731	9.44434
10.7611	174.73	9.46387
10.76263	171.867	9.4834
10.7643	163.18	9.50293
10.7662	173.384	9.52246
10.7684	177.034	9.54199
10.7704	168.167	9.56152
10.77168	173.888	9.58105
10.773	177.476	9.60059
10.7745	170.8698	9.62012
10.776	175.271	9.63965
10.777	181.629	9.65918
10.78017	173.16	9.67871
10.7811	175.371	9.69824
10.7835	182.222	9.71777
10.7831	180.437	9.7373
10.7851	175	9.75684
10.7868	185.416	9.77637
10.7893	185.053	9.7959
10.7903	181.426	9.81543
10.7925	183.152	9.83496
10.7951	189.641	9.85449
10.79542	179.618	9.87402
10.798	188.717	9.89355
10.7984	192.834	9.91309
10.8001	186.248	9.93262
10.8022	183.67	9.95215
10.8042	197.207	9.97168
10.80536	189.803	9.99121
10.80591	190.277	10.0107
10.8084	197.999	10.0303
10.8099	194.892	10.0498
10.8117	188.26	10.0693
10.8138	200.374	10.0889
10.8149	196.224	10.1084
10.8169	192.037	10.12793
10.8177	200.971	10.1475
10.8195	203.0481	10.167
10.821	193.755	10.1865
10.8233	201.938	10.2061
10.8257	204.414	10.2256
10.8264	198.067	10.2451
10.8282	202.0731	10.2646
10.8297	206.449	10.28418
10.8307	201.439	10.3037
10.8321	203.017	10.3232
10.83505	211.766	10.3428
10.83526	207.1	10.3623
10.8376	205.418	10.3818
10.8401	210.934	10.4014
10.8412	212.815	10.4209
10.8421	206.195	10.44043
10.845	213.119	10.46
10.8464	216.555	10.4795
10.8476	211.617	10.499
10.8496	211.1433	10.5186
10.8511	221.001	10.5381
10.8525	211.654	10.5576
10.8545	215.1	10.5771
10.8563	223.596	10.59668
10.8574	217.753	10.6162
10.8592	213.074	10.6357
10.8609	225.622	10.6553
10.8631	221.182	10.6748
10.8644	217.3512	10.6943
10.8654	226.342	10.7139
10.8666	224.586	10.7334
10.869	216.724	10.75293
10.8706	227.917	10.7725
10.8719	228.096	10.792
10.8739	220.098	10.8115
10.8751	226.651	10.8311
10.8768	234.061	10.8506
10.8783	225.629	10.8701
10.8814	226.865	10.8896
10.8811	236.39	10.90918
10.8835	228.382	10.9287
10.8841	229.516	10.9482
10.8879	237.415	10.9678
10.8871	233.338	10.9873
10.8896	229.961	11.0068
10.8917	238.782	11.0264
10.8944	239.473	11.0459
10.8942	233.35	11.06543
10.8965	237.64	11.085
10.8976	242.662	11.1045
10.8991	235.377	11.124
10.9018	243.221	11.1436
10.9021	247.067	11.1631
10.9047	242.103	11.1826
10.9062	238.859	11.2021
10.9075	250.434	11.22168
10.9095	242.257	11.2412
10.9117	241.93	11.2607
10.9128	252.72	11.2803
10.9145	248.472	11.2998
10.9157	240.81	11.3193
10.9182	252.448	11.3389
10.9191	249.479	11.3584
10.9211	245.739	11.37793
10.9222	254.22	11.3975
10.9235	256.03	11.417
10.92604	247.687	11.4365
10.9271	254.759	11.4561
10.9289	259.251	11.4756
10.9302	251.699	11.4951
10.9318	254.398	11.5146
10.9341	261.525	11.53418
10.9351	256.902	11.5537
10.9374	254.775	11.5732
10.9384	263.739	11.5928
10.9401	259.788	11.6123
10.94128	258.87	11.6318
10.944	265.631	11.6514
10.9457	266.3129	11.6709
10.9463	257.566	11.69043
10.9489	267.8201	11.71
10.9497	270.091	11.7295
10.9521	265.504	11.749
10.9532	264.6077	11.7686
10.95495	275.302	11.7881
10.9558	265.614	11.8076
10.9588	269.486	11.8271
10.9599	276.46	11.84668
10.9629	270.469	11.8662
10.96279	265.94	11.8857
10.9643	280.171	11.9053
10.9659	273.423	11.9248
10.9666	269.754	11.9443
10.9699	280.509	11.9639
10.97149	281.154	11.9834
10.9722	271.331	12.00293
10.9742	281.839	12.0225
10.9758	280.4	12.042
10.9765	274.55	12.0615
10.9797	282.079	12.0811
10.9807	287.3053	12.1006
10.9813	275.816	12.1201
10.98338	282.934	12.1396
10.9863	291.011	12.15918
10.9884	282.732	12.1787
10.9887	282.346	12.1982
10.9909	290	12.2178
10.9916	287.109	12.2373
10.9947	284.217	12.2568
10.995	292.323	12.2764
10.9963	290.635	12.2959
10.9998	288.745	12.31543
10.9997	291.638	12.335
11.002	297.2547	12.3545
11.005	286.974	12.374
11.0048	293.477	12.3936
11.007	298.91	12.4131
11.0089	294.509	12.4326
11.0094	291.671	12.4521
11.0131	302.6026	12.47168
11.0138	294.592	12.4912
11.0156	295.547	12.5107
11.0168	304.512	12.5303
11.0179	302.195	12.5498
11.02002	293.34	12.5693
11.0215	307.22	12.5889
11.0228	304.447	12.6084
11.0252	298.801	12.62793
11.0268	306.416	12.6475
11.0283	309.331	12.667
11.0297	299.858	12.6865
11.0307	307.369	12.7061
11.0327	311.209	12.7256
11.0352	302.437	12.7451
11.0362	308.059	12.7646
11.0385	313.445	12.78418
11.0392	306.45	12.8037
11.0416	308.067	12.8232
11.0429	317.844	12.8428
11.0431	311.79	12.8623
11.0467	309.11	12.8818
11.0483	316.334	12.9014
11.0497	317.858	12.9209
11.0508	311.496	12.94043
11.0526	320.598	12.96
11.0541	320	12.9795
11.05549	314.793	12.999
11.0563	318.7196	13.0186
11.0579	325.9411	13.0381
11.0611	316.121	13.0576
11.0612	320.618	13.0771
11.0645	327.154	13.09668
11.0656	325.634	13.1162
11.0678	319.049	13.1357
11.0694	333.974	13.1553
11.06973	324.09	13.1748
11.0721	322.994	13.1943
11.0739	331.011	13.2139
11.0751	333.835	13.2334
11.0768	320.769	13.25293
11.0789	332.1	13.2725
11.08039	335.135	13.292
11.082	327.004	13.3115
11.0825	333.172	13.3311
11.0855	338.801	13.3506
11.0858	329.562	13.3701
11.0881	335.374	13.3896
11.0905	340.179	13.40918
11.0918	333.71	13.4287
11.0928	337.005	13.4482
11.0954	343.6459	13.4678
11.0972	338.61	13.4873
11.0984	336.631	13.5068
11.09891	344.151	13.5264
11.1029	341.609	13.5459
11.1029	339.401	13.56543
11.10421	344.084	13.585
11.1067	346.343	13.6045
11.1083	340.004	13.624
11.1094	347.223	13.6436
11.1115	351.585	13.6631
11.1126	345.418	13.6826
11.1156	343.486	13.7021
11.1159	356.8244	13.72168
11.1181	346.023	13.7412
11.1193	345.629	13.7607
11.1208	355.729	13.7803
11.1227	353.777	13.7998
11.1242	346.655	13.8193
11.1254	359.348	13.8389
11.1275	354.229	13.8584
11.1279	350.623	13.87793
11.1313	359	13.8975
11.1334	363.3541	13.917
11.1348	350.347	13.9365
11.1364	357.929	13.9561
11.136	363.955	13.9756
11.1397	357.671	13.9951
11.1406	358.847	14.0146
11.1427	367.4993	14.03418
11.1433	357.529	14.0537
11.1445	361.39	14.0732
11.1471	369.89	14.0928
11.14899	366.265	14.1123
11.1506	361.658	14.1318
11.1524	370.496	14.1514
11.1535	367.94	14.1709
11.1554	362.639	14.19043
11.1561	370.427	14.21
11.1577	370.36	14.2295
11.15983	367.312	14.249
11.1617	370.569	14.2686
11.1636	377.63	14.2881
11.1648	368.364	14.3076
11.1662	372.005	14.3271
11.1679	381.0166	14.34668
11.1709	376.463	14.3662
11.1712	369.8692	14.3857
11.174	382.659	14.4053
11.1751	378.167	14.4248
11.1766	374.511	14.4443
11.1782	384.457	14.4639
11.1792	383.561	14.4834
11.1805	375.182	14.50293
11.1832	386.566	14.5225
11.184	385.367	14.542
11.1855	377.116	14.5615
11.1874	384.909	14.5811
11.1891	391.413	14.6006
11.1907	381.05	14.6201
11.1931	384.64	14.6396
11.1939	391.339	14.65918
11.195	387.073	14.6787
11.1987	388.09	14.6982
11.199	394.074	14.7178
11.2022	388.2551	14.7373
11.2025	387.139	14.7568
11.2039	395.643	14.7764
11.2057	394.51	14.7959
11.2066	390.22	14.81543
11.20932	396.178	14.835
11.2109	399.836	14.8545
11.2119	391.791	14.874
11.2139	397.171	14.8936
11.21613	401.725	14.9131
11.21817	398.257	14.9326
11.2185	397.061	14.9521
11.221	406.417	14.97168
11.2212	397.804	14.9912
11.2234	398.5173	15.0107
11.2248	408.422	15.0303
11.2268	406.332	15.0498
11.2276	395.874	15.0693
11.2301	408.97	15.0889
11.2319	406.385	15.1084
11.2329	402.026	15.12793
11.2347	409.2099	15.1475
11.2364	411.089	15.167
11.2372	400.58	15.1865
11.2407	410.313	15.2061
11.2416	415.241	15.2256
11.2429	406.745	15.2451
11.2448	409.324	15.2646
11.246	419.009	15.28418
11.2482	409.567	15.3037
11.2496	412.01	15.3232
11.25075	418.441	15.3428
11.2524	415.912	15.3623
11.254	412.389	15.3818
11.2565	420.3074	15.4014
11.2576	417.334	15.4209
11.2591	412.348	15.44043
11.2603	421.366	15.46
11.2629	424.985	15.4795
11.264	417.466	15.499
11.2654	421.548	15.5186
11.2678	427.992	15.5381
11.2688	419.712	15.5576
11.27123	422.701	15.5771
11.2722	428.557	15.59668
11.2748	424.42	15.6162
11.275	421.423	15.6357
11.277	432.551	15.6553
11.27851	427.605	15.6748
11.2809	424.869	15.6943
11.2818	433.096	15.7139
11.2832	434.565	15.7334
11.2845	423.991	15.75293
11.2863	434.816	15.7725
11.2889	435.409	15.792
11.2894	428.962	15.8115
11.2912	435.539	15.8311
11.2942	441.591	15.8506
11.2952	429.486	15.8701
11.2967	437.919	15.8896
11.2983	442.3266	15.90918
11.2992	436.619	15.9287
11.3008	434.918	15.9482
11.3043	444.986	15.9678
11.30517	440.873	15.9873
11.3065	438.36	16.0068
11.3079	444.845	16.0264
11.3092	444.521	16.0459
11.3112	439.6817	16.06543
11.3132	447.729	16.085
11.3152	448.036	16.1045
11.3162	440.7132	16.124
11.3174	447.832	16.1436
11.31929	451.674	16.1631
11.321	447.463	16.1826
11.3235	444.262	16.2021
11.325	455.064	16.22168
11.3258	448.995	16.2412
11.3266	448.81	16.2607
11.3289	455.891	16.2803
11.3313	453.175	16.2998
11.3324	445.922	16.3193
11.3342	459.457	16.3389
11.3353	456.604	16.3584
11.3368	450.956	16.37793
11.3389	459.033	16.3975
11.3404	463.687	16.417
11.3428	452.6	16.4365
11.3442	461.657	16.4561
11.3458	463.682	16.4756
11.3476	457.602	16.4951
11.3486	459.743	16.5146
11.3509	468.27	16.53418
11.3512	460.204	16.5537
11.3539	462.116	16.5732
11.3555	469.8663	16.5928
11.3576	465.738	16.6123
11.358	462.067	16.6318
11.361	470.554	16.6514
11.3622	467.04	16.6709
11.3637	465.125	16.69043
11.3658	471.288	16.71
11.3664	473.668	16.7295
11.3686	466.427	16.749
11.36991	471.647	16.7686
11.3702	477.58	16.7881
11.3731	467.834	16.8076
11.3744	472.419	16.8271
11.3757	479.319	16.84668
11.3787	476.18	16.8662
11.3801	470.793	16.8857
11.3806	482.607	16.9053
11.3822	476.783	16.9248
11.3853	474.917	16.9443
11.3855	483.805	16.9639
11.38785	482.986	16.9834
11.3891	473.144	17.00293
11.3907	484.131	17.0225
11.393	486.751	17.042
11.3957	478.623	17.0615
11.3962	483.517	17.0811
11.3981	491.195	17.1006
11.3988	479.2269	17.1201
11.4013	485.168	17.1396
11.4019	491.394	17.15918
11.404	484.662	17.1787
11.4056	485.599	17.1982
11.4073	495.216	17.2178
11.4071	488.496	17.2373
11.41	486.427	17.2568
11.4122	494.132	17.2764
11.4137	495.85	17.2959
11.4155	488.505	17.31543
11.4183	496.26	17.335
11.4187	497.393	17.3545
11.42081	492.067	17.374
11.42252	495.117	17.3936
11.4234	501.338	17.4131
11.4258	494.121	17.4326
11.427	494.939	17.4521
11.4281	504.951	17.47168
11.4309	497.61	17.4912
11.4312	497.379	17.5107
11.433	505.5126	17.5303
11.4354	505.172	17.5498
11.4366	496.75	17.5693
11.4392	507.577	17.5889
11.4406	505.458	17.6084
11.4426	501.268	17.62793
11.44276	506.935	17.6475
11.4448	511.245	17.667
11.44611	498.711	17.6865
11.4488	508.916	17.7061
11.4496	512.9187	17.7256
11.4514	506.365	17.7451
11.45261	508.922	17.7646
11.4536	516.648	17.78418
11.4572	507.949	17.8037
11.4568	511.835	17.8232
11.4595	517.173	17.8428
11.4615	513.059	17.8623
11.4627	509.715	17.8818
11.4636	521.13	17.9014
11.4663	517.821	17.9209
11.4672	512.9953	17.94043
11.4696	519.299	17.96
11.471	522.464	17.9795
11.4724	516.3808	17.999
11.4741	518.415	18.0186
11.4747	523.845	18.0381
11.4776	516.361	18.0576
11.4788	520.753	18.0771
11.4806	527.326	18.09668
11.4814	523.262	18.1162
11.4837	517.4068	18.1357
11.4862	530.327	18.1553
11.4869	525.0658	18.1748
11.4886	520.709	18.1943
11.4897	529.219	18.2139
11.4917	531.825	18.2334
11.4929	521.092	18.25293
11.4951	532.515	18.2725
11.4972	532.414	18.292
11.4984	526.364	18.3115
11.5008	532.8739	18.3311
11.5012	540.45	18.3506
11.50303	524.947	18.3701
11.5045	533.376	18.3896
11.5062	539.489	18.40918
11.508	533.068	18.4287
11.50944	532.21	18.4482
11.51144	541.092	18.4678
11.5131	534.467	18.4873
11.5142	534.806	18.5068
11.5165	542.647	18.5264
11.5177	540.802	18.5459
11.5197	534.486	18.56543
11.5204	542.916	18.585
11.5236	542.756	18.6045
11.5247	536.553	18.624
11.5254	541.193	18.6436
11.5284	547.074	18.6631
11.5294	543.658	18.6826
11.5307	542.893	18.7021
11.5321	548.312	18.72168
11.534	542.479	18.7412
11.5362	543.188	18.7607
11.5379	553.349	18.7803
11.5392	548.382	18.7998
11.54	541.556	18.8193
11.54263	554.612	18.8389
11.5426	550.532	18.8584
11.5451	546.099	18.87793
11.5472	553.803	18.8975
11.5493	557.093	18.917
11.55	545.958	18.9365
11.5522	555.43	18.9561
11.5535	558.353	18.9756
11.5556	551.485	18.9951
11.558	555.15	19.0146
11.5573	564.5686	19.03418
11.559	552.933	19.0537
11.56172	556.192	19.0732
11.5626	562.526	19.0928
11.5645	562.256	19.1123
11.568	557.208	19.1318
11.5681	566.843	19.1514
11.5703	562.02	19.1709
11.5719	557.87	19.19043
11.5737	565.84	19.21
11.5748	566.393	19.2295
11.5773	558.699	19.249
11.5782	565.278	19.2686
11.5802	570.401	19.2881
11.5807	563.649	19.3076
11.5827	563.142	19.3271
11.5842	571.573	19.34668
11.5862	568.567	19.3662
11.588	564.114	19.3857
11.5897	575.661	19.4053
11.5913	568.412	19.4248
11.5936	567.492	19.4443
11.5952	575.298	19.4639
11.5972	577.996	19.4834
11.5979	566.257	19.50293
11.59918	575.756	19.5225
11.6003	579.181	19.542
11.6022	573.1275	19.5615
11.6043	577.259	19.5811
11.6057	583.27	19.6006
11.6071	570.514	19.6201
11.6088	579.121	19.6396
11.61078	583.727	19.65918
11.6115	578.548	19.6787
11.614	577.024	19.6982
11.6153	588.433	19.7178
11.6179	580.51	19.7373
11.6188	578.7915	19.7568
11.6207	585.531	19.7764
11.6219	586.526	19.7959
11.6233	581.142	19.81543
11.625	587.3775	19.835
11.6288	587.4	19.8545
11.6288	581.374	19.874
11.6304	588.216	19.8936
11.632	593.902	19.9131
11.63308	585.41	19.9326
11.6343	586.925	19.9521
11.6376	594.474	19.97168
11.6383	589.154	19.9912
11.6398	588.922	20.0107
11.6397	588.853	20.0205

Data Header:			0.254_hd_uprint_typei_4545_r0			Time:	40.0256	s	4/15/2019 4:15:59 PM
Data Acquisition:	Timed
Station Name:	ft40.cfg
Test File Name:	monotonic_0.2540_typei_hd_4545_uprint.tst
Displacement	Force	Running Time
mm	N	s
11.6415	596.392	20.0303
11.6428	593.4024	20.0498
11.6444	586.966	20.0693
11.6465	599.102	20.0889
11.6476	595.359	20.1084
11.6502	589.617	20.12793
11.6514	597.215	20.1475
11.6533	603.115	20.167
11.655	590.997	20.1865
11.6561	598.995	20.2061
11.6583	601.143	20.2256
11.6602	596.745	20.2451
11.66042	598.964	20.2646
11.663	607.87	20.28418
11.6638	597.157	20.3037
11.6655	600.736	20.3232
11.6683	607.7373	20.3428
11.6699	604.79	20.3623
11.67082	599.619	20.3818
11.6733	609.257	20.4014
11.6746	606.613	20.4209
11.6756	602.5238	20.44043
11.6784	608.509	20.46
11.6788	611.09	20.4795
11.681	604.495	20.499
11.6812	610.246	20.5186
11.6829	612.414	20.5381
11.6856	606.1496	20.5576
11.6877	609.989	20.5771
11.69	617.414	20.59668
11.69	612.2	20.6162
11.6917	608.202	20.6357
11.6936	617.507	20.6553
11.6949	615.466	20.6748
11.69666	610.676	20.6943
11.6978	617.607	20.7139
11.6999	619.197	20.7334
11.7021	611.202	20.75293
11.7033	621.551	20.7725
11.7048	622.804	20.792
11.7075	614.19	20.8115
11.7074	616.247	20.8311
11.71018	629.351	20.8506
11.7119	615.604	20.8701
11.7125	618.938	20.8896
11.7148	626.0451	20.90918
11.7176	621.49	20.9287
11.7175	621.6734	20.9482
11.72	631.421	20.9678
11.7216	621.138	20.9873
11.7237	622.66	21.0068
11.7241	630.303	21.0264
11.7272	629.456	21.0459
11.7274	622.934	21.06543
11.7294	631.933	21.085
11.731	631.946	21.1045
11.7332	628.071	21.124
11.7347	631.426	21.1436
11.7349	636.047	21.1631
11.7384	629.964	21.1826
11.7387	630.746	21.2021
11.741	637.999	21.22168
11.7424	632.432	21.2412
11.7443	629.882	21.2607
11.74628	640.32	21.2803
11.7471	638.227	21.2998
11.7489	630.963	21.3193
11.7511	640.73	21.3389
11.7516	640.04	21.3584
11.7532	633.885	21.37793
11.7558	642.065	21.3975
11.7576	643.69	21.417
11.7591	633.143	21.4365
11.7603	641.31	21.4561
11.7626	647.495	21.4756
11.7634	640.077	21.4951
11.765	642.574	21.5146
11.76722	652.058	21.53418
11.769	639.223	21.5537
11.77032	644.543	21.5732
11.7723	650.177	21.5928
11.7741	647.057	21.6123
11.7753	643.091	21.6318
11.7759	653.257	21.6514
11.7789	649.093	21.6709
11.7798	644.546	21.69043
11.7818	651.4425	21.71
11.783	654.606	21.7295
11.7846	647.714	21.749
11.7867	652.596	21.7686
11.789	656.249	21.7881
11.79	651.496	21.8076
11.7912	650.383	21.8271
11.7931	659.629	21.84668
11.79475	654.587	21.8662
11.7962	651.5144	21.8857
11.7984	661.607	21.9053
11.7994	656.292	21.9248
11.8017	651.995	21.9443
11.802	662.148	21.9639
11.8041	662.915	21.9834
11.8072	652.952	22.00293
11.8079	662.467	22.0225
11.8089	664.05	22.042
11.8114	656.846	22.0615
11.8121	661.512	22.0811
11.8153	668.403	22.1006
11.8148	655.145	22.1201
11.8179	662.309	22.1396
11.8187	670.568	22.15918
11.8205	663.785	22.1787
11.8213	661.971	22.1982
11.8246	671.966	22.2178
11.8254	664.855	22.2373
11.8264	664.927	22.2568
11.8284	671.478	22.2764
11.8308	671.384	22.2959
11.8321	663.789	22.31543
11.8343	674.221	22.335
11.8346	673.582	22.3545
11.8367	667.632	22.374
11.8386	672.124	22.3936
11.8401	677.943	22.4131
11.84212	671.175	22.4326
11.8433	673.0614	22.4521
11.8449	677.896	22.47168
11.8463	674.413	22.4912
11.8483	673.42	22.5107
11.8501	682.103	22.5303
11.852	678.0152	22.5498
11.853	671.134	22.5693
11.8537	682.901	22.5889
11.8559	681.218	22.6084
11.8584	674.568	22.62793
11.8601	681.451	22.6475
11.8611	686.0835	22.667
11.8629	675.43	22.6865
11.8648	684.221	22.7061
11.8665	685.695	22.7256
11.8676	679.898	22.7451
11.8698	683.269	22.7646
11.8721	693.381	22.78418
11.8718	680.664	22.8037
11.8738	683.338	22.8232
11.8762	689.3042	22.8428
11.8787	688.1803	22.8623
11.8792	683.194	22.8818
11.8808	692.389	22.9014
11.8822	688.3526	22.9209
11.8837	686.007	22.94043
11.8855	692.038	22.96
11.8877	694.339	22.9795
11.8891	686.3009	22.999
11.891	693.816	23.0186
11.8928	695.882	23.0381
11.8941	689.716	23.0576
11.8955	690.509	23.0771
11.8978	698.936	23.09668
11.8988	694.765	23.1162
11.8999	690.118	23.1357
11.9008	697.074	23.1553
11.9037	696.139	23.1748
11.904	692.687	23.1943
11.9065	700.966	23.2139
11.9079	701.28	23.2334
11.9101	691.072	23.25293
11.9109	700.943	23.2725
11.9132	704.251	23.292
11.9145	697.257	23.3115
11.9163	701.028	23.3311
11.9179	708.304	23.3506
11.9196	696.256	23.3701
11.9218	704.336	23.3896
11.923	708.056	23.40918
11.9238	701.322	23.4287
11.92588	700.799	23.4482
11.9283	712.568	23.4678
11.9303	703.622	23.4873
11.9309	701.207	23.5068
11.93295	709.944	23.5264
11.9346	710.279	23.5459
11.9365	704.525	23.56543
11.9377	712.151	23.585
11.939	709.39	23.6045
11.9404	707.176	23.624
11.9437	710.827	23.6436
11.9444	716.536	23.6631
11.9463	708.202	23.6826
11.94679	710.656	23.7021
11.9505	717.844	23.72168
11.9505	713.915	23.7412
11.9525	709.264	23.7607
11.9541	718.772	23.7803
11.9561	716.334	23.7998
11.9565	709.888	23.8193
11.9584	719.676	23.8389
11.96	717.856	23.8584
11.9627	712.011	23.87793
11.9631	719.758	23.8975
11.9649	725.592	23.917
11.9667	711.373	23.9365
11.9676	718.8717	23.9561
11.9705	724.9212	23.9756
11.9717	716.689	23.9951
11.9729	719.717	24.0146
11.9754	728.586	24.03418
11.97669	717.923	24.0537
11.9793	720.295	24.0732
11.98	727.2	24.0928
11.9826	723.698	24.1123
11.9836	719.6889	24.1318
11.9847	731.724	24.1514
11.9865	727.625	24.1709
11.9882	722.868	24.19043
11.9894	728.058	24.21
11.9913	731.399	24.2295
11.9921	724.953	24.249
11.9946	730.654	24.2686
11.9961	730.743	24.2881
11.9981	726.809	24.3076
11.9993	727.47	24.3271
12.0026	736.7	24.34668
12.0024	730.855	24.3662
12.0049	727.056	24.3857
12.0066	735.911	24.4053
12.00687	734.049	24.4248
12.0088	729.154	24.4443
12.0106	737.047	24.4639
12.0119	739.234	24.4834
12.0139	729.653	24.50293
12.0155	737.6532	24.5225
12.018	740.255	24.542
12.01898	731.4082	24.5615
12.0206	736.659	24.5811
12.0227	745.873	24.6006
12.0254	732.343	24.6201
12.0256	737.663	24.6396
12.02766	743.224	24.65918
12.0297	739.82	24.6787
12.031	737.005	24.6982
12.0318	747.481	24.7178
12.0341	739.017	24.7373
12.0346	739.964	24.7568
12.0368	746.233	24.7764
12.0391	746.466	24.7959
12.0397	739.953	24.81543
12.0421	747.395	24.835
12.0432	747.505	24.8545
12.0449	743.311	24.874
12.0471	745.291	24.8936
12.0489	750.983	24.9131
12.0503	743.602	24.9326
12.0514	747.041	24.9521
12.0527	752.0249	24.97168
12.0549	747.8269	24.9912
12.0573	745.421	25.0107
12.0595	756	25.0303
12.0596	752.535	25.0498
12.0615	745.06	25.0693
12.0631	753.842	25.0889
12.0643	754.963	25.1084
12.0662	747.767	25.12793
12.0684	752.965	25.1475
12.0704	758.947	25.167
12.0718	746.034	25.1865
12.0727	757.075	25.2061
12.07507	758.351	25.2256
12.0764	750.996	25.2451
12.0775	752.766	25.2646
12.0792	763.563	25.28418
12.0813	754.8233	25.3037
12.0822	755.396	25.3232
12.0845	761.236	25.3428
12.0858	758.201	25.3623
12.0877	753.431	25.3818
12.089	766.024	25.4014
12.0902	759.838	25.4209
12.09265	757.709	25.44043
12.0945	762.915	25.46
12.096	765.942	25.4795
12.0965	757.199	25.499
12.0984	763.461	25.5186
12.0999	764.623	25.5381
12.1021	763.198	25.5576
12.1042	760.914	25.5771
12.10511	770.095	25.59668
12.1065	763.992	25.6162
12.1082	763.144	25.6357
12.1104	771.687	25.6553
12.1118	766.973	25.6748
12.1137	762.37	25.6943
12.1151	771.537	25.7139
12.1167	771.683	25.7334
12.1192	763.714	25.75293
12.11961	769.545	25.7725
12.1218	772.598	25.792
12.1232	766.474	25.8115
12.12524	770.282	25.8311
12.127	777.725	25.8506
12.1276	764.9837	25.8701
12.13036	769.931	25.8896
12.1312	778.0011	25.90918
12.1325	771.515	25.9287
12.13489	770.681	25.9482
12.1353	780.963	25.9678
12.1384	773.431	25.9873
12.13898	771.547	26.0068
12.1411	778.217	26.0264
12.1433	777.828	26.0459
12.1452	772.105	26.06543
12.1464	781.088	26.085
12.1474	778.353	26.1045
12.14912	773.018	26.124
12.1511	776.934	26.1436
12.1521	783.911	26.1631
12.1539	776.421	26.1826
12.1563	778.026	26.2021
12.1573	782.721	26.22168
12.1603	778.448	26.2412
12.1607	777.1637	26.2607
12.1624	786.615	26.2803
12.1637	781.067	26.2998
12.1663	776.792	26.3193
12.167	785.8941	26.3389
12.1684	785.867	26.3584
12.1711	776.8092	26.37793
12.1723	785.661	26.3975
12.1734	791.024	26.417
12.1748	779.754	26.4365
12.1767	785.478	26.4561
12.1782	791.483	26.4756
12.1799	783.742	26.4951
12.1814	784.507	26.5146
12.1837	795.04	26.53418
12.1859	783.789	26.5537
12.18723	786.209	26.5732
12.1889	795.0329	26.5928
12.1905	790.227	26.6123
12.1912	784.6972	26.6318
12.19318	794.924	26.6514
12.1945	790.185	26.6709
12.1966	788.335	26.69043
12.1977	792.06	26.71
12.1997	796.667	26.7295
12.2025	787.542	26.749
12.2038	794.987	26.7686
12.2038	796.739	26.7881
12.2065	790.923	26.8076
12.2084	790.231	26.8271
12.2095	799.82	26.84668
12.2113	795.2334	26.8662
12.2138	791.422	26.8857
12.2145	797.8	26.9053
12.2167	798.171	26.9248
12.2181	791.22	26.9443
12.2183	800.938	26.9639
12.2218	800.456	26.9834
12.2226	791.94	27.00293
12.22513	800.402	27.0225
12.2262	803.758	27.042
12.2265	792.223	27.0615
12.2291	798.246	27.0811
12.2304	806.542	27.1006
12.232	795.449	27.1201
12.2343	800.152	27.1396
12.2366	805.073	27.15918
12.2367	800.528	27.1787
12.2394	799.926	27.1982
12.24	809.316	27.2178
12.2426	800.834	27.2373
12.244	800.25	27.2568
12.24453	805.578	27.2764
12.2463	806.808	27.2959
12.2482	799.3	27.31543
12.2503	807.161	27.335
12.2505	805.764	27.3545
12.2537	803.208	27.374
12.2545	804.348	27.3936
12.2561	812.435	27.4131
12.2589	801.624	27.4326
12.2595	805.802	27.4521
12.2607	810.851	27.47168
12.2631	807.224	27.4912
12.2649	803.173	27.5107
12.2663	813.926	27.5303
12.26775	810.71	27.5498
12.2693	806.2984	27.5693
12.27157	812.656	27.5889
12.2733	813.648	27.6084
12.275	803.557	27.62793
12.2773	812.113	27.6475
12.2779	816.245	27.667
12.2785	805.415	27.6865
12.2822	812.83	27.7061
12.284	818.518	27.7256
12.2845	810.8877	27.7451
12.2863	809.438	27.7646
12.2883	820.967	27.78418
12.2893	810.469	27.8037
12.2911	812.163	27.8232
12.2924	818.948	27.8428
12.2947	816.059	27.8623
12.2957	810.691	27.8818
12.298	822.441	27.9014
12.2988	816.183	27.9209
12.29963	812.394	27.94043
12.3024	818.792	27.96
12.3031	822.181	27.9795
12.3058	814.407	27.999
12.3078	818.797	28.0186
12.3094	820.706	28.0381
12.3108	818.245	28.0576
12.313	816.903	28.0771
12.3137	825.736	28.09668
12.31517	819.603	28.1162
12.3171	819.32	28.1357
12.3185	825.54	28.1553
12.3198	824.19	28.1748
12.322	815.156	28.1943
12.3235	825.242	28.2139
12.3255	825.793	28.2334
12.3273	819.147	28.25293
12.32805	825.488	28.2725
12.3309	829.172	28.292
12.3316	819.323	28.3115
12.33309	825.277	28.3311
12.3347	832.504	28.3506
12.336	821.154	28.3701
12.3387	822.26	28.3896
12.3396	832.124	28.40918
12.3416	825.438	28.4287
12.3425	822.575	28.4482
12.345	834.005	28.4678
12.345	823.761	28.4873
12.348	824.846	28.5068
12.35	831.92	28.5264
12.3505	832.288	28.5459
12.3529	823.11	28.56543
12.3552	833.0365	28.585
12.35561	831.163	28.6045
12.3578	825.417	28.624
12.3598	827.99	28.6436
12.3609	836.066	28.6631
12.36205	828.891	28.6826
12.364	830.655	28.7021
12.366	833.205	28.72168
12.3663	831.795	28.7412
12.3686	828.119	28.7607
12.3709	838.606	28.7803
12.372	831.977	28.7998
12.37418	827.888	28.8193
12.3752	835.634	28.8389
12.3776	838.675	28.8584
12.3793	828.782	28.87793
12.3809	835.974	28.8975
12.3822	840.327	28.917
12.3845	831.607	28.9365
12.3855	835.9693	28.9561
12.3877	841.623	28.9756
12.39	832.679	28.9951
12.3909	833.725	29.0146
12.39243	845.591	29.03418
12.3932	835.1427	29.0537
12.39521	834.541	29.0732
12.3965	841.516	29.0928
12.3988	838.958	29.1123
12.3999	834.335	29.1318
12.4019	843.822	29.1514
12.4036	839.292	29.1709
12.4045	834.276	29.19043
12.4064	840.293	29.21
12.4079	844.356	29.2295
12.4102	834.983	29.249
12.4109	841.7785	29.2686
12.4128	845.461	29.2881
12.4152	840.086	29.3076
12.4166	836.863	29.3271
12.41682	847.212	29.34668
12.4198	841.74	29.3662
12.4204	841.313	29.3857
12.4224	847.148	29.4053
12.4258	844.407	29.4248
12.4254	838.238	29.4443
12.42793	848.871	29.4639
12.4291	847.064	29.4834
12.4315	837.922	29.50293
12.4321	844.178	29.5225
12.435	850.138	29.542
12.4358	840.016	29.5615
12.4372	843.8418	29.5811
12.4394	850.849	29.6006
12.4415	840.645	29.6201
12.443	845.095	29.6396
12.4442	852.393	29.65918
12.4453	843.391	29.6787
12.4465	842.804	29.6982
12.4494	854.257	29.7178
12.4508	846.033	29.7373
12.4512	841.924	29.7568
12.4539	850.999	29.7764
12.4549	851.009	29.7959
12.4571	843.121	29.81543
12.45875	851.491	29.835
12.46006	849.756	29.8545
12.4616	844.515	29.874
12.463	847.719	29.8936
12.4648	856.067	29.9131
12.4663	846.682	29.9326
12.4686	850.418	29.9521
12.4688	851.806	29.97168
12.4722	848.47	29.9912
12.4729	845.708	30.0107
12.4755	856.917	30.0303
12.4752	849.639	30.0498
12.4782	848.503	30.0693
12.4793	853.0058	30.0889
12.4818	853.961	30.1084
12.483	845.795	30.12793
12.4851	853.596	30.1475
12.486	858.225	30.167
12.4873	849.27	30.1865
12.4887	850.712	30.2061
12.4908	857.692	30.2256
12.4934	849.056	30.2451
12.4939	850.808	30.2646
12.4955	859.351	30.28418
12.4982	850.926	30.3037
12.4997	849.2298	30.3232
12.4999	859.11	30.3428
12.502	854.885	30.3623
12.5042	848.323	30.3818
12.5056	860.43	30.4014
12.5076	855.897	30.4209
12.5086	852.1983	30.44043
12.5105	856.911	30.46
12.511	859.742	30.4795
12.5138	852.663	30.499
12.51467	859.029	30.5186
12.51757	859.903	30.5381
12.5194	853.776	30.5576
12.5209	855.232	30.5771
12.5221	864.175	30.59668
12.52382	857.738	30.6162
12.5253	855.232	30.6357
12.5268	858.981	30.6553
12.5291	859.708	30.6748
12.5306	852.861	30.6943
12.5321	861.099	30.7139
12.5334	859.3598	30.7334
12.535	853.412	30.75293
12.537	858.7276	30.7725
12.5386	864.516	30.792
12.54	852.59	30.8115
12.5414	858.227	30.8311
12.5435	866.233	30.8506
12.5452	857.052	30.8701
12.5463	855.992	30.8896
12.54797	865.19	30.90918
12.54957	859.172	30.9287
12.5511	856.783	30.9482
12.5534	867.921	30.9678
12.5553	858.459	30.9873
12.5553	855.794	31.0068
12.5569	864.825	31.0264
12.5599	863.623	31.0459
12.5607	854.46	31.06543
12.5628	863.14	31.085
12.5656	864.4	31.1045
12.566	859.586	31.124
12.5669	860.089	31.1436
12.5689	867.454	31.1631
12.5708	858.713	31.1826
12.5729	860.713	31.2021
12.5734	866.442	31.22168
12.5755	861.793	31.2412
12.57714	857.179	31.2607
12.5788	868.3183	31.2803
12.5808	865.864	31.2998
12.5823	860.31	31.3193
12.5845	864.473	31.3389
12.5854	866.677	31.3584
12.58681	856.851	31.37793
12.58894	866.18	31.3975
12.5896	868.107	31.417
12.59196	858.702	31.4365
12.594	860.678	31.4561
12.5945	869.969	31.4756
12.5968	861.533	31.4951
12.5988	860.655	31.5146
12.6003	871.905	31.53418
12.6009	863.705	31.5537
12.6036	860.628	31.5732
12.6063	869.772	31.5928
12.6066	863.212	31.6123
12.6086	858.985	31.6318
12.6096	869.055	31.6514
12.612	864.445	31.6709
12.6138	858.764	31.69043
12.6151	864.707	31.71
12.6173	868.3075	31.7295
12.61819	859.475	31.749
12.6193	866.66	31.7686
12.6223	865.897	31.7881
12.6222	863.033	31.8076
12.625	862.218	31.8271
12.6253	870.083	31.84668
12.6278	861.43	31.8662
12.6292	862.883	31.8857
12.63149	867.904	31.9053
12.6339	868.364	31.9248
12.6346	860.5401	31.9443
12.6359	868.521	31.9639
[...]
14.90751	907.2171	59.2295
14.9104	895.185	59.249
14.9111	901.525	59.2686
14.91369	906.947	59.2881
14.915	899.919	59.3076
14.917	898.767	59.3271
14.9179	907.956	59.34668
14.9195	898.163	59.3662
14.9209	897.958	59.3857
14.9226	908.546	59.4053
14.92426	901.159	59.4248
14.925	892.939	59.4443
14.927	905.794	59.4639
14.929	903.659	59.4834
14.9322	897.216	59.50293
14.9315	904.262	59.5225
14.9339	905.141	59.542
14.9354	894.19	59.5615
14.9366	902.781	59.5811
14.93878	906.566	59.6006
14.94078	896.421	59.6201
14.9422	900.104	59.6396
14.944	907.922	59.65918
14.9453	899.683	59.6787
14.9464	896.204	59.6982
14.9486	905.375	59.7178
14.95	899.047	59.7373
14.9526	901.046	59.7568
14.9532	902.484	59.7764
14.9561	903.3266	59.7959
14.9567	895.713	59.81543
14.958	904.812	59.835
14.9601	905.504	59.8545
14.9608	897.83	59.874
14.9635	900.218	59.8936
14.9653	907.849	59.9131
14.9662	896.573	59.9326
14.9676	900.755	59.9521
14.9702	906.002	59.97168
14.97206	900.669	59.9912
14.9737	894.142	60.0107
14.97473	900.797	60.0205

Data Header:			0.254_hd_uprint_typei_4545_r0			Time:	75.1965	s	4/15/2019 4:16:34 PM
Data Acquisition:	Timed
Station Name:	ft40.cfg
Test File Name:	monotonic_0.2540_typei_hd_4545_uprint.tst
Displacement	Force	Running Time
mm	N	s
14.9747	907.363	60.0303
14.9753	899.863	60.0498
14.9784	897.329	60.0693
14.9816	907.012	60.0889
14.9818	904.9527	60.1084
14.9828	894.107	60.12793
14.9846	903.23	60.1475
14.986	905.443	60.167
14.9871	895.853	60.1865
14.9889	904.214	60.2061
14.9917	903.9978	60.2256
14.993	895.304	60.2451
14.9947	899.519	60.2646
14.9964	907.235	60.28418
14.9983	899.187	60.3037
14.99993	899.192	60.3232
15.001	904.243	60.3428
15.0032	902.052	60.3623
15.0043	895.705	60.3818
15.0053	905.099	60.4014
15.0076	903.214	60.4209
15.0095	896.972	60.44043
15.0111	901.274	60.46
15.0124	905.951	60.4795
15.0136	895.321	60.499
15.0152	902.335	60.5186
15.0171	907.265	60.5381
15.0182	899.649	60.5576
15.0205	895.209	60.5771
15.0223	908.457	60.59668
15.0239	897.77	60.6162
15.0249	897.8429	60.6357
15.0278	905.271	60.6553
15.0275	901.899	60.6748
15.0309	894.195	60.6943
15.03145	906.871	60.7139
15.0325	901.565	60.7334
15.0355	895.755	60.75293
15.0363	904.3465	60.7725
15.03857	906.493	60.792
15.0401	893.404	60.8115
15.0419	901.452	60.8311
15.0436	904.342	60.8506
15.0456	897.178	60.8701
15.0462	900.692	60.8896
15.0481	906.3537	60.90918
15.0487	897.036	60.9287
15.05112	896.1322	60.9482
15.053	907.611	60.9678
15.0539	898.966	60.9873
15.0564	896.689	61.0068
15.0579	903.574	61.0264
15.0585	904.313	61.0459
15.0603	895.633	61.06543
15.0619	904.545	61.085
15.0648	905.296	61.1045
15.0658	897.705	61.124
15.0683	899.504	61.1436
15.0688	906.2514	61.1631
15.0714	895.715	61.1826
15.072	899.197	61.2021
15.0746	908.221	61.22168
15.0754	901.107	61.2412
15.0769	893.75	61.2607
15.0788	907.857	61.2803
15.0807	902.353	61.2998
15.0818	897.8374	61.3193
15.0834	906.513	61.3389
15.0854	904.204	61.3584
15.0869	894.216	61.37793
15.0881	906.002	61.3975
15.0901	905.8056	61.417
15.0924	894.658	61.4365
15.093	901.0459	61.4561
15.0958	907.257	61.4756
15.0962	896.369	61.4951
15.09852	898.794	61.5146
15.1003	905.88	61.53418
15.1025	898.596	61.5537
15.1034	900.725	61.5732
15.1052	905.352	61.5928
15.1061	900.382	61.6123
15.10836	895.444	61.6318
15.1102	905.674	61.6514
15.1117	902.842	61.6709
15.1134	897.204	61.69043
15.1147	900.077	61.71
15.1155	907.019	61.7295
15.11728	895.848	61.749
15.1197	902.62	61.7686
15.1211	904.834	61.7881
15.12192	898.54	61.8076
15.1242	896.974	61.8271
15.1258	909.382	61.84668
15.1279	897.507	61.8662
15.1289	898.099	61.8857
15.1315	907.451	61.9053
15.1326	902.253	61.9248
15.1347	892.682	61.9443
15.1354	905.7486	61.9639
15.1377	901.742	61.9834
15.1393	896.12	62.00293
15.1423	904.164	62.0225
15.143	905.188	62.042
15.1441	892.601	62.0615
15.1461	900.4375	62.0811
15.147	906.396	62.1006
15.1499	897.5224	62.1201
15.14985	898.898	62.1396
15.1531	906.454	62.15918
15.1548	899.016	62.1787
15.155	898.991	62.1982
15.1574	905.325	62.2178
15.1593	900.388	62.2373
15.1601	898.477	62.2568
15.1614	905.418	62.2764
15.1638	902.812	62.2959
15.166	893.9425	62.31543
15.1669	902.235	62.335
15.1677	905.4173	62.3545
15.17067	897.758	62.374
15.172	897.956	62.3936
15.1736	906.86	62.4131
15.1747	895.473	62.4326
15.1775	900.563	62.4521
15.1778	907.307	62.47168
15.1802	901.179	62.4912
15.1816	894.8	62.5107
15.1825	908.434	62.5303
15.185	900.185	62.5498
15.1847	895.794	62.5693
15.1881	903.639	62.5889
15.1888	903.8446	62.6084
15.1896	893.6225	62.62793
15.1919	905.075	62.6475
15.1944	903.111	62.667
15.196	895.069	62.6865
15.1983	902.386	62.7061
15.2004	908.284	62.7256
15.2003	893.059	62.7451
15.2019	899.767	62.7646
15.20404	906.221	62.78418
15.2056	899.366	62.8037
15.2074	898.192	62.8232
15.2099	904.106	62.8428
15.2108	899.098	62.8623
15.2115	898.803	62.8818
15.2133	903.857	62.9014
15.2159	901.11	62.9209
15.21704	896.2287	62.94043
15.2184	901.807	62.96
15.2202	905.788	62.9795
15.2222	895.586	62.999
15.2238	900.008	63.0186
15.2255	906.374	63.0381
15.2268	900.09	63.0576
15.2282	897.489	63.0771
15.2301	907.187	63.09668
15.2316	897.417	63.1162
15.2339	899.147	63.1357
15.2353	906.7	63.1553
15.236	899.92	63.1748
15.2377	892.756	63.1943
15.2403	906.861	63.2139
15.2419	902.987	63.2334
15.2432	896.228	63.25293
15.2455	902.573	63.2725
15.2462	906.578	63.292
15.24764	893.584	63.3115
15.2505	902.845	63.3311
15.2514	902.814	63.3506
15.2535	895.97	63.3701
15.2544	899.174	63.3896
15.2568	906.582	63.40918
15.25728	896.392	63.4287
15.2597	896.982	63.4482
15.2615	903.84	63.4678
15.2623	899.978	63.4873
15.2643	895.732	63.5068
15.2659	903.5	63.5264
15.2671	900.384	63.5459
15.2687	894.171	63.56543
15.2719	902.703	63.585
15.27337	901.815	63.6045
15.274	896.063	63.624
15.2757	897.232	63.6436
15.2779	905.944	63.6631
15.27949	898.48	63.6826
15.2819	899.358	63.7021
15.2818	903.983	63.72168
15.2838	900.381	63.7412
15.2857	894.714	63.7607
15.2865	906.631	63.7803
15.2889	896.9259	63.7998
15.2904	896.241	63.8193
15.2926	904.357	63.8389
15.29316	904.458	63.8584
15.2954	891.8125	63.87793
15.2972	904.226	63.8975
15.2991	905.204	63.917
15.3013	896.212	63.9365
15.3018	900.767	63.9561
15.3034	905.266	63.9756
15.3061	892.746	63.9951
15.3071	898.485	64.0146
15.3088	904.92	64.03418
15.311	899.0918	64.0537
15.31125	898.138	64.0732
15.3136	906.103	64.0928
15.3152	899.4986	64.1123
15.3165	895.215	64.1318
15.3176	903.7699	64.1514
15.31946	901.39	64.1709
15.3213	897.754	64.19043
15.3226	901.171	64.21
15.325	903.522	64.2295
15.3266	895.023	64.249
15.3282	900.148	64.2686
15.3297	905.344	64.2881
15.3307	898.76	64.3076
15.3325	895.767	64.3271
15.3344	906.066	64.34668
15.3364	897.318	64.3662
15.3388	897.356	64.3857
15.3389	904.886	64.4053
15.3413	900.103	64.4248
15.3431	893.607	64.4443
15.3444	906.56	64.4639
15.346	901.388	64.4834
15.3467	895.411	64.50293
15.3483	902.9292	64.5225
15.3507	905.845	64.542
15.3535	893.071	64.5615
15.3539	901.511	64.5811
15.3559	904.781	64.6006
15.3577	897.04	64.6201
15.3582	898.768	64.6396
15.3603	904.523	64.65918
15.3621	894.387	64.6787
15.364	896.435	64.6982
15.3656	904.638	64.7178
15.3671	898.613	64.7373
15.3676	896.179	64.7568
15.3701	903.214	64.7764
15.3724	901.483	64.7959
15.374	895.3465	64.81543
15.3741	901.165	64.835
15.3763	902.91	64.8545
15.3786	898.451	64.874
15.3804	900.713	64.8936
15.3811	904.409	64.9131
15.3832	894.754	64.9326
15.3844	898.9137	64.9521
15.3863	906.1543	64.97168
15.3877	898.8	64.9912
15.3904	894.036	65.0107
15.3922	904.995	65.0303
15.393	898.378	65.0498
15.3952	897.73	65.0693
15.3971	904.373	65.0889
15.39895	904.19	65.1084
15.4001	893.691	65.12793
15.4018	904.316	65.1475
15.4027	904.8158	65.167
15.4052	895.779	65.1865
15.4067	900.099	65.2061
15.4079	908.258	65.2256
15.4103	894.988	65.2451
15.4111	899.678	65.2646
15.4117	904.565	65.28418
15.4131	899.196	65.3037
15.4164	898.4895	65.3232
15.4176	905.71	65.3428
15.4188	897.727	65.3623
15.4214	896.207	65.3818
15.423	903.416	65.4014
15.42297	901.6	65.4209
15.4257	895.354	65.44043
15.4273	900.974	65.46
15.4289	903.816	65.4795
15.4309	895.434	65.499
15.4318	900.349	65.5186
15.43437	903.287	65.5381
15.4356	897.96	65.5576
15.4375	897.922	65.5771
15.4381	905.609	65.59668
15.4398	895.688	65.6162
15.4423	896.303	65.6357
15.4434	905.209	65.6553
15.4458	904.7326	65.6748
15.4465	894.003	65.6943
15.4492	904.155	65.7139
15.4492	901.362	65.7334
15.4523	895.681	65.75293
15.4526	902.328	65.7725
15.454	904.69	65.792
15.4569	892.098	65.8115
15.458	902.743	65.8311
15.4599	905.912	65.8506
15.4615	897.175	65.8701
15.463	897.483	65.8896
15.4651	908.082	65.90918
15.4665	897.258	65.9287
15.4677	898.045	65.9482
15.4697	904.71	65.9678
15.4704	900.491	65.9873
15.4729	895.377	66.0068
15.4735	904.21	66.0264
15.4759	899.8114	66.0459
15.4769	894.463	66.06543
15.4789	903.552	66.085
15.4805	905.529	66.1045
15.4834	897.543	66.124
15.4839	898.064	66.1436
15.4865	904.369	66.1631
15.4875	897.504	66.1826
15.4887	900.883	66.2021
15.4905	904.971	66.22168
15.4925	898.628	66.2412
15.4944	894.8324	66.2607
15.4956	907.352	66.2803
15.4977	898.655	66.2998
15.4984	893.126	66.3193
15.5006	904.55	66.3389
15.5021	904.323	66.3584
15.5038	892.645	66.37793
15.5055	903.154	66.3975
15.50648	903.152	66.417
15.5084	895.627	66.4365
15.5098	901.684	66.4561
15.5123	904.7749	66.4756
15.5138	892.198	66.4951
15.5155	900.161	66.5146
15.5162	905.442	66.53418
15.5185	897.3667	66.5537
15.51965	896.936	66.5732
15.522	904.688	66.5928
15.5232	899.16	66.6123
15.52374	895.388	66.6318
15.527	903.078	66.6514
15.528	901.732	66.6709
15.5292	895.468	66.69043
15.532	902.07	66.71
15.5334	903.5	66.7295
15.5347	893.9339	66.749
15.536	899.818	66.7686
15.538	905.067	66.7881
15.5397	897.526	66.8076
15.54142	897.509	66.8271
15.5427	905.171	66.84668
15.5445	898.13	66.8662
15.5465	897.232	66.8857
15.5477	904.734	66.9053
15.549	902.205	66.9248
15.5496	893.4292	66.9443
15.5522	905.9942	66.9639
15.55449	902.615	66.9834
15.5563	895.584	67.00293
15.5578	901.8952	67.0225
15.5593	906.291	67.042
15.5609	893.773	67.0615
15.5615	902.3075	67.0811
15.5638	905.514	67.1006
15.5651	897.427	67.1201
15.567	900.123	67.1396
15.5689	908.303	67.15918
15.57017	895.7	67.1787
15.5722	898.501	67.1982
15.5737	906.6394	67.2178
15.5752	901.588	67.2373
15.5762	896.588	67.2568
15.5793	905.2962	67.2764
15.58	899.62	67.2959
15.5823	896.757	67.31543
15.5836	902.258	67.335
15.5853	903.956	67.3545
15.5871	895.397	67.374
15.5878	899.149	67.3936
15.5892	904.918	67.4131
15.5911	897.7818	67.4326
15.5931	897.154	67.4521
15.5951	905.164	67.47168
15.5961	900.55	67.4912
15.5986	896.7674	67.5107
15.5992	905.145	67.5303
15.6011	900.376	67.5498
15.6038	894.839	67.5693
15.6048	904.123	67.5889
15.60617	904.633	67.6084
15.60792	891.4718	67.62793
15.6094	903.639	67.6475
15.6116	904.02	67.667
15.61311	896.089	67.6865
15.6138	900.834	67.7061
15.6148	906.414	67.7256
15.6197	895.3	67.7451
15.6185	901.634	67.7646
15.6215	905.968	67.78418
15.6225	898.722	67.8037
15.6249	896.366	67.8232
15.6263	908.114	67.8428
15.6279	899.839	67.8623
15.6298	896.584	67.8818
15.6315	903.389	67.9014
15.6329	903.313	67.9209
15.6338	896.44	67.94043
15.6354	901.936	67.96
15.6379	900.848	67.9795
15.639	897.007	67.999
15.6401	901.0144	68.0186
15.6416	902.592	68.0381
15.6438	897.7276	68.0576
15.6443	896.3374	68.0771
15.6468	905.125	68.09668
15.6486	899.173	68.1162
15.6503	896.017	68.1357
15.65211	903.806	68.1553
15.6526	902.33	68.1748
15.6552	894.463	68.1943
15.6562	904.629	68.2139
15.6578	900.753	68.2334
15.6592	895.865	68.25293
15.6626	903.153	68.2725
15.6625	906.17	68.292
15.6651	892.418	68.3115
15.66649	900.347	68.3311
15.6691	904.543	68.3506
15.6704	898.268	68.3701
15.6716	899.568	68.3896
15.67347	907.057	68.40918
15.6746	895.7431	68.4287
15.6758	898.567	68.4482
15.6774	906.179	68.4678
15.6795	899.87	68.4873
15.6799	896.283	68.5068
15.6835	905.25	68.5264
15.6833	898.956	68.5459
15.6857	895.478	68.56543
15.68814	901.116	68.585
15.6894	905.291	68.6045
15.6909	895.841	68.624
15.6917	898.748	68.6436
15.6938	902.397	68.6631
15.6956	895.764	68.6826
15.6977	899.337	68.7021
15.6995	905.061	68.72168
15.7005	898.1037	68.7412
15.7021	894.97	68.7607
15.7041	904.373	68.7803
15.7061	899.612	68.7998
15.7074	894.324	68.8193
15.7074	903.437	68.8389
15.7107	903.702	68.8584
15.712	893.401	68.87793
15.714	903.592	68.8975
15.71527	903.123	68.917
15.7163	894.227	68.9365
15.719	899.456	68.9561
15.7202	907.909	68.9756
15.7227	892.844	68.9951
15.7243	896.9068	69.0146
15.725	904.43	69.03418
15.7268	898.473	69.0537
15.728	896.642	69.0732
15.7296	904.214	69.0928
15.7315	896.071	69.1123
15.7332	897.735	69.1318
15.7353	904.636	69.1514
15.73688	900.956	69.1709
15.7376	893.537	69.19043
15.73978	902.164	69.21
15.7411	902.631	69.2295
15.7429	894.1134	69.249
15.7445	898.587	69.2686
15.7465	904.459	69.2881
15.7479	897.126	69.3076
15.7491	899.093	69.3271
15.751	903.556	69.34668
15.7527	896.996	69.3662
15.7541	894.107	69.3857
15.7568	906.833	69.4053
15.7581	901.74	69.4248
15.7599	891.966	69.4443
15.7616	901.618	69.4639
15.7624	901.944	69.4834
15.7645	895.743	69.50293
15.7657	901.938	69.5225
15.7672	906.9906	69.542
15.769	892.425	69.5615
15.7707	901.69	69.5811
15.7722	903.5144	69.6006
15.7739	896.694	69.6201
15.7752	898.509	69.6396
15.77702	907.035	69.65918
15.7784	896.33	69.6787
15.78	896.354	69.6982
15.7818	902.912	69.7178
15.784	899.694	69.7373
15.7845	895.455	69.7568
15.7869	905.795	69.7764
15.7887	898.5271	69.7959
15.7907	896.164	69.81543
15.7911	901.781	69.835
15.7933	904.445	69.8545
15.795	894.068	69.874
15.7965	898.408	69.8936
15.7977	902.679	69.9131
15.8005	896.594	69.9326
15.8016	896.3606	69.9521
15.8023	903.299	69.97168
15.8045	898.795	69.9912
15.807	894.382	70.0107
15.807	903.026	70.0303
15.8097	898.459	70.0498
15.8104	893.354	70.0693
15.8135	903.9187	70.0889
15.8148	902.951	70.1084
15.8155	892.3858	70.12793
15.8183	901.833	70.1475
15.8194	904.041	70.167
15.8202	893.116	70.1865
15.8232	899.97	70.2061
15.8244	905.544	70.2256
15.8258	892.432	70.2451
15.8272	898.402	70.2646
15.83054	905.728	70.28418
15.831	897.532	70.3037
15.8324	894.648	70.3232
15.8339	906.72	70.3428
15.8363	898.002	70.3623
15.8372	893.285	70.3818
15.8391	901.379	70.4014
15.8403	901.746	70.4209
15.8428	893.332	70.44043
15.8434	901.344	70.46
15.8462	900.817	70.4795
15.84834	894.387	70.499
15.8497	898.587	70.5186
15.8501	904.675	70.5381
15.8517	896.841	70.5576
15.8531	894.831	70.5771
15.856	901.637	70.59668
15.8573	898.026	70.6162
15.8587	894.7066	70.6357
15.8592	902.897	70.6553
15.8612	899.428	70.6748
15.8649	892.716	70.6943
15.8663	903.633	70.7139
15.8666	901.391	70.7334
15.86795	891.989	70.75293
15.8693	900.635	70.7725
15.8709	904.591	70.792
15.8731	891.32	70.8115
15.8754	899.586	70.8311
15.8758	901.952	70.8506
15.8774	894.891	70.8701
15.8796	897.321	70.8896
15.8818	905.801	70.90918
15.8818	893.744	70.9287
15.8842	895.0285	70.9482
15.8867	902.515	70.9678
15.8867	899.623	70.9873
15.8888	894.406	71.0068
15.8906	902.807	71.0264
15.8934	897.396	71.0459
15.89444	894.625	71.06543
15.8961	900.574	71.085
15.8972	901.464	71.1045
15.8991	894.1618	71.124
15.90167	900.197	71.1436
15.9024	903.104	71.1631
15.9041	895.225	71.1826
15.90613	893.672	71.2021
15.9071	905.027	71.22168
15.9094	897.859	71.2412
15.9101	893.371	71.2607
15.9114	901.466	71.2803
15.9141	900.031	71.2998
15.9153	893.133	71.3193
15.9161	902.546	71.3389
15.91864	901.404	71.3584
15.9199	891.144	71.37793
15.9217	902.017	71.3975
15.9231	901.664	71.417
15.9239	893.379	71.4365
15.9262	897.0412	71.4561
15.928	904.67	71.4756
15.93	893.202	71.4951
15.931	897.474	71.5146
15.9335	902.902	71.53418
15.93563	897.087	71.5537
15.93611	896.9054	71.5732
15.9383	905.537	71.5928
15.9392	895.876	71.6123
15.9419	894.733	71.6318
15.94352	901.083	71.6514
15.9457	901.225	71.6709
15.9461	892.235	71.69043
15.9474	900.838	71.71
15.95068	900.725	71.7295
15.9509	895.348	71.749
15.9529	899.3587	71.7686
15.9557	903.575	71.7881
15.9561	895.056	71.8076
15.9583	897.735	71.8271
15.9594	901.744	71.84668
15.9606	894.878	71.8662
15.9614	895.215	71.8857
15.9651	902.7851	71.9053
15.9655	900.409	71.9248
15.9679	890.692	71.9443
15.969	900.33	71.9639
15.97083	900.342	71.9834
15.9724	893.023	72.00293
15.974	899.785	72.0225
15.9761	903.54	72.042
15.9773	889.608	72.0615
15.9788	897.66	72.0811
15.9802	902.816	72.1006
15.9828	893.741	72.1201
15.98421	893.997	72.1396
15.9859	903.9895	72.15918
15.9868	891.999	72.1787
15.9897	894.839	72.1982
15.9915	900.79	72.2178
15.9914	897.134	72.2373
15.9939	892.619	72.2568
15.9953	902.894	72.2764
15.9972	896.9436	72.2959
15.9986	891.2077	72.31543
16	897.216	72.335
16.0019	901.461	72.3545
16.0034	891.545	72.374
16.0048	895.423	72.3936
16.0075	899.5462	72.4131
16.0076	893.392	72.4326
16.0097	894.488	72.4521
16.0118	901.782	72.47168
16.0133	894.067	72.4912
16.0146	890.094	72.5107
16.01609	901.309	72.5303
16.0181	896.25	72.5498
16.0195	888.657	72.5693
16.0216	898.547	72.5889
16.0235	899.379	72.6084
16.0242	889.448	72.62793
16.026	897.455	72.6475
16.0277	900.103	72.667
16.0295	891.272	72.6865
16.0305	895.094	72.7061
16.0327	901.843	72.7256
16.0359	889.178	72.7451
16.0357	893.392	72.7646
16.0385	900.215	72.78418
16.0391	893.452	72.8037
16.0411	888.234	72.8232
16.0424	898.794	72.8428
16.0431	888.5	72.8623
16.0456	887.425	72.8818
16.0547	-58.14476	72.9014
16.0533	-43.9998	72.9209
16.0548	-50.28186	72.94043
16.055	-44.27	72.96
16.0549	-48.3961	72.9795
16.0568	-52.7353	72.999
16.0579	-47.4646	73.0186
16.0605	-41.6156	73.0381
16.0607	-50.1516	73.0576
16.0617	-52.2466	73.0771
16.0638	-44.1988	73.09668
16.0661	-49.6965	73.1162
16.0678	-52.27906	73.1357
16.0685	-43.98951	73.1553
16.07209	-48.299	73.1748
16.0722	-56.382	73.1943
16.0751	-45.0184	73.2139
16.0755	-45.0658	73.2334
16.0763	-55.7051	73.25293
16.0811	-47.2854	73.2725
16.0802	-42.1812	73.292
16.0823	-55.699	73.3115
16.0837	-47.1961	73.3311
16.0855	-43.9126	73.3506
16.0873	-51.2982	73.3701
16.089	-51.815	73.3896
16.09066	-41.5593	73.40918
16.0906	-53.0353	73.4287
16.0934	-51.9567	73.4482
16.09514	-43.8077	73.4678
16.097	-47.2371	73.4873
16.0973	-53.9001	73.5068
16.0994	-42.6866	73.5264
16.1018	-47.6768	73.5459
16.1023	-52.0951	73.56543
16.1043	-45.271	73.585
16.106	-43.1949	73.6045
16.1078	-52.0558	73.624
16.1105	-45.6742	73.6436
16.1115	-44.8228	73.6631
16.1116	-50.8724	73.6826
16.1149	-52.1414	73.7021
16.1163	-42.1924	73.72168
16.1178	-47.5199	73.7412
16.1204	-52.5988	73.7607
16.1213	-44.3237	73.7803
16.1228	-47.808	73.7998
16.1239	-52.5686	73.8193
16.1275	-43.8978	73.8389
16.1268	-44.5251	73.8584
16.1283	-56.4743	73.87793
16.131	-45.2202	73.8975
16.1321	-43.4942	73.917
16.1336	-52.1463	73.9365
16.1357	-48.6758	73.9561
16.13731	-42.1122	73.9756
16.1402	-52.7545	73.9951
16.14015	-48.6293	74.0146
16.142	-43.0622	74.03418
16.1446	-50.56	74.0537
16.1453	-52.1115	74.0732
16.1468	-40.1391	74.0928
16.149	-51.5357	74.1123
16.1503	-52.6687	74.1318
16.1531	-45.4393	74.1514
16.1541	-44.5094	74.1709
16.1557	-52.0537	74.19043
16.1575	-45.6459	74.21
16.1589	-45.2499	74.2295
16.1595	-51.3272	74.249
16.1604	-47.6097	74.2686
16.1623	-41.6873	74.2881
16.166	-49.9894	74.3076
16.1664	-49.3888	74.3271
16.1689	-43.7416	74.34668
16.17	-49.1988	74.3662
16.1711	-52.4463	74.3857
16.174	-44.5429	74.4053
16.1745	-45.7135	74.4248
16.1761	-54.5802	74.4443
16.1797	-45.5196	74.4639
16.1795	-45.4494	74.4834
16.1815	-52.4572	74.50293
16.183	-44.2953	74.5225
16.1841	-40.7624	74.542
16.1868	-56.5004	74.5615
16.1876	-47.67635	74.5811
16.18961	-43.2401	74.6006
16.1901	-49.6859	74.6201
16.1932	-51.124	74.6396
16.1944	-40.3929	74.65918
16.1958	-52.70668	74.6787
16.1985	-51.5668	74.6982
16.1992	-43.4595	74.7178
16.2004	-47.8095	74.7373
16.2036	-53.4783	74.7568
16.2042	-41.7433	74.7764
16.2064	-45.8851	74.7959
16.2077	-52.6358	74.81543
16.2085	-47.5137	74.835
16.2106	-43.484	74.8545
16.2121	-51.63129	74.874
16.2133	-48.4683	74.8936
16.2161	-45.917	74.9131
16.2167	-50.9066	74.9326
16.2199	-50.2747	74.9521
16.2196	-40.6918	74.97168
16.22131	-49.4044	74.9912
16.2232	-52.2181	75.0107
16.2247	-42.96957	75.0303
16.2261	-46.666	75.0498
16.2288	-54.3813	75.0693
16.2302	-45.9169	75.0889
16.2318	-43.7758	75.1084
16.2327	-55.48637	75.12793
16.2341	-47.2685	75.1475
16.2366	-44.492	75.167
16.2379	-53.0412	75.1865