File: data/processed_data_files/tensile/0.254_hd_uprint_typeiv_090_r(4).dat
MTS793|BTW|ENU|1|2|.|/|:|1|0|0|A

Data Header:			0.254_hd_uprint_typeiv_090_r0			Time:	20.0229	s	4/13/2019 11:04:23 PM
Data Acquisition:	Timed
Station Name:	ft40.cfg
Test File Name:	monotonic_0.2540_typeiv_solid_4545_uprint.tst
Displacement	Force	Running Time
mm	N	s
-40.04422	-153.728	0.0280762
-40.0432	-158.7749	0.0476074
-40.0439	-156.839	0.0671387
-40.04213	-156.502	0.0866699
-40.0401	-151.547	0.106201
-40.0389	-154.953	0.125732
-40.0371	-149.964	0.145264
-40.0347	-151.815	0.164795
-40.0339	-151.836	0.184326
-40.0323	-151.397	0.203857
-40.0304	-144.712	0.223389
-40.0291	-149.471	0.24292
-40.0272	-148.972	0.262451
-40.0249	-145.023	0.281982
-40.025	-143.299	0.301514
-40.023	-147.197	0.321045
-40.0194	-142.354	0.340576
-40.0195	-140.96	0.360107
-40.0172	-143.367	0.379639
-40.0149	-140.112	0.39917
-40.0136	-137.32	0.418701
-40.0118	-141.91	0.438232
-40.0117	-139.052	0.457764
-40.01	-132.373	0.477295
-40.0078	-139.46	0.496826
-40.0066	-135.491	0.516357
-40.0047	-131.722	0.535889
-40.0032	-133.317	0.55542
-40.0013	-134.526	0.574951
-39.9998	-127.823	0.594482
-39.9991	-132.886	0.614014
-39.9968	-130.16	0.633545
-39.9949	-126.328	0.653076
-39.9928	-124.555	0.672607
-39.99078	-129.448	0.692139
-39.9892	-120.517	0.71167
-39.9887	-124.213	0.731201
-39.987	-124.003	0.750732
-39.9848	-122.2066	0.770264
-39.9837	-117.07	0.789795
-39.9823	-121.656	0.809326
-39.9796	-117.561	0.828857
-39.9791	-117.989	0.848389
-39.9771	-117.889	0.86792
-39.975	-119.478	0.887451
-39.9741	-111.227	0.906982
-39.9716	-113.94	0.926514
-39.9709	-115.401	0.946045
-39.9694	-111.698	0.965576
-39.9668	-108.258	0.985107
-39.9652	-114.328	1.00464
-39.964	-110.225	1.02417
-39.962	-105.893	1.0437
-39.9602	-109.4509	1.06323
-39.9589	-106.762	1.08276
-39.9586	-103.1531	1.10229
-39.9552	-108.0661	1.12183
-39.95348	-105.438	1.14136
-39.9525	-96.6036	1.16089
-39.949	-104.909	1.18042
-39.9491	-100.881	1.19995
-39.9469	-97.35376	1.21948
-39.9458	-98.3141	1.23901
-39.9444	-99.1184	1.25854
-39.9423	-92.5856	1.27808
-39.94257	-96.9767	1.29761
-39.9395	-95.8517	1.31714
-39.9381	-91.5893	1.33667
-39.93549	-89.3739	1.3562
-39.9342	-95.0601	1.37573
-39.9329	-89.4869	1.39526
-39.93095	-86.8494	1.41479
-39.9294	-89.1517	1.43433
-39.9281	-91.4348	1.45386
-39.9265	-85.0624	1.47339
-39.9251	-85.0952	1.49292
-39.9227	-87.2583	1.51245
-39.9226	-83.3222	1.53198
-39.92	-81.55117	1.55151
-39.9174	-86.5354	1.57104
-39.9175	-78.2638	1.59058
-39.9151	-77.4693	1.61011
-39.9146	-83.8585	1.62964
-39.9112	-77.6813	1.64917
-39.9102	-73.9916	1.6687
-39.9083	-78.3598	1.68823
-39.9079	-76.498	1.70776
-39.9052	-69.8284	1.72729
-39.903	-77.7508	1.74683
-39.9017	-73.2765	1.76636
-39.901	-69.1724	1.78589
-39.8992	-73.2259	1.80542
-39.8962	-71.3254	1.82495
-39.896	-64.5501	1.84448
-39.8942	-71.1197	1.86401
-39.8926	-68.0814	1.88354
-39.89	-64.2645	1.90308
-39.8883	-61.6904	1.92261
-39.887	-64.9609	1.94214
-39.8847	-60.0389	1.96167
-39.8845	-62.1818	1.9812
-39.882	-62.9312	2.00073
-39.88129	-59.8303	2.02026
-39.8796	-56.1125	2.03979
-39.8773	-61.0608	2.05933
-39.8764	-58.4306	2.07886
-39.875	-54.8197	2.09839
-39.873	-54.8173	2.11792
-39.87	-58.3383	2.13745
-39.8701	-51.8774	2.15698
-39.8673	-51.5295	2.17651
-39.8664	-53.0454	2.19604
-39.8643	-49.7046	2.21558
-39.8624	-47.7842	2.23511
-39.8623	-52.8201	2.25464
-39.8597	-45.9457	2.27417
-39.8586	-43.5057	2.2937
-39.8583	-50.387	2.31323
-39.8545	-45.1363	2.33276
-39.853	-40.4897	2.35229
-39.8523	-44.0991	2.37183
-39.8502	-45.7307	2.39136
-39.848	-37.37553	2.41089
-39.8469	-43.0633	2.43042
-39.84515	-40.6595	2.44995
-39.8425	-35.30056	2.46948
-39.8417	-37.1176	2.48901
-39.8408	-40.6431	2.50854
-39.8386	-31.1075	2.52808
-39.8368	-35.3088	2.54761
-39.836	-36.471	2.56714
-39.83305	-32.9325	2.58667
-39.8323	-29.2102	2.6062
-39.8298	-33.67363	2.62573
-39.829	-27.1738	2.64526
-39.82737	-28.6544	2.66479
-39.82653	-30.1057	2.68433
-39.8228	-30.198	2.70386
-39.8224	-22.9092	2.72339
-39.821	-25.6718	2.74292
-39.8191	-27.2522	2.76245
-39.818	-21.3763	2.78198
-39.8153	-21.2537	2.80151
-39.8139	-25.5386	2.82104
-39.8128	-20.0338	2.84058
-39.8109	-18.3198	2.86011
-39.80946	-23.4496	2.87964
-39.8072	-17.5199	2.89917
-39.8053	-16.5787	2.9187
-39.8052	-20.5465	2.93823
-39.8031	-15.25581	2.95776
-39.8008	-7.78325	2.97729
-39.7996	-18.0679	2.99683
-39.79792	-13.24701	3.01636
-39.79512	-9.07598	3.03589
-39.7935	-11.51244	3.05542
-39.7932	-13.5153	3.07495
-39.7919	-4.431324	3.09448
-39.7895	-10.0298	3.11401
-39.7884	-8.80872	3.13354
-39.7866	-3.96874	3.15308
-39.7849	-4.871582	3.17261
-39.7846	-9.07623	3.19214
-39.7814	0.858019	3.21167
-39.7802	-1.07777	3.2312
-39.7787	-1.94618	3.25073
-39.7764	-1.72981	3.27026
-39.77483	2.38987	3.28979
-39.7731	0.195265	3.30933
-39.7715	2.44601	3.32886
-39.7699	4.82683	3.34839
-39.7686	3.19708	3.36792
-39.767	2.26061	3.38745
-39.7651	10.5105	3.40698
-39.7638	7.38109	3.42651
-39.7621	4.61192	3.44604
-39.7604	10.642	3.46558
-39.7594	13.3021	3.48511
-39.7574	7.03616	3.50464
-39.7558	11.1314	3.52417
-39.7545	17.035	3.5437
-39.7522	10.1515	3.56323
-39.7508	14.8381	3.58276
-39.7494	17.5496	3.60229
-39.7481	13.3321	3.62183
-39.7457	16.8166	3.64136
-39.7443	25.8387	3.66089
-39.7424	17.335	3.68042
-39.7401	18.2366	3.69995
-39.74017	23.48382	3.71948
-39.7386	23.2477	3.73901
-39.7364	21.6473	3.75854
-39.73423	28.4329	3.77808
-39.7325	23.8646	3.79761
-39.73093	25.9726	3.81714
-39.7315	26.6835	3.83667
-39.7277	31.7303	3.8562
-39.72628	26.0484	3.87573
-39.7256	31.1192	3.89526
-39.7223	33.00811	3.91479
-39.7213	31.557	3.93433
-39.7199	30.4897	3.95386
-39.7181	37.044	3.97339
-39.7168	35.0404	3.99292
-39.7143	35.09565	4.01245
-39.7133	37.435	4.03198
-39.712	38.7533	4.05151
-39.7106	35.6221	4.07104
-39.7074	42.0929	4.09058
-39.7072	45.73	4.11011
-39.7061	37.7779	4.12964
-39.7032	43.2926	4.14917
-39.7019	46.3983	4.1687
-39.7011	42.2218	4.18823
-39.6991	44.3618	4.20776
-39.6965	51.0985	4.22729
-39.69503	43.3974	4.24683
-39.6945	47.8528	4.26636
-39.6915	50.895	4.28589
-39.6907	47.6746	4.30542
-39.6887	48.0126	4.32495
-39.6874	57.0034	4.34448
-39.6853	51.7788	4.36401
-39.6843	51.8131	4.38354
-39.6831	56.15424	4.40308
-39.6809	57.744	4.42261
-39.6792	55.1858	4.44214
-39.6771	61.21394	4.46167
-39.6756	56.5829	4.4812
-39.674	58.7443	4.50073
-39.6729	60.79726	4.52026
-39.6703	65.0043	4.53979
-39.66917	59.8087	4.55933
-39.6691	64.1721	4.57886
-39.6656	65.80265	4.59839
-39.6638	64.4483	4.61792
-39.6628	61.2769	4.63745
-39.6605	69.80336	4.65698
-39.6602	69.7114	4.67651
-39.65839	67.3835	4.69604
-39.6562	71.8061	4.71558
-39.6544	71.2121	4.73511
-39.6532	68.5773	4.75464
-39.6518	73.1376	4.77417
-39.6509	78.0739	4.7937
-39.6477	70.7938	4.81323
-39.6461	75.4473	4.83276
-39.64518	79.6166	4.85229
-39.6431	75.7905	4.87183
-39.6425	76.4587	4.89136
-39.6414	84.0517	4.91089
-39.6376	76.5643	4.93042
-39.6359	80.7791	4.94995
-39.6358	86.5654	4.96948
-39.6338	82.70665	4.98901
-39.6318	80.7113	5.00854
-39.6311	89.755	5.02808
-39.6291	84.0492	5.04761
-39.6261	84.9436	5.06714
-39.62598	87.1096	5.08667
-39.6239	92.7681	5.1062
-39.6222	88.52005	5.12573
-39.6205	92.5601	5.14526
-39.6193	93.2409	5.16479
-39.6181	91.1683	5.18433
-39.6172	93.1186	5.20386
-39.6146	99.631	5.22339
-39.6122	94.5831	5.24292
-39.6106	92.9468	5.26245
-39.6084	98.0504	5.28198
-39.6074	99.1877	5.30151
-39.6061	95.03495	5.32104
-39.6053	99.8366	5.34058
-39.6026	102.379	5.36011
-39.6011	99.5472	5.37964
-39.5989	103.978	5.39917
-39.5988	104.17	5.4187
-39.5965	99.769	5.43823
-39.5946	105.1132	5.45776
-39.5924	112.663	5.47729
-39.5918	102.684	5.49683
-39.58979	107.374	5.51636
-39.58794	112.295	5.53589
-39.5874	110.372	5.55542
-39.5846	108.705	5.57495
-39.5833	115.939	5.59448
-39.582	107.723	5.61401
-39.58	111.685	5.63354
-39.5783	116.058	5.65308
-39.57777	115.872	5.67261
-39.5747	112.641	5.69214
-39.5743	120.714	5.71167
-39.5708	118.341	5.7312
-39.5708	117.846	5.75073
-39.5699	118.004	5.77026
-39.5659	124.484	5.78979
-39.5645	119.856	5.80933
-39.5635	124.153	5.82886
-39.5621	124.274	5.84839
-39.5618	124.282	5.86792
-39.5585	121.624	5.88745
-39.5577	128.9386	5.90698
-39.5554	129.843	5.92651
-39.5531	124.461	5.94604
-39.5517	128.804	5.96558
-39.5499	133.273	5.98511
-39.5483	127.637	6.00464
-39.5476	131.964	6.02417
-39.5452	136.196	6.0437
-39.5442	130.075	6.06323
-39.5436	135.4324	6.08276
-39.5407	138.117	6.10229
-39.5389	133.704	6.12183
-39.5374	135.688	6.14136
-39.5361	144.462	6.16089
-39.5335	136.916	6.18042
-39.5332	138.659	6.19995
-39.531	144.124	6.21948
-39.5284	142.978	6.23901
-39.5277	141.4	6.25854
-39.527	145.756	6.27808
-39.5242	142.728	6.29761
-39.5225	143.069	6.31714
-39.52142	148.348	6.33667
-39.5201	149.837	6.3562
-39.5189	144.513	6.37573
-39.5162	150.9756	6.39526
-39.5154	151.462	6.41479
-39.513	150.864	6.43433
-39.512	149.643	6.45386
-39.51059	155.361	6.47339
-39.508	153.364	6.49292
-39.5077	153.104	6.51245
-39.50523	157.28	6.53198
-39.5039	155.27	6.55151
-39.5018	152.843	6.57104
-39.5006	159.883	6.59058
-39.49934	162.425	6.61011
-39.4966	154.951	6.62964
-39.4954	161.709	6.64917
-39.4947	164.661	6.6687
-39.4927	159.8649	6.68823
-39.4901	162.7982	6.70776
-39.48822	167.769	6.72729
-39.4864	161.503	6.74683
-39.4853	166.356	6.76636
-39.4829	169.089	6.78589
-39.4813	166.792	6.80542
-39.4812	166.3394	6.82495
-39.4789	173.321	6.84448
-39.4768	168.125	6.86401
-39.47472	168.375	6.88354
-39.4752	173.395	6.90308
-39.4722	175.197	6.92261
-39.4713	173.546	6.94214
-39.4695	177.621	6.96167
-39.4676	174.342	6.9812
-39.4657	175.808	7.00073
-39.4653	178.225	7.02026
-39.4628	184.238	7.03979
-39.4618	178.809	7.05933
-39.4589	179.824	7.07886
-39.4572	183.297	7.09839
-39.4562	183.07	7.11792
-39.4544	180.672	7.13745
-39.45245	185.591	7.15698
-39.4513	186.357	7.17651
-39.4503	182.7115	7.19604
-39.4471	189.164	7.21558
-39.4454	188.449	7.23511
-39.4444	185.1	7.25464
-39.44331	190.816	7.27417
-39.441	194.506	7.2937
-39.4405	186.34	7.31323
-39.4378	191.301	7.33276
-39.4366	196.71	7.35229
-39.4344	193.508	7.37183
-39.4334	194.2224	7.39136
-39.4318	199.986	7.41089
-39.4306	192.684	7.43042
-39.4279	196.729	7.44995
-39.4274	200.879	7.46948
-39.4259	199.821	7.48901
-39.4239	198.048	7.50854
-39.4218	206.844	7.52808
-39.4225	201.671	7.54761
-39.419	200.804	7.56714
-39.4169	203.672	7.58667
-39.4165	206.645	7.6062
-39.4139	204.177	7.62573
-39.4128	207.3672	7.64526
-39.4107	207.652	7.66479
-39.4088	206.991	7.68433
-39.4079	208.783	7.70386
-39.4059	215.733	7.72339
-39.40419	211.451	7.74292
-39.4024	209.083	7.76245
-39.4004	215.259	7.78198
-39.3994	215.55	7.80151
-39.3968	210.961	7.82104
-39.3966	216.321	7.84058
-39.3946	218.865	7.86011
-39.3931	212.935	7.87964
-39.3913	218.484	7.89917
-39.3894	220.298	7.9187
-39.3882	215.936	7.93823
-39.3865	220.482	7.95776
-39.3841	228.799	7.97729
-39.3834	219.223	7.99683
-39.38187	221.797	8.01636
-39.38089	225.399	8.03589
-39.3785	223.87	8.05542
-39.376	224.859	8.07495
-39.3743	231.433	8.09448
-39.3743	223.857	8.11401
-39.3721	228.327	8.13354
-39.3702	230.072	8.15308
-39.3684	231.8266	8.17261
-39.3669	228.229	8.19214
-39.3654	236.381	8.21167
-39.3637	233.054	8.2312
-39.3625	230.552	8.25073
-39.36005	233.262	8.27026
-39.3589	238.079	8.28979
-39.3574	233.833	8.30933
-39.3562	237.213	8.32886
-39.3534	238.32	8.34839
-39.3512	239.001	8.36792
-39.3502	236.2173	8.38745
-39.3487	244.545	8.40698
-39.3467	242.408	8.42651
-39.3455	238.081	8.44604
-39.3443	244.196	8.46558
-39.3424	246.317	8.48511
-39.3404	242.159	8.50464
-39.3385	244.92	8.52417
-39.3373	250.375	8.5437
-39.3358	242.765	8.56323
-39.3345	249.379	8.58276
-39.3316	250.827	8.60229
-39.3311	247.135	8.62183
-39.3299	249.754	8.64136
-39.3272	258.647	8.66089
-39.3257	249.3815	8.68042
-39.3242	252.94	8.69995
-39.323	256.781	8.71948
-39.322	255.9	8.73901
-39.3194	254.165	8.75854
-39.3182	261.019	8.77808
-39.3164	255.172	8.79761
-39.3162	257.513	8.81714
-39.3125	261.1109	8.83667
-39.3107	263.14	8.8562
-39.3097	259.849	8.87573
-39.3074	263.125	8.89526
-39.3076	267.526	8.91479
-39.3047	264.024	8.93433
-39.3032	263.281	8.95386
-39.3018	267.804	8.97339
-39.3	266.298	8.99292
-39.2982	264.94	9.01245
-39.2957	270.903	9.03198
-39.2944	268.106	9.05151
-39.2934	267.648	9.07104
-39.29203	273.724	9.09058
-39.2896	275.006	9.11011
-39.2879	267.329	9.12964
-39.2869	272.53	9.14917
-39.285	276.112	9.1687
-39.2845	271.2421	9.18823
-39.2814	275.595	9.20776
-39.2798	281.392	9.22729
-39.2791	274.168	9.24683
-39.2772	279.619	9.26636
-39.2751	281.304	9.28589
-39.274	277.346	9.30542
-39.2726	279.383	9.32495
-39.2699	287.75	9.34448
-39.2691	280.556	9.36401
-39.2658	280.825	9.38354
-39.26685	284.595	9.40308
-39.2652	286.471	9.42261
-39.2632	284.259	9.44214
-39.26025	290.252	9.46167
-39.2599	288.082	9.4812
-39.2574	286.412	9.50073
-39.25555	290.415	9.52026
-39.2533	294.779	9.53979
-39.2529	290.155	9.55933
-39.2515	291.184	9.57886
-39.2495	294.942	9.59839
-39.2476	293.499	9.61792
-39.246	291.816	9.63745
-39.2441	297.358	9.65698
-39.2431	297.991	9.67651
-39.2419	294.031	9.69604
-39.2395	299.707	9.71558
-39.2387	299.3685	9.73511
-39.2365	295.849	9.75464
-39.235	301.029	9.77417
-39.233	306.371	9.7937
-39.2315	296.904	9.81323
-39.2292	302.7341	9.83276
-39.2285	307.188	9.85229
-39.2277	302.171	9.87183
-39.2252	304.7883	9.89136
-39.2229	310.437	9.91089
-39.2211	303.392	9.93042
-39.2205	307.686	9.94995
-39.2181	310.913	9.96948
-39.2161	310.845	9.98901
-39.2155	307.232	10.0085
-39.2144	315.9996	10.0281
-39.212	311.708	10.0476
-39.2108	310.702	10.0671
-39.2086	313.2	10.08667
-39.2081	316.884	10.1062
-39.206	312.831	10.1257
-39.2042	317.323	10.1453
-39.2021	317.423	10.1648
-39.201	315.561	10.1843
-39.1999	316.796	10.2039
-39.1973	323.869	10.2234
-39.1957	319.609	10.24292
-39.1946	316.755	10.2625
-39.193	323.887	10.282
-39.1904	322.849	10.3015
-39.1888	321.1257	10.321
-39.1873	326.232	10.3406
-39.185	328.471	10.3601
-39.1834	321.233	10.3796
-39.1822	329.398	10.39917
-39.1809	328.982	10.4187
-39.1796	323.445	10.4382
-39.1784	329.751	10.4578
-39.1749	337.052	10.4773
-39.1746	326.095	10.4968
-39.1734	330.523	10.5164
-39.17197	333.104	10.5359
-39.1694	330.609	10.55542
-39.1684	333.289	10.575
-39.1665	339.0495	10.5945
-39.165	331.304	10.614
-39.1632	334.144	10.6335
-39.1614	338.655	10.6531
-39.1601	339.72	10.6726
-39.15802	335.375	10.6921
-39.1576	343.235	10.71167
-39.1552	340.3681	10.7312
-39.154	338.427	10.7507
-39.1531	340.006	10.7703
-39.1506	344.762	10.7898
-39.149	342.129	10.8093
-39.1478	343.328	10.8289
-39.1449	345.855	10.8484
-39.1442	344.215	10.86792
-39.1419	342.908	10.8875
-39.142	351.039	10.907
-39.1395	349.642	10.9265
-39.1384	343.5921	10.946
-39.13588	350.6655	10.9656
-39.1339	350.77	10.9851
-39.133	347.378	11.0046
-39.1307	352.17	11.02417
-39.13007	356.128	11.0437
-39.128	348.133	11.0632
-39.1263	354.721	11.0828
-39.1248	356.261	11.1023
-39.122	352.961	11.1218
-39.1213	355.224	11.1414
-39.1192	363.456	11.1609
-39.117	354.241	11.18042
-39.1152	358.344	11.2
-39.1156	360.778	11.2195
-39.1127	361.435	11.239
-39.1101	359.288	11.2585
-39.1096	365.123	11.2781
-39.1087	360.973	11.2976
-39.1065	360.381	11.3171
-39.1048	365.465	11.33667
-39.1035	366.5712	11.3562
-39.1014	359.978	11.3757
-39.0998	367.133	11.3953
-39.0976	368.08	11.4148
-39.0966	366.059	11.4343
-39.09557	366.258	11.4539
-39.093	370.042	11.4734
-39.0937	370.486	11.49292
-39.0897	366.784	11.5125
-39.0888	374.398	11.532
-39.087	370.316	11.5515
-39.0853	368.878	11.571
-39.0831	376.951	11.5906
-39.082	377.016	11.6101
-39.0814	368.778	11.6296
-39.0798	376.388	11.64917
-39.0774	378.517	11.6687
-39.0753	372.8653	11.6882
-39.0743	376.526	11.7078
-39.0723	382.517	11.7273
-39.07	373.513	11.7468
-39.0696	381.048	11.7664
-39.0677	383.546	11.7859
-39.0656	379.855	11.80542
-39.0645	379.5271	11.825
-39.063	387.486	11.8445
-39.0604	381.048	11.864
-39.0593	381.415	11.8835
-39.0577	386.392	11.9031
-39.0567	385.927	11.9226
-39.0542	382.016	11.9421
-39.0527	389.666	11.96167
-39.0508	386.792	11.9812
-39.0503	385.157	12.0007
-39.04718	386.7139	12.0203
-39.047	392.779	12.0398
-39.0448	387.857	12.0593
-39.0433	389.219	12.0789
-39.041	393.651	12.0984
-39.0399	390.951	12.11792
-39.0376	389.4856	12.1375
-39.0369	396.069	12.157
-39.03466	396.33	12.1765
-39.0326	392.196	12.196
-39.0319	396.689	12.2156
-39.0301	395.965	12.2351
-39.0286	392.748	12.2546
-39.0262	398.77	12.27417
-39.0249	403.415	12.2937
-39.0229	392.331	12.3132
-39.02187	398.9852	12.3328
-39.0199	402.323	12.3523
-39.0185	398.727	12.3718
-39.0164	399.832	12.3914
-39.01506	405.1304	12.4109
-39.0133	397.642	12.43042
-39.011	402.432	12.45
-39.0108	406.542	12.4695
-39.0085	403.223	12.489
-39.00692	402.953	12.5085
-39.0061	409.228	12.5281
-39.0039	406.7868	12.5476
-39.00211	405.248	12.5671
-39.0018	407.994	12.58667
-38.9982	410.523	12.6062
-38.9963	406.843	12.6257
-38.9958	410.815	12.6453
-38.9952	410.892	12.6648
-38.9931	407.958	12.6843
-38.99017	410.731	12.7039
-38.989	414.393	12.7234
-38.988	413.549	12.74292
-38.9872	410.3	12.7625
-38.98465	416.73	12.782
-38.9824	414.637	12.8015
-38.9821	413.528	12.821
-38.98	416.792	12.8406
-38.9784	418.758	12.8601
-38.9761	411.963	12.8796
-38.9744	420.538	12.89917
-38.9738	418.514	12.9187
-38.9712	414.9985	12.9382
-38.9695	419.6835	12.9578
-38.9682	425.4292	12.9773
-38.9668	414.204	12.9968
-38.96603	421.407	13.0164
-38.963	422.894	13.0359
-38.9612	421.915	13.05542
-38.9595	421.046	13.075
-38.9583	426.75	13.0945
-38.9575	421.7113	13.114
-38.9546	423.713	13.1335
-38.954	425.874	13.1531
-38.951	426.58	13.1726
-38.9511	423.153	13.1921
-38.9491	428.605	13.21167
-38.9478	427.543	13.2312
-38.9452	424.393	13.2507
-38.9443	425.734	13.2703
-38.9413	430.582	13.2898
-38.9407	428.867	13.3093
-38.9383	428.872	13.3289
-38.9378	431.239	13.3484
-38.9364	427.659	13.36792
-38.9334	428.727	13.3875
-38.93198	435.277	13.407
-38.9303	432.912	13.4265
-38.9288	427.502	13.446
-38.9275	436.623	13.4656
-38.9259	434.535	13.4851
-38.9238	430.783	13.5046
-38.92281	435.301	13.52417
-38.9208	438.95	13.5437
-38.91964	430.448	13.5632
-38.918	438.471	13.5828
-38.9171	436.701	13.6023
-38.9157	434.141	13.6218
-38.9125	437.233	13.6414
-38.9107	442.533	13.6609
-38.9103	435.042	13.68042
-38.9079	437.47	13.7
-38.9059	441.109	13.7195
-38.9058	441.172	13.739
-38.9033	438.41	13.7585
-38.9014	443.419	13.7781
-38.9003	439.107	13.7976
-38.8996	440.173	13.8171
-38.8966	444.872	13.83667
-38.8951	444.394	13.8562
-38.8935	441.199	13.8757
-38.8919	443.672	13.8953
-38.8888	445.596	13.9148
-38.8886	442.696	13.9343
-38.8859	441.771	13.9539
-38.8848	447.607	13.9734
-38.8838	446.497	13.99292
-38.8819	442.807	14.0125
-38.8809	449.473	14.032
-38.8785	445.8779	14.0515
-38.8765	443.637	14.071
-38.8753	449.544	14.0906
-38.8746	451.174	14.1101
-38.8719	442.409	14.1296
-38.8713	450.634	14.14917
-38.8684	451.721	14.1687
-38.8675	446.314	14.1882
-38.8663	449.558	14.2078
-38.8637	454.02	14.2273
-38.8621	444.555	14.2468
-38.8602	451.0462	14.2664
-38.8599	452.997	14.2859
-38.8565	447.717	14.30542
-38.85556	449.299	14.325
-38.8545	456.721	14.3445
-38.8531	450.747	14.364
-38.8517	450.0788	14.3835
-38.85	455.4313	14.4031
-38.8484	454.947	14.4226
-38.8457	450.9093	14.4421
-38.8447	455.598	14.46167
-38.843	453.443	14.4812
-38.84148	451.619	14.5007
-38.8402	453.568	14.5203
-38.8379	457.515	14.5398
-38.8365	452.9328	14.5593
-38.8343	452.614	14.5789
-38.8328	459.465	14.5984
-38.8308	455.202	14.61792
-38.82975	454.521	14.6375
-38.82832	457.091	14.657
-38.8263	459.272	14.6765
-38.8245	452.178	14.696
-38.8222	460.946	14.7156
-38.8211	458.954	14.7351
-38.8194	454.537	14.7546
-38.8195	460.347	14.77417
-38.8172	461.994	14.7937
-38.8165	451.016	14.8132
-38.8139	461.035	14.8328
-38.8122	461.642	14.8523
-38.8106	457.189	14.8718
-38.8085	459.182	14.8914
-38.8084	464.673	14.9109
-38.8063	455.813	14.93042
-38.8049	459.977	14.95
-38.80135	463.8613	14.9695
-38.8008	461.133	14.989
-38.79911	457.545	15.0085
-38.7973	465.503	15.0281
-38.7951	461.358	15.0476
-38.793	458.501	15.0671
-38.7925	461.099	15.08667
-38.7895	463.304	15.1062
-38.7886	460.187	15.1257
-38.788	462.683	15.1453
-38.7855	462.764	15.1648
-38.7851	459.492	15.1843
-38.7826	462.505	15.2039
-38.7819	465.537	15.2234
-38.7807	462.576	15.24292
-38.7782	458.67	15.2625
-38.7758	467.264	15.282
-38.7743	462.0347	15.3015
-38.772	460.657	15.321
-38.771	464.349	15.3406
-38.7685	466.884	15.3601
-38.7687	459.584	15.3796
-38.766	467.216	15.39917
-38.7641	463.716	15.4187
-38.763	460.315	15.4382
-38.7612	465.044	15.4578
-38.7602	469.122	15.4773
-38.75779	458.956	15.4968
-38.7568	464.37	15.5164
-38.7553	467.783	15.5359
-38.7538	464.452	15.55542
-38.75185	464.872	15.575
-38.75103	469.635	15.5945
-38.7475	462.637	15.614
-38.7469	463.36	15.6335
-38.7448	468.017	15.6531
-38.7432	465.2594	15.6726
-38.74189	462.871	15.6921
-38.7396	467.333	15.71167
-38.7396	467.18	15.7312
-38.7371	462.724	15.7507
-38.73579	463.414	15.7703
-38.7346	466.671	15.7898
-38.7322	466.0296	15.8093
-38.7303	463.143	15.8289
-38.7293	468.568	15.8484
-38.7274	462.446	15.86792
-38.7255	464.185	15.8875
-38.72477	468.819	15.907
-38.721	466.565	15.9265
-38.7205	459.712	15.946
-38.7185	469.408	15.9656
-38.7176	465.663	15.9851
-38.716	462.508	16.0046
-38.7142	466.48	16.02417
-38.713	469.071	16.0437
-38.71093	461.14	16.0632
-38.7096	468.48	16.0828
-38.7075	467.69	16.1023
-38.7045	461.219	16.1218
-38.7039	464.783	16.1414
-38.703	472.351	16.1609
-38.7002	460.626	16.18042
-38.6991	464.668	16.2
-38.6979	469.174	16.2195
-38.6965	466.609	16.239
-38.6947	463.776	16.2585
-38.6937	469.158	16.2781
-38.6906	463.485	16.2976
-38.6896	463.839	16.3171
-38.6885	467.047	16.33667
-38.6857	467.17	16.3562
-38.6849	463.206	16.3757
-38.6824	465.804	16.3953
-38.6821	468.563	16.4148
-38.6808	462.278	16.4343
-38.679	463.557	16.4539
-38.677	467.868	16.4734
-38.6762	465.584	16.49292
-38.6734	462	16.5125
-38.6721	467.895	16.532
-38.6706	462.626	16.5515
-38.6687	462.453	16.571
-38.6669	468.228	16.5906
-38.6657	466.858	16.6101
-38.6639	457.764	16.6296
-38.6626	468.0462	16.64917
-38.6609	467.397	16.6687
-38.6585	461.244	16.6882
-38.6577	464.7789	16.7078
-38.6565	468.671	16.7273
-38.65461	459.986	16.7468
-38.6524	465.398	16.7664
-38.6507	466.227	16.7859
-38.6496	462.923	16.80542
-38.6485	462.474	16.825
-38.646	470.333	16.8445
-38.6447	461.521	16.864
-38.6422	460.043	16.8835
-38.6415	464.6051	16.9031
-38.6386	465.818	16.9226
-38.6379	461.465	16.9421
-38.6362	464.885	16.96167
-38.6345	463.62	16.9812
-38.6333	459.308	17.0007
-38.6314	464.644	17.0203
-38.62952	468.282	17.0398
-38.6285	460.261	17.0593
-38.6264	461.187	17.0789
-38.6247	466.648	17.0984
-38.624	460.643	17.11792
-38.6213	461.115	17.1375
-38.62014	464.807	17.157
-38.6174	464.815	17.1765
-38.6164	457.682	17.196
-38.6149	465.3089	17.2156
-38.6129	461.121	17.2351
-38.61068	457.674	17.2546
-38.6099	462.425	17.27417
-38.6088	465.346	17.2937
-38.6061	453.695	17.3132
-38.6048	461.413	17.3328
-38.6027	463.224	17.3523
-38.6024	458.237	17.3718
-38.6	460.662	17.3914
-38.5981	466.315	17.4109
-38.5969	456.401	17.43042
-38.5958	460.893	17.45
-38.5942	461.954	17.4695
-38.5931	458.551	17.489
-38.59	457.884	17.5085
-38.5883	463.558	17.5281
-38.5887	459.723	17.5476
-38.5854	455.824	17.5671
-38.5833	459.199	17.58667
-38.5828	461.691	17.6062
-38.5809	456.723	17.6257
-38.5789	458.182	17.6453
-38.5765	460.199	17.6648
-38.5758	455.425	17.6843
-38.5748	457.03	17.7039
-38.5729	460.999	17.7234
-38.5713	459.037	17.74292
-38.5691	454.324	17.7625
-38.5676	462.608	17.782
-38.5659	456.9339	17.8015
-38.5647	453.967	17.821
-38.5637	459.754	17.8406
-38.5615	459.72	17.8601
-38.56	451.776	17.8796
-38.558	460.315	17.89917
-38.5561	458.408	17.9187
-38.5559	453.392	17.9382
-38.5534	457.929	17.9578
-38.5517	463.523	17.9773
-38.54977	450.813	17.9968
-38.5481	456.92	18.0164
-38.54562	458.247	18.0359
-38.5462	456.886	18.05542
-38.5433	454.987	18.075
-38.5413	460.491	18.0945
-38.54026	453.263	18.114
-38.5391	454.263	18.1335
-38.5372	459.946	18.1531
-38.535	456.009	18.1726
-38.5329	452.326	18.1921
-38.5314	457.3309	18.21167
-38.5311	456.159	18.2312
-38.5285	450.817	18.2507
-38.5272	454.538	18.2703
-38.5245	457.328	18.2898
-38.5228	454.646	18.3093
-38.5219	452.516	18.3289
-38.5209	457.348	18.3484
-38.5179	451.896	18.36792
-38.5171	451.403	18.3875
-38.5149	457.108	18.407
-38.5139	455.643	18.4265
-38.5127	448.281	18.446
-38.5106	458.422	18.4656
-38.5089	454.246	18.4851
-38.5066	450.579	18.5046
-38.5058	455.625	18.52417
-38.5046	456.759	18.5437
-38.5025	446.982	18.5632
-38.4995	454.454	18.5828
-38.4992	455.127	18.6023
-38.4972	449.957	18.6218
-38.496	452.489	18.6414
-38.4938	459.067	18.6609
-38.493	447.873	18.68042
-38.4915	449.876	18.7
-38.4904	454.691	18.7195
-38.4882	452.2572	18.739
-38.4862	450.727	18.7585
-38.4847	454.841	18.7781
-38.4835	450.97	18.7976
-38.4823	449.089	18.8171
-38.4798	452.945	18.83667
-38.4792	455.252	18.8562
-38.47683	449.437	18.8757
-38.4755	450.743	18.8953
-38.4718	455.797	18.9148
-38.4712	449.319	18.9343
-38.46928	449.706	18.9539
-38.4687	454.975	18.9734
-38.4667	452.926	18.99292
-38.4651	447.752	19.0125
-38.4625	455.41	19.032
-38.4616	449.534	19.0515
-38.461	448.018	19.071
-38.4588	454.6727	19.0906
-38.4572	454.318	19.1101
-38.4537	444.143	19.1296
-38.4539	454.768	19.14917
-38.4519	451.383	19.1687
-38.45113	447.9743	19.1882
-38.4491	451.42	19.2078
-38.44717	454.164	19.2273
-38.4457	445.855	19.2468
-38.4446	451.054	19.2664
-38.4434	451.936	19.2859
-38.4402	447.283	19.30542
-38.4391	446.2243	19.325
-38.4376	454.181	19.3445
-38.4359	447.887	19.364
-38.434	446.965	19.3835
-38.4329	452.0965	19.4031
-38.4319	451.928	19.4226
-38.4287	446.891	19.4421
-38.4273	451.715	19.46167
-38.4266	449.818	19.4812
-38.4243	444.96	19.5007
-38.42305	448.609	19.5203
-38.4213	450.231	19.5398
-38.4193	447.007	19.5593
-38.4178	446.387	19.5789
-38.4158	453.254	19.5984
-38.4143	446.541	19.61792
-38.4131	446.6871	19.6375
-38.411	451.3078	19.657
-38.4093	451.046	19.6765
-38.4073	445.245	19.696
-38.4059	452.2883	19.7156
-38.4051	447.229	19.7351
-38.4039	445.083	19.7546
-38.4022	450.5614	19.77417
-38.39983	453.5889	19.7937
-38.3985	442.167	19.8132
-38.3974	449.791	19.8328
-38.3951	450.852	19.8523
-38.39341	445.637	19.8718
-38.3914	448.504	19.8914
-38.3911	452.343	19.9109
-38.3884	444.232	19.93042
-38.3872	447.077	19.95
-38.3861	450.871	19.9695
-38.3846	446.193	19.989
-38.3824	444.345	20.0085
-38.38147	446.2514	20.0183

Data Header:			0.254_hd_uprint_typeiv_090_r0			Time:	25.0339	s	4/13/2019 11:04:28 PM
Data Acquisition:	Timed
Station Name:	ft40.cfg
Test File Name:	monotonic_0.2540_typeiv_solid_4545_uprint.tst
Displacement	Force	Running Time
mm	N	s
-38.38039	451.738	20.0281
-38.3791	450.619	20.0378
-38.3789	447.686	20.0476
-38.3779	444.881	20.0574
-38.37635	444.379	20.0671
-38.3769	448.464	20.0769
-38.3758	447.517	20.08667
-38.3749	448.002	20.0964
-38.3736	448.66	20.1062
-38.3733	447.856	20.116
-38.3723	446.493	20.1257
-38.3709	442.1658	20.1355
-38.3701	447.034	20.1453
-38.3698	451.296	20.155
-38.3687	448.683	20.1648
-38.36887	449.628	20.1746
-38.3677	444.764	20.1843
-38.3669	446.1937	20.1941
-38.3658	446.824	20.2039
-38.3647	445.603	20.2136
-38.3638	451.016	20.2234
-38.3636	448.693	20.2332
-38.363	445.665	20.24292
-38.3621	442.658	20.2527
-38.3618	441.651	20.2625
-38.36084	447.669	20.2722
-38.3595	451.374	20.282
-38.35939	449.778	20.2917
-38.35857	447.014	20.3015
-38.356	442.939	20.3113
-38.3561	443.095	20.321
-38.3556	444.766	20.3308
-38.3555	448.955	20.3406
-38.3533	451.137	20.3503
-38.3539	448.861	20.3601
-38.3509	443.0358	20.3699
-38.3521	441.037	20.3796
-38.3511	442.2	20.3894
-38.3495	449.666	20.39917
-38.348	450.775	20.4089
-38.3476	445.8486	20.4187
-38.3466	444.459	20.4285
-38.3466	441.948	20.4382
-38.3452	442.925	20.448
-38.3445	448.067	20.4578
-38.3435	449.005	20.4675
-38.3429	452.18	20.4773
-38.3422	445.098	20.4871
-38.34198	441.363	20.4968
-38.3409	442.229	20.5066
-38.3386	445.231	20.5164
-38.3386	449.669	20.5261
-38.3378	448.421	20.5359
-38.3382	444.819	20.5457
-38.336	444.757	20.55542
-38.3359	442.179	20.5652
-38.3342	446.325	20.575
-38.3349	445.592	20.5847
-38.33342	450.191	20.5945
-38.3318	448.745	20.6042
-38.3314	443.554	20.614
-38.3307	442.395	20.6238
-38.3304	442.607	20.6335
-38.3298	446.122	20.6433
-38.3284	448.7934	20.6531
-38.3284	447.328	20.6628
-38.3269	444.62	20.6726
-38.3252	444.7258	20.6824
-38.32518	442.19	20.6921
-38.3246	441.442	20.7019
-38.3237	445.596	20.71167
-38.3236	448.675	20.7214
-38.3222	448.445	20.7312
-38.3212	444.745	20.741
-38.32	441.2048	20.7507
-38.319	444.601	20.7605
-38.3184	444.101	20.7703
-38.3184	446.665	20.78
-38.3176	446.752	20.7898
-38.3167	447.649	20.7996
-38.3154	444.64	20.8093
-38.3138	439.039	20.8191
-38.3137	442.898	20.8289
-38.3124	447.29	20.8386
-38.3128	448.087	20.8484
-38.3116	448.456	20.8582
-38.3109	444.302	20.86792
-38.3103	443.257	20.8777
-38.3092	443.863	20.8875
-38.3081	443.288	20.8972
-38.3076	450.053	20.907
-38.3064	449.252	20.9167
-38.3062	446.2821	20.9265
-38.3042	441.944	20.9363
-38.3044	439.794	20.946
-38.3032	444.424	20.9558
-38.3013	449.859	20.9656
-38.3017	447.808	20.9753
-38.3007	444.618	20.9851
-38.2992	440.4277	20.9949
-38.2994	441.019	21.0046
-38.2974	441.378	21.0144
-38.2978	445.817	21.02417
-38.2971	449.091	21.0339
-38.2957	447.654	21.0437
-38.2954	442.888	21.0535
-38.29311	438.715	21.0632
-38.2939	439.202	21.073
-38.29237	445.937	21.0828
-38.2916	450.103	21.0925
-38.2912	446.307	21.1023
-38.2906	444.05	21.1121
-38.2899	441.017	21.1218
-38.29	440.45	21.1316
-38.28849	442.924	21.1414
-38.28706	445.003	21.1511
-38.2861	450.216	21.1609
-38.2849	446.383	21.1707
-38.2845	440.701	21.18042
-38.2842	439.518	21.1902
-38.2824	440.975	21.2
-38.2817	446.103	21.2097
-38.2811	445.943	21.2195
-38.2803	443.868	21.2292
-38.27948	443.294	21.239
-38.2793	441.279	21.2488
-38.27813	441.761	21.2585
-38.277	441.608	21.2683
-38.27586	445.793	21.2781
-38.2752	448.807	21.2878
-38.27536	444.603	21.2976
-38.2741	442.85	21.3074
-38.2734	439.816	21.3171
-38.2723	442.025	21.3269
-38.2716	445.401	21.33667
-38.2716	443.941	21.3464
-38.2698	444.516	21.3562
-38.2683	445.44	21.366
-38.2682	440.854	21.3757
-38.2675	440.215	21.3855
-38.2666	443.022	21.3953
-38.2664	446.685	21.405
-38.2653	447.162	21.4148
-38.2649	442.7717	21.4246
-38.2635	439.955	21.4343
-38.26244	440.321	21.4441
-38.2605	440.9039	21.4539
-38.2603	444.056	21.4636
-38.2604	445.788	21.4734
-38.2595	447.141	21.4832
-38.2584	443.776	21.49292
-38.2575	436.4389	21.5027
-38.2561	439.089	21.5125
-38.2569	444.955	21.5222
-38.2548	448.5744	21.532
-38.2545	447.63	21.5417
-38.2536	442.012	21.5515
-38.2523	439.728	21.5613
-38.2522	440.403	21.571
-38.2508	438.317	21.5808
-38.2507	446.842	21.5906
-38.2496	446.1	21.6003
-38.249	445.65	21.6101
-38.2466	440.709	21.6199
-38.2469	436.057	21.6296
-38.2467	439.513	21.6394
-38.2447	446.8858	21.64917
-38.245	447.255	21.6589
-38.24437	446.111	21.6687
-38.243	439.652	21.6785
-38.2429	440.45	21.6882
-38.2412	439.483	21.698
-38.2403	444.37	21.7078
-38.24	446.311	21.7175
-38.2384	447.092	21.7273
-38.2373	444.607	21.7371
-38.23703	438.363	21.7468
-38.2366	437.942	21.7566
-38.2353	444.456	21.7664
-38.2347	445.792	21.7761
-38.2349	445.537	21.7859
-38.2335	444.261	21.7957
-38.23373	440.023	21.80542
-38.2313	439.306	21.8152
-38.2309	441.117	21.825
-38.23	442.2114	21.8347
-38.2294	447.963	21.8445
-38.2295	444.762	21.8542
-38.2275	440.477	21.864
-38.2271	439.9668	21.8738
-38.2266	438.711	21.8835
-38.2256	444.067	21.8933
-38.2251	443.588	21.9031
-38.2236	443.2995	21.9128
-38.2219	442.7001	21.9226
-38.2216	440.6778	21.9324
-38.2213	439.94	21.9421
-38.21946	438.215	21.9519
-38.2205	442.8988	21.96167
-38.2181	447.355	21.9714
-38.2178	442.973	21.9812
-38.2184	442.697	21.991
-38.2166	439.5928	22.0007
-38.2153	439.1015	22.0105
-38.2147	442.235	22.0203
-38.214	441.363	22.03
-38.2137	445.208	22.0398
-38.21077	444.6	22.0496
-38.2121	440.342	22.0593
-38.21069	438.867	22.0691
-38.2102	439.187	22.0789
-38.2095	444.569	22.0886
-38.2085	448.7081	22.0984
-38.2073	445.5614	22.1082
-38.206	439.287	22.11792
-38.2053	439.606	22.1277
-38.20565	439.706	22.1375
-38.204	441.07	22.1472
-38.2027	445.685	22.157
-38.20261	445.369	22.1667
-38.2017	443.571	22.1765
-38.2008	437.342	22.1863
-38.2004	435.869	22.196
-38.1993	440.712	22.2058
-38.198	446.328	22.2156
-38.1977	446.498	22.2253
-38.1975	441.168	22.2351
-38.1959	438.81	22.2449
-38.19503	438.01	22.2546
-38.1944	439.1954	22.2644
-38.1932	443.723	22.27417
-38.1933	443.806	22.2839
-38.1921	446.651	22.2937
-38.191	439.875	22.3035
-38.19	435.089	22.3132
-38.1877	436.616	22.323
-38.1892	441.987	22.3328
-38.18766	445.67	22.3425
-38.1866	444.242	22.3523
-38.1874	440.4653	22.3621
-38.1854	439.349	22.3718
-38.1844	438.997	22.3816
-38.1835	441.3089	22.3914
-38.1829	442.669	22.4011
-38.18177	445.453	22.4109
-38.1821	444.059	22.4207
-38.1794	437.921	22.43042
-38.1798	436.91	22.4402
-38.1796	440.224	22.45
-38.1779	442.94	22.4597
-38.1769	444.773	22.4695
-38.1765	441.659	22.4792
-38.1752	439.053	22.489
-38.17474	439.82	22.4988
-38.1739	437.435	22.5085
-38.1728	439.0676	22.5183
-38.1726	444.096	22.5281
-38.1708	444.149	22.5378
-38.1711	442.145	22.5476
-38.1689	439.489	22.5574
-38.1691	436.548	22.5671
-38.1673	439.9	22.5769
-38.167	443.365	22.58667
-38.1659	442.8447	22.5964
-38.1647	442.909	22.6062
-38.1648	440.857	22.616
-38.1642	438.873	22.6257
-38.1638	433.636	22.6355
-38.1622	439.691	22.6453
-38.1609	444.621	22.655
-38.1607	443.023	22.6648
-38.1606	442.774	22.6746
-38.16	436.334	22.6843
-38.1586	436.85	22.6941
-38.1571	440.279	22.7039
-38.1575	439.628	22.7136
-38.1554	445.105	22.7234
-38.1561	443.4	22.7332
-38.1553	439.898	22.74292
-38.1536	435.499	22.7527
-38.1533	434.124	22.7625
-38.1513	440.083	22.7722
-38.1509	444.92	22.782
-38.1502	443.286	22.7917
-38.1489	438.752	22.8015
-38.1481	436.174	22.8113
-38.1466	437.186	22.821
-38.1482	438.216	22.8308
-38.1465	442.033	22.8406
-38.1454	444.067	22.8503
-38.1453	442.892	22.8601
-38.144	436.096	22.8699
-38.1426	433.308	22.8796
-38.1426	434.8494	22.8894
-38.1419	442.879	22.89917
-38.13961	443.605	22.9089
-38.1399	440.684	22.9187
-38.13932	437.847	22.9285
-38.1368	435.353	22.9382
-38.1363	437.28	22.948
-38.1364	439.446	22.9578
-38.1352	439.66	22.9675
-38.1356	443.468	22.9773
-38.1337	439.08	22.9871
-38.1332	433.943	22.9968
-38.13324	434.877	23.0066
-38.1325	439.16	23.0164
-38.1305	444.581	23.0261
-38.1307	440.944	23.0359
-38.12888	439.694	23.0457
-38.13028	437.881	23.05542
-38.1281	434.608	23.0652
-38.1268	438.016	23.075
-38.1262	438.441	23.0847
-38.1249	440.198	23.0945
-38.1254	442.159	23.1042
-38.1231	436.037	23.114
-38.1225	434.706	23.1238
-38.122	435.306	23.1335
-38.1209	437.879	23.1433
-38.1205	439.9118	23.1531
-38.11861	438.645	23.1628
-38.1197	439.6467	23.1726
-38.1166	438.862	23.1824
-38.1165	435.263	23.1921
-38.1156	433.91	23.2019
-38.116	438.424	23.21167
-38.1154	440.241	23.2214
-38.1131	441.365	23.2312
-38.1132	436.826	23.241
-38.1117	431.748	23.2507
-38.1114	436.005	23.2605
-38.1112	437.034	23.2703
-38.1099	438.272	23.28
-38.10944	440.6322	23.2898
-38.10778	437.498	23.2996
-38.1064	434.89	23.3093
-38.1066	430.846	23.3191
-38.1051	433.474	23.3289
-38.1046	437.544	23.3386
-38.104	439.917	23.3484
-38.1037	439.463	23.3582
-38.1024	430.492	23.36792
-38.1009	431.8335	23.3777
-38.1007	434.076	23.3875
-38.1001	432.445	23.3972
-38.10043	439.878	23.407
-38.09938	437.885	23.4167
-38.0976	436.069	23.4265
-38.0965	430.318	23.4363
-38.0956	427.158	23.446
-38.09404	433.003	23.4558
-38.0937	438.099	23.4656
-38.0938	437.886	23.4753
-38.0917	435.434	23.4851
-38.09219	428.285	23.4949
-38.0893	429.531	23.5046
-38.0905	427.6962	23.5144
-38.0901	432.951	23.52417
-38.0888	434.216	23.5339
-38.08815	430.806	23.5437
-38.08717	424.809	23.5535
-38.0827	-47.5465	23.5632
-38.082	-24.2565	23.573
-38.0823	-20.0849	23.5828
-38.0805	-46.1178	23.5925
-38.0821	-42.4117	23.6023
-38.081	-40.7316	23.6121
-38.0788	-42.1524	23.6218
-38.0788	-39.8624	23.6316
-38.0779	-40.4157	23.6414
-38.078	-39.4943	23.6511
-38.07653	-35.5051	23.6609
-38.0772	-39.9218	23.6707
-38.0748	-43.8039	23.68042
-38.0754	-43.4618	23.6902
-38.07423	-43.1207	23.7
-38.0735	-38.0647	23.7097
-38.0729	-38.0962	23.7195
-38.0716	-40.4929	23.7292
-38.0714	-41.7872	23.739
-38.0687	-42.8315	23.7488
-38.0696	-43.5025	23.7585
-38.06955	-43.4864	23.7683
-38.0683	-39.2677	23.7781
-38.0652	-35.1712	23.7878
-38.0667	-42.5653	23.7976
-38.0648	-40.9982	23.8074
-38.0641	-44.048	23.8171
-38.0636	-42.8201	23.8269
-38.0621	-39.34869	23.83667
-38.0618	-40.9872	23.8464
-38.0608	-39.2843	23.8562
-38.0603	-40.7209	23.866
-38.0596	-44.7496	23.8757
-38.0577	-44.1415	23.8855
-38.0578	-42.7775	23.8953
-38.0559	-38.6079	23.905
-38.0559	-38.7398	23.9148
-38.0555	-41.0039	23.9246
-38.05471	-44.5356	23.9343
-38.0534	-44.2862	23.9441
-38.0526	-42.6633	23.9539
-38.0521	-40.0632	23.9636
-38.0529	-37.8028	23.9734
-38.051	-38.1217	23.9832
-38.0498	-41.5156	23.99292
-38.0489	-46.0167	24.0027
-38.0477	-44.9077	24.0125
-38.0474	-39.5858	24.0222
-38.04747	-36.8805	24.032
-38.0454	-37.1322	24.0417
-38.0457	-43.8904	24.0515
-38.0441	-44.5969	24.0613
-38.0444	-46.3487	24.071
-38.0421	-44.1177	24.0808
-38.0418	-37.1404	24.0906
-38.041	-39.0526	24.1003
-38.0408	-38.04089	24.1101
-38.03912	-43.9971	24.1199
-38.0382	-48.568	24.1296
-38.0374	-44.8856	24.1394
-38.0364	-39.1776	24.14917
-38.0361	-36.45578	24.1589
-38.0352	-39.99	24.1687
-38.0343	-46.1265	24.1785
-38.0342	-43.5285	24.1882
-38.0329	-44.79118	24.198
-38.0319	-41.9967	24.2078
-38.0316	-38.1994	24.2175
-38.0299	-36.8224	24.2273
-38.029	-39.7359	24.2371
-38.0288	-46.21323	24.2468
-38.0276	-46.5366	24.2566
-38.02652	-41.8187	24.2664
-38.02673	-37.9847	24.2761
-38.0255	-40.07	24.2859
-38.0242	-41.602	24.2957
-38.025	-43.6361	24.30542
-38.0227	-43.4397	24.3152
-38.0215	-43.07309	24.325
-38.0222	-43.9457	24.3347
-38.0199	-38.2995	24.3445
-38.0201	-40.0583	24.3542
-38.0189	-42.7913	24.364
-38.0184	-44.1483	24.3738
-38.0171	-44.4531	24.3835
-38.0158	-39.2369	24.3933
-38.01519	-40.4656	24.4031
-38.0163	-40.73431	24.4128
-38.0138	-40.5796	24.4226
-38.0139	-43.16991	24.4324
-38.0117	-42.7779	24.4421
-38.0124	-43.5282	24.4519
-38.0124	-41.4588	24.46167
-38.01017	-35.5213	24.4714
-38.0096	-39.853	24.4812
-38.009	-41.0195	24.491
-38.0077	-45.883	24.5007
-38.0076	-42.5713	24.5105
-38.0072	-39.826	24.5203
-38.0053	-41.4518	24.53
-38.0043	-38.8046	24.5398
-38.00341	-37.65	24.5496
-38.003	-42.074	24.5593
-38.0025	-45.8789	24.5691
-38.0012	-46.3825	24.5789
-38.0013	-39.2852	24.5886
-37.9989	-36.4327	24.5984
-37.99865	-40.2388	24.6082
-37.9979	-43.5557	24.61792
-37.9973	-45.0575	24.6277
-37.9962	-43.5682	24.6375
-37.9955	-41.48489	24.6472
-37.9949	-39.8305	24.657
-37.9941	-38.136	24.6667
-37.9933	-40.2608	24.6765
-37.9929	-44.33469	24.6863
-37.9922	-46.8478	24.696
-37.9908	-44.4165	24.7058
-37.9906	-37.812	24.7156
-37.9886	-36.01725	24.7253
-37.9883	-42.9192	24.7351
-37.9868	-44.2792	24.7449
-37.9869	-45.1931	24.7546
-37.9847	-46.1207	24.7644
-37.9847	-39.8059	24.77417
-37.9836	-38.957	24.7839
-37.9833	-37.1692	24.7937
-37.9827	-41.813	24.8035
-37.982	-48.397	24.8132
-37.9802	-45.14325	24.823
-37.9803	-41.1957	24.8328
-37.98	-37.4671	24.8425
-37.97826	-38.8149	24.8523
-37.9783	-44.1025	24.8621
-37.9765	-43.4997	24.8718
-37.9755	-45.6542	24.8816
-37.9746	-43.5108	24.8914
-37.9752	-39.5666	24.9011
-37.9738	-37.9391	24.9109
-37.9734	-39.1584	24.9207
-37.9722	-44.3421	24.93042
-37.9714	-45.0613	24.9402
-37.97028	-43.7641	24.95
-37.9686	-38.6971	24.9597
-37.9692	-39.7248	24.9695
-37.9688	-41.9448	24.9792
-37.9672	-42.1324	24.989
-37.966	-42.2573	24.9988
-37.9658	-43.489	25.0085
-37.9647	-44.2778	25.0183
-37.9634	-39.5231	25.0281