File: data/processed_data_files/tensile/0.254_hd_uprint_typeiv_4545_r(4).dat
MTS793|BTW|ENU|1|2|.|/|:|1|0|0|A

Data Header:			0.254_hd_uprint_typeiv_4545_r0			Time:	20.0193	s	4/13/2019 7:19:43 PM
Data Acquisition:	Timed
Station Name:	ft40.cfg
Test File Name:	monotonic_0.2540_typeiv_hd_4545_uprint.tst
Displacement	Force	Running Time
mm	N	s
-40.0338	-5.3655	0.0224609
-40.0346	-5.03492	0.0419922
-40.0343	-8.72559	0.0615234
-40.0339	-9.24455	0.0810547
-40.0348	-4.176	0.100586
-40.0316	-6.430305	0.120117
-40.03056	-6.48249	0.139648
-40.0291	-0.716239	0.15918
-40.0277	-0.295617	0.178711
-40.0241	-8.72249	0.198242
-40.025	3.31983	0.217773
-40.0225	2.93582	0.237305
-40.02	0.821118	0.256836
-40.0182	3.94276	0.276367
-40.0171	7.11642	0.295898
-40.0153	0.411278	0.31543
-40.0129	6.72306	0.334961
-40.0122	8.35383	0.354492
-40.0098	7.04085	0.374023
-40.0083	9.01317	0.393555
-40.0075	10.8253	0.413086
-40.0055	7.36735	0.432617
-40.0035	10.0733	0.452148
-40.0016	14.4522	0.47168
-40.0005	13.9547	0.491211
-39.9985	13.7652	0.510742
-39.9976	14.9034	0.530273
-39.99588	17.4149	0.549805
-39.9945	14.0159	0.569336
-39.9909	21.7837	0.588867
-39.9907	22.4426	0.608398
-39.9893	19.3425	0.62793
-39.9881	16.2834	0.647461
-39.9852	26.30628	0.666992
-39.9857	21.66674	0.686523
-39.9823	24.2119	0.706055
-39.9811	27.3025	0.725586
-39.9798	27.5418	0.745117
-39.9783	22.1465	0.764648
-39.9765	34.5902	0.78418
-39.9739	29.4746	0.803711
-39.9743	28.9383	0.823242
-39.9699	33.08316	0.842773
-39.971	35.6832	0.862305
-39.9686	27.9844	0.881836
-39.9669	34.9388	0.901367
-39.9648	37.665	0.920898
-39.96254	33.7914	0.94043
-39.96246	37.5822	0.959961
-39.9603	41.4575	0.979492
-39.9591	34.7544	0.999023
-39.9578	38.8849	1.01855
-39.9545	44.0946	1.03809
-39.9532	40.0528	1.05762
-39.9524	40.414	1.07715
-39.9506	44.7209	1.09668
-39.9499	44.8883	1.11621
-39.9473	42.98317	1.13574
-39.9454	49.0416	1.15527
-39.9441	49.1619	1.1748
-39.9422	47.8675	1.19434
-39.9411	48.3451	1.21387
-39.939	54.7045	1.2334
-39.9377	48.5866	1.25293
-39.9353	51.5109	1.27246
-39.9338	56.5349	1.29199
-39.9332	55.9796	1.31152
-39.93084	49.8383	1.33105
-39.929	58.4826	1.35059
-39.9275	57.7243	1.37012
-39.9261	55.7933	1.38965
-39.9253	61.6241	1.40918
-39.9233	62.6582	1.42871
-39.921	55.0418	1.44824
-39.9195	66.9171	1.46777
-39.9185	64.1136	1.4873
-39.9158	61.7201	1.50684
-39.9154	66.9912	1.52637
-39.91275	70.0207	1.5459
-39.9103	61.7266	1.56543
-39.91053	67.5173	1.58496
-39.90778	71.0606	1.60449
-39.9068	68.8996	1.62402
-39.9047	70.3399	1.64355
-39.9042	73.8471	1.66309
-39.9026	68.84037	1.68262
-39.8996	71.5254	1.70215
-39.89872	78.29	1.72168
-39.8961	77.0184	1.74121
-39.8948	75.9714	1.76074
-39.8935	77.7121	1.78027
-39.89193	80.3825	1.7998
-39.8906	77.495	1.81934
-39.8885	81.6786	1.83887
-39.8873	84.44796	1.8584
-39.8856	82.5709	1.87793
-39.8833	80.7063	1.89746
-39.8823	88.3448	1.91699
-39.8808	83.911	1.93652
-39.8794	85.9796	1.95605
-39.87606	91.5405	1.97559
-39.8756	88.1677	1.99512
-39.8733	82.8341	2.01465
-39.8717	94.1385	2.03418
-39.87096	92.4304	2.05371
-39.86932	89.4219	2.07324
-39.8676	94.3949	2.09277
-39.866	97.3272	2.1123
-39.8645	89.07	2.13184
-39.8637	98.2794	2.15137
-39.8609	99.9101	2.1709
-39.8592	95.1717	2.19043
-39.8584	97.5224	2.20996
-39.8567	104.753	2.22949
-39.8543	98.1222	2.24902
-39.853	101.522	2.26855
-39.8515	105.479	2.28809
-39.8494	103.293	2.30762
-39.8479	102.1234	2.32715
-39.84597	107.83	2.34668
-39.84441	106.439	2.36621
-39.8432	103.841	2.38574
-39.8413	111.5637	2.40527
-39.8395	111.31	2.4248
-39.8389	108.426	2.44434
-39.8351	109.347	2.46387
-39.8351	114.758	2.4834
-39.8332	111.325	2.50293
-39.8323	113.408	2.52246
-39.8308	118.256	2.54199
-39.8286	115.197	2.56152
-39.82542	111.769	2.58105
-39.8256	122.134	2.60059
-39.8232	118.057	2.62012
-39.82185	117.934	2.63965
-39.81971	122.162	2.65918
-39.8187	124.405	2.67871
-39.81749	116.916	2.69824
-39.8153	126.084	2.71777
-39.8141	125.223	2.7373
-39.8116	125.467	2.75684
-39.8112	127.227	2.77637
-39.80917	130.093	2.7959
-39.8076	123.384	2.81543
-39.80471	130.7058	2.83496
-39.804	133.233	2.85449
-39.8017	128.237	2.87402
-39.8015	131.714	2.89355
-39.7986	134.9124	2.91309
-39.7975	131.4865	2.93262
-39.796	132.239	2.95215
-39.7939	137.636	2.97168
-39.7932	135.673	2.99121
-39.7916	137.354	3.01074
-39.7887	137.778	3.03027
-39.788	140.253	3.0498
-39.7863	136.552	3.06934
-39.78548	140.581	3.08887
-39.7832	144.298	3.1084
-39.7815	141.211	3.12793
-39.7795	139.911	3.14746
-39.778	148.725	3.16699
-39.776	145.0936	3.18652
-39.7741	144.271	3.20605
-39.7733	151.283	3.22559
-39.77195	149.108	3.24512
-39.7717	144.416	3.26465
-39.7682	153.576	3.28418
-39.76651	150.5939	3.30371
-39.7655	150.692	3.32324
-39.7627	154.359	3.34277
-39.7616	156.657	3.3623
-39.7603	148.2986	3.38184
-39.7585	157.3038	3.40137
-39.757	158.557	3.4209
-39.7556	155.897	3.44043
-39.7533	158.714	3.45996
-39.7532	163.001	3.47949
-39.7496	156.501	3.49902
-39.7487	159.406	3.51855
-39.7464	165.865	3.53809
-39.7449	162.643	3.55762
-39.7429	161.4425	3.57715
-39.7426	166.926	3.59668
-39.7405	166.095	3.61621
-39.7393	164.209	3.63574
-39.7359	167.614	3.65527
-39.7361	170.616	3.6748
-39.7341	168.11	3.69434
-39.7322	169.2836	3.71387
-39.7319	174.391	3.7334
-39.72826	167.726	3.75293
-39.7277	172.342	3.77246
-39.72604	177.759	3.79199
-39.724	175.843	3.81152
-39.724	170.987	3.83105
-39.7204	180.5804	3.85059
-39.7196	178.0484	3.87012
-39.7172	176.205	3.88965
-39.7158	183.372	3.90918
-39.7147	182.219	3.92871
-39.71307	174	3.94824
-39.71133	185.732	3.96777
-39.7106	184.322	3.9873
-39.7082	181.993	4.00684
-39.7073	185.728	4.02637
-39.7043	189.904	4.0459
-39.70266	182.827	4.06543
-39.7022	187.896	4.08496
-39.69836	191.912	4.10449
-39.6987	188.051	4.12402
-39.6966	190.212	4.14355
-39.6952	195.5735	4.16309
-39.6926	189.175	4.18262
-39.6917	191.741	4.20215
-39.6905	196.888	4.22168
-39.6885	196.505	4.24121
-39.6876	194.268	4.26074
-39.685	195.9304	4.28027
-39.6835	198.221	4.2998
-39.6814	196.781	4.31934
-39.6793	200.53	4.33887
-39.6781	203.538	4.3584
-39.676	201.411	4.37793
-39.6751	198.728	4.39746
-39.6742	207.329	4.41699
-39.6726	202.266	4.43652
-39.6716	203.531	4.45605
-39.6684	209.735	4.47559
-39.6677	209.645	4.49512
-39.6668	203.572	4.51465
-39.6646	212.434	4.53418
-39.6626	211.101	4.55371
-39.6614	208.651	4.57324
-39.65942	214.7189	4.59277
-39.6574	214.854	4.6123
-39.6565	208.224	4.63184
-39.6552	217.778	4.65137
-39.6537	218.844	4.6709
-39.652	215.17	4.69043
-39.6493	217.314	4.70996
-39.6484	220.689	4.72949
-39.6442	216.52	4.74902
-39.6446	217.57	4.76855
-39.6421	223.862	4.78809
-39.6413	219.964	4.80762
-39.6397	221.57	4.82715
-39.63784	225.822	4.84668
-39.637	224.32	4.86621
-39.6357	222.196	4.88574
-39.6326	229.689	4.90527
-39.6312	230.825	4.9248
-39.6301	227.434	4.94434
-39.6295	225.387	4.96387
-39.6265	232.827	4.9834
-39.6251	228.009	5.00293
-39.6233	231.416	5.02246
-39.6216	236.143	5.04199
-39.6197	234.711	5.06152
-39.6178	230.4122	5.08105
-39.617	240.778	5.10059
-39.6152	235.2635	5.12012
-39.61319	235.411	5.13965
-39.6107	241.836	5.15918
-39.6111	242.488	5.17871
-39.6081	234.831	5.19824
-39.6075	242.809	5.21777
-39.60524	242.033	5.2373
-39.60461	240.757	5.25684
-39.6031	244.6795	5.27637
-39.6012	247.833	5.2959
-39.5993	240.464	5.31543
-39.5979	244.829	5.33496
-39.5952	249.866	5.35449
-39.5943	248.001	5.37402
-39.5928	246.509	5.39355
-39.5909	251.364	5.41309
-39.5889	249.147	5.43262
-39.58762	249.502	5.45215
-39.5864	254.406	5.47168
-39.5844	254.07	5.49121
-39.5822	252.944	5.51074
-39.5809	255.074	5.53027
-39.5793	258.1	5.5498
-39.5779	252.873	5.56934
-39.5762	259.489	5.58887
-39.5744	263.041	5.6084
-39.5731	258.466	5.62793
-39.5724	255.951	5.64746
-39.57	264.914	5.66699
-39.5683	260.603	5.68652
-39.56604	262.849	5.70605
-39.5648	267.6748	5.72559
-39.5633	264.438	5.74512
-39.561	258.958	5.76465
-39.5603	270.716	5.78418
-39.5578	268.004	5.80371
-39.5564	265.142	5.82324
-39.5545	270.532	5.84277
-39.554	272.098	5.8623
-39.5524	265.697	5.88184
-39.5504	272.4574	5.90137
-39.5493	275.353	5.9209
-39.54644	272.778	5.94043
-39.5458	274.7124	5.95996
-39.5439	278.632	5.97949
-39.5425	272.467	5.99902
-39.5412	276.369	6.01855
-39.5389	282.389	6.03809
-39.5376	278.767	6.05762
-39.5353	278.375	6.07715
-39.5334	281.298	6.09668
-39.5334	282.5719	6.11621
-39.5311	279.032	6.13574
-39.5298	285.853	6.15527
-39.5271	286.51	6.1748
-39.5269	284.102	6.19434
-39.5229	284.492	6.21387
-39.5223	291.069	6.2334
-39.5211	285.652	6.25293
-39.5184	287.531	6.27246
-39.51836	292.6698	6.29199
-39.516	290.7764	6.31152
-39.5138	285.257	6.33105
-39.513	295.606	6.35059
-39.511	292.052	6.37012
-39.5096	291.223	6.38965
-39.5083	298.18	6.40918
-39.5064	296.729	6.42871
-39.5041	290.8	6.44824
-39.503	300.6088	6.46777
-39.5015	298.902	6.4873
-39.5	296.0163	6.50684
-39.49905	299.927	6.52637
-39.4971	303.953	6.5459
-39.49538	296.186	6.56543
-39.493	302.257	6.58496
-39.4909	305.714	6.60449
-39.4899	301.962	6.62402
-39.4889	303.262	6.64355
-39.4867	307.083	6.66309
-39.48597	303.9873	6.68262
-39.4841	303.1236	6.70215
-39.4825	311.012	6.72168
-39.4812	310.002	6.74121
-39.4787	308.5275	6.76074
-39.4774	309.453	6.78027
-39.4749	314.096	6.7998
-39.4735	309.584	6.81934
-39.4735	314.6001	6.83887
-39.4718	317.542	6.8584
-39.4686	314.496	6.87793
-39.4672	311.137	6.89746
-39.4661	320.805	6.91699
-39.4641	315.231	6.93652
-39.4632	314.7128	6.95605
-39.4606	324.4975	6.97559
-39.45908	320.5083	6.99512
-39.4586	316.817	7.01465
-39.4558	324.694	7.03418
-39.45446	323.302	7.05371
-39.4525	321.147	7.07324
-39.4502	325.872	7.09277
-39.44965	327.431	7.1123
-39.4487	319.374	7.13184
-39.4458	327.071	7.15137
-39.4451	330.758	7.1709
-39.4433	325.461	7.19043
-39.4415	329.446	7.20996
-39.4396	332.479	7.22949
-39.4386	328.953	7.24902
-39.4365	329.709	7.26855
-39.43441	336.178	7.28809
-39.4335	333.191	7.30762
-39.4318	333.994	7.32715
-39.4302	336.773	7.34668
-39.4275	336.7413	7.36621
-39.4259	331.456	7.38574
-39.4241	339.297	7.40527
-39.4238	340.63	7.4248
-39.4217	338.231	7.44434
-39.4201	337.197	7.46387
-39.4179	345.584	7.4834
-39.4178	338.23	7.50293
-39.4151	341.592	7.52246
-39.4125	347.795	7.54199
-39.4125	344.148	7.56152
-39.4099	339.221	7.58105
-39.408	350.681	7.60059
-39.4067	346.659	7.62012
-39.4049	345.587	7.63965
-39.4035	351.743	7.65918
-39.4022	351.214	7.67871
-39.4011	345.135	7.69824
-39.3985	352.421	7.71777
-39.39632	351.529	7.7373
-39.3952	348.603	7.75684
-39.393	354.317	7.77637
-39.3923	356.301	7.7959
-39.3911	348.676	7.81543
-39.3896	355.671	7.83496
-39.38673	359.607	7.85449
-39.3854	355.597	7.87402
-39.384	356.554	7.89355
-39.3824	360.159	7.91309
-39.3798	358.82	7.93262
-39.37883	357.601	7.95215
-39.3767	364.284	7.97168
-39.3751	361.965	7.99121
-39.3744	360.909	8.01074
-39.3721	363.013	8.03027
-39.3718	368.4725	8.0498
-39.37	359.092	8.06934
-39.3674	367.457	8.08887
-39.3659	370.502	8.1084
-39.36462	365.776	8.12793
-39.3636	362.623	8.14746
-39.3618	374.34	8.16699
-39.36	368.391	8.18652
-39.3581	371.426	8.20605
-39.357	375.445	8.22559
-39.354	372.214	8.24512
-39.3537	367.849	8.26465
-39.3498	378.289	8.28418
-39.3497	376.629	8.30371
-39.3478	372.525	8.32324
-39.3465	377.996	8.34277
-39.3459	380.665	8.3623
-39.34388	372.358	8.38184
-39.34243	378.986	8.40137
-39.3403	381.329	8.4209
-39.3392	377.7131	8.44043
-39.3365	382.454	8.45996
-39.3342	384.284	8.47949
-39.3342	379.765	8.49902
-39.3325	380.888	8.51855
-39.3302	387.9454	8.53809
-39.3287	385.199	8.55762
-39.3274	384.681	8.57715
-39.326	386.739	8.59668
-39.3241	389.57	8.61621
-39.3226	384.64	8.63574
-39.322	390.903	8.65527
-39.319	392.136	8.6748
-39.3179	388.043	8.69434
-39.3172	387.329	8.71387
-39.31498	396.485	8.7334
-39.31287	389.787	8.75293
-39.31097	392.831	8.77246
-39.3101	398.004	8.79199
-39.3072	394.399	8.81152
-39.3063	389.511	8.83105
-39.3047	401.8345	8.85059
-39.3027	395.236	8.87012
-39.3008	396.181	8.88965
-39.3007	402.372	8.90918
-39.2987	400.048	8.92871
-39.295	393.149	8.94824
-39.295	403.717	8.96777
-39.2929	405.107	8.9873
-39.2906	399.225	9.00684
-39.2891	403.824	9.02637
-39.28791	406.966	9.0459
-39.2865	400.501	9.06543
-39.2856	406.195	9.08496
-39.2837	409.673	9.10449
-39.2824	404.997	9.12402
-39.2801	406.454	9.14355
-39.2794	408.967	9.16309
-39.2764	408.3833	9.18262
-39.2761	406.354	9.20215
-39.2732	414.345	9.22168
-39.2723	412.598	9.24121
-39.27	409.147	9.26074
-39.2695	409.8428	9.28027
-39.2662	415.746	9.2998
-39.2652	409.075	9.31934
-39.2629	417.028	9.33887
-39.2624	419.262	9.3584
-39.2601	413.866	9.37793
-39.2585	412.481	9.39746
-39.2571	421.641	9.41699
-39.2561	416.49	9.43652
-39.2541	417.894	9.45605
-39.2537	423.848	9.47559
-39.2501	420.63	9.49512
-39.2489	414.8356	9.51465
-39.2487	426.156	9.53418
-39.2453	422.442	9.55371
-39.2444	420.761	9.57324
-39.2425	427.3544	9.59277
-39.2407	427.27	9.6123
-39.23978	419.564	9.63184
-39.2373	426.145	9.65137
-39.2361	432.326	9.6709
-39.2338	425.743	9.69043
-39.2336	428.09	9.70996
-39.2319	431.912	9.72949
-39.2306	428.596	9.74902
-39.2274	428.396	9.76855
-39.2267	433.795	9.78809
-39.22435	430.793	9.80762
-39.2219	431.867	9.82715
-39.22	435.096	9.84668
-39.2196	435.705	9.86621
-39.2188	429.781	9.88574
-39.2167	437.739	9.90527
-39.2156	439.678	9.9248
-39.2128	435.9324	9.94434
-39.2132	434.03	9.96387
-39.2099	440.586	9.9834
-39.2088	435.034	10.00293
-39.2055	440.259	10.0225
-39.2051	445.104	10.042
-39.204	439.675	10.0615
-39.2009	435.435	10.0811
-39.1992	447.448	10.1006
-39.19799	443.188	10.1201
-39.1963	439.655	10.1396
-39.19487	447.968	10.15918
-39.1943	445.628	10.1787
-39.1922	440.665	10.1982
-39.1901	448.7	10.2178
-39.189	449.971	10.2373
-39.1865	443.405	10.2568
-39.1857	449.099	10.2764
-39.1837	450.7467	10.2959
-39.1827	445.857	10.31543
-39.181	449.504	10.335
-39.17868	454.994	10.3545
-39.1773	450.056	10.374
-39.17598	452.093	10.3936
-39.1741	452.593	10.4131
-39.1717	453.007	10.4326
-39.1719	451.169	10.4521
-39.1692	458.517	10.47168
-39.1678	456.903	10.4912
-39.1664	454.325	10.5107
-39.1644	455.021	10.5303
-39.163	461.705	10.5498
-39.1616	454.6236	10.5693
-39.1588	460.054	10.5889
-39.15889	464.387	10.6084
-39.1571	458.385	10.62793
-39.1542	455.494	10.6475
-39.1526	465.516	10.667
-39.15107	460.001	10.6865
-39.1498	460.67	10.7061
-39.1488	467.785	10.7256
-39.1472	462.712	10.7451
-39.1446	459.193	10.7646
-39.14378	469.356	10.78418
-39.141	466.545	10.8037
-39.1413	461.251	10.8232
-39.1386	468.75	10.8428
-39.1359	468.9801	10.8623
-39.1344	463.079	10.8818
-39.1322	468.593	10.9014
-39.13195	470.302	10.9209
-39.13	465.06	10.94043
-39.1293	469.243	10.96
-39.12698	472.851	10.9795
-39.12532	470.048	10.999
-39.1243	468.557	11.0186
-39.123	475.639	11.0381
-39.1199	474.009	11.0576
-39.1194	471.652	11.0771
-39.1172	473.315	11.09668
-39.1159	477.588	11.1162
-39.1136	471.597	11.1357
-39.1119	477.317	11.1553
-39.1105	478.152	11.1748
-39.1086	474.992	11.1943
-39.10725	474.508	11.2139
-39.106	482.746	11.2334
-39.103	475.906	11.25293
-39.1028	478.14	11.2725
-39.101	484.1698	11.292
-39.0994	480.7908	11.3115
-39.0967	476.321	11.3311
-39.0965	485.649	11.3506
-39.0943	482.731	11.3701
-39.0934	479.029	11.3896
-39.0902	486.603	11.40918
-39.0897	484.471	11.4287
-39.0889	478.138	11.4482
-39.0865	486.351	11.4678
-39.0848	488.181	11.4873
-39.08252	482.888	11.5068
-39.0815	486.0116	11.5264
-39.0806	488.24	11.5459
-39.0795	484.831	11.56543
-39.0763	486.9921	11.585
-39.0749	491.897	11.6045
-39.0738	488.592	11.624
-39.0723	489.165	11.6436
-39.071	490.961	11.6631
-39.069	491.883	11.6826
-39.0672	486.86	11.7021
-39.0649	494.7612	11.72168
-39.0639	495.145	11.7412
-39.0624	490.672	11.7607
-39.0606	491.166	11.7803
-39.0585	497.086	11.7998
-39.058	490.306	11.8193
-39.055	496.778	11.8389
-39.053	498.068	11.8584
-39.0524	492.299	11.87793
-39.0502	492.938	11.8975
-39.0492	502.578	11.917
-39.0469	494.873	11.9365
-39.04557	494.044	11.9561
-39.0435	500.133	11.9756
-39.0421	498.903	11.9951
-39.0413	494.389	12.0146
-39.0391	500.677	12.03418
-39.03801	499.909	12.0537
-39.0358	495.554	12.0732
-39.0336	501.773	12.0928
-39.0331	501.085	12.1123
-39.0318	495.857	12.1318
-39.0297	501.523	12.1514
-39.0289	506.045	12.1709
-39.026	498.874	12.19043
-39.0243	500.637	12.21
-39.0233	503.207	12.2295
-39.0207	502.7637	12.249
-39.02	501.074	12.2686
-39.0182	507.91	12.2881
-39.0166	503.991	12.3076
-39.015	503.178	12.3271
-39.0128	504.848	12.34668
-39.011	506.606	12.3662
-39.01001	498.693	12.3857
-39.0081	508.842	12.4053
-39.0064	510.076	12.4248
-39.0049	505.982	12.4443
-39.003	502.932	12.4639
-39.0019	510.833	12.4834
-39.0005	504.479	12.50293
-38.9986	509.019	12.5225
-38.9976	512.253	12.542
-38.9952	506.5047	12.5615
-38.99358	502.72	12.5811
-38.993	513.738	12.6006
-38.99	509.468	12.6201
-38.9887	506.068	12.6396
-38.9869	512.58	12.65918
-38.9849	510.087	12.6787
-38.9833	506	12.6982
-38.9819	511.752	12.7178
-38.9811	512.934	12.7373
-38.9784	508.43	12.7568
-38.9777	512.3103	12.7764
-38.9763	513.145	12.7959
-38.9733	508.729	12.81543
-38.9727	511.68	12.835
-38.9702	516.257	12.8545
-38.96904	512.166	12.874
-38.9676	513.786	12.8936
-38.9657	512.388	12.9131
-38.9646	513.259	12.9326
-38.9619	509.453	12.9521
-38.9612	516.747	12.97168
-38.9582	514.1803	12.9912
-38.9584	512.273	13.0107
-38.957	513.68	13.0303
-38.9546	518.155	13.0498
-38.954	510.286	13.0693
-38.9505	513.6615	13.0889
-38.9505	518.894	13.1084
-38.9471	512.914	13.12793
-38.9459	510.612	13.1475
-38.9443	519.441	13.167
-38.9434	513.323	13.1865
-38.94157	513.179	13.2061
-38.9389	520.902	13.2256
-38.9379	514.018	13.2451
-38.9362	509.3819	13.2646
-38.9351	517.516	13.28418
-38.93298	516.942	13.3037
-38.9318	512.019	13.3232
-38.9295	519.023	13.3428
-38.9283	516.997	13.3623
-38.92609	512.365	13.3818
-38.9243	516.093	13.4014
-38.923	519.074	13.4209
-38.9226	513.633	13.44043
-38.91951	517.0412	13.46
-38.9182	517.66	13.4795
-38.9164	516.099	13.499
-38.9153	512.25	13.5186
-38.914	520.416	13.5381
-38.91124	515.411	13.5576
-38.9105	515.266	13.5771
-38.9087	516.893	13.59668
-38.9069	518.659	13.6162
-38.9063	511.7963	13.6357
-38.9031	519.651	13.6553
-38.9022	519.816	13.6748
-38.9007	514.336	13.6943
-38.899	512.567	13.7139
-38.8961	523.204	13.7334
-38.8955	514.087	13.75293
-38.8949	515.713	13.7725
-38.892	520.648	13.792
-38.8915	515.083	13.8115
-38.8886	513.477	13.8311
-38.8869	520.553	13.8506
-38.8861	516.316	13.8701
-38.8849	514.02	13.8896
-38.8829	521.5376	13.90918
-38.8813	515.7569	13.9287
-38.88	510.999	13.9482
-38.8778	517.752	13.9678
-38.877	519.378	13.9873
-38.8744	512.632	14.0068
-38.8731	518.078	14.0264
-38.8713	516.518	14.0459
-38.8704	514.818	14.06543
-38.86866	513.849	14.085
-38.866	521.516	14.1045
-38.8652	514.503	14.124
-38.8632	513.911	14.1436
-38.8608	517.236	14.1631
-38.8604	519.007	14.1826
-38.8581	512.461	14.2021
-38.8572	519.214	14.22168
-38.8545	518.521	14.2412
-38.8539	513.831	14.2607
-38.8519	514.113	14.2803
-38.8504	519.276	14.2998
-38.8493	510.97	14.3193
-38.847	515.8526	14.3389
-38.8456	519.063	14.3584
-38.8443	511.909	14.37793
-38.8425	510.273	14.3975
-38.8396	520.832	14.417
-38.8396	513.67	14.4365
-38.8377	511.934	14.4561
-38.8346	518.689	14.4756
-38.83403	515.341	14.4951
-38.8334	512.201	14.5146
-38.831	517.674	14.53418
-38.829	514.503	14.5537
-38.8279	511.068	14.5732
-38.8257	517.232	14.5928
-38.8244	514.686	14.6123
-38.8218	511.145	14.6318
-38.8216	513.989	14.6514
-38.8189	518.371	14.6709
-38.8176	511.699	14.69043
-38.8164	513.095	14.71
-38.8141	515.511	14.7295
-38.8134	513.572	14.749
-38.8115	509.83	14.7686
-38.8086	520.44	14.7881
-38.8076	512.709	14.8076
-38.8068	511.301	14.8271
-38.8048	513.741	14.84668
-38.8041	516.395	14.8662
-38.8022	508.874	14.8857
-38.7993	515.425	14.9053
-38.7984	518.621	14.9248
-38.7978	510.988	14.9443
-38.7945	511.733	14.9639
-38.7932	517.147	14.9834
-38.7913	509.37	15.00293
-38.7912	512.461	15.0225
-38.78854	517.876	15.042
-38.7875	510.849	15.0615
-38.78418	508.582	15.0811
-38.784	516.38	15.1006
-38.7825	513.203	15.1201
-38.78133	508.298	15.1396
-38.7799	515.87	15.15918
-38.77602	510.888	15.1787
-38.7758	508.432	15.1982
-38.7739	512.907	15.2178
-38.7723	514.558	15.2373
-38.7705	508.366	15.2568
-38.7681	513.322	15.2764
-38.7675	511.936	15.2959
-38.76548	508.955	15.31543
-38.7646	510.079	15.335
-38.7617	514.987	15.3545
-38.7598	511.057	15.374
-38.7593	509.79	15.3936
-38.7568	510.745	15.4131
-38.7562	511.736	15.4326
-38.7544	507.38	15.4521
-38.7533	514.013	15.47168
-38.7514	512.216	15.4912
-38.749	507.355	15.5107
-38.7484	509.588	15.5303
-38.7463	514.455	15.5498
-38.7445	505.509	15.5693
-38.743	509.753	15.5889
-38.7409	513.683	15.6084
-38.739	508.549	15.62793
-38.73698	506.709	15.6475
-38.7368	512.86	15.667
-38.7341	506.232	15.6865
-38.7333	506.44	15.7061
-38.7306	514.081	15.7256
-38.72913	508.173	15.7451
-38.7281	504.682	15.7646
-38.72662	511.164	15.78418
-38.7239	511.371	15.8037
-38.7231	505.444	15.8232
-38.7217	512.5965	15.8428
-38.7209	508.7338	15.8623
-38.7176	506.8298	15.8818
-38.7163	508.929	15.9014
-38.7148	513.2688	15.9209
-38.7132	506.557	15.94043
-38.7111	510.428	15.96
-38.71022	510.735	15.9795
-38.7087	510.523	15.999
-38.7075	505.786	16.0186
-38.7045	512.12	16.0381
-38.7036	509.911	16.0576
-38.7029	507.366	16.0771
-38.70047	508.018	16.09668
-38.6988	510.255	16.1162
-38.6973	504.202	16.1357
-38.6954	510.755	16.1553
-38.6946	512.991	16.1748
-38.6922	505.663	16.1943
-38.6916	506.969	16.2139
-38.6898	512.747	16.2334
-38.6877	506.068	16.25293
-38.6867	505.605	16.2725
-38.6837	512.5871	16.292
-38.6829	504.887	16.3115
-38.68055	503.832	16.3311
-38.6798	511.45	16.3506
-38.6777	508.841	16.3701
-38.6771	504.517	16.3896
-38.6742	514.049	16.40918
-38.6726	506.6626	16.4287
-38.6716	503.932	16.4482
-38.66877	508.478	16.4678
-38.6685	510.691	16.4873
-38.6657	503.866	16.5068
-38.6649	507.724	16.5264
-38.6631	508.979	16.5459
-38.6613	505.427	16.56543
-38.6594	505.313	16.585
-38.6574	511.569	16.6045
-38.6565	505.345	16.624
-38.6546	505.773	16.6436
-38.6545	506.838	16.6631
-38.6521	508.137	16.6826
-38.6493	502.751	16.7021
-38.6489	510.226	16.72168
-38.6464	510.332	16.7412
-38.6445	504.97	16.7607
-38.6438	505.922	16.7803
-38.6423	508.328	16.7998
-38.63958	502.538	16.8193
-38.6385	506.98	16.8389
-38.6379	510.329	16.8584
-38.6354	503.95	16.87793
-38.634	502.322	16.8975
-38.63118	509.828	16.917
-38.6308	504.403	16.9365
-38.6288	502.369	16.9561
-38.6289	509.45	16.9756
-38.6261	503.8334	16.9951
-38.6245	503.205	17.0146
-38.6228	508.736	17.03418
-38.6205	508.489	17.0537
-38.6191	502.73	17.0732
-38.6178	510.04	17.0928
-38.6163	507.12	17.1123
-38.6144	502.148	17.1318
-38.6128	503.9043	17.1514
-38.6118	509.96	17.1709
-38.6107	504.08	17.19043
-38.608	505.809	17.21
-38.6044	505.917	17.2295
-38.6041	507.485	17.249
-38.6035	502.8721	17.2686
-38.601	508.787	17.2881
-38.5998	505.5574	17.3076
-38.5985	502.5733	17.3271
-38.5961	503.775	17.34668
-38.5947	508.582	17.3662
-38.59296	500.891	17.3857
-38.591	505.618	17.4053
-38.59005	508.732	17.4248
-38.58852	501.473	17.4443
-38.5871	502.048	17.4639
-38.58604	509.808	17.4834
-38.584	500.885	17.50293
-38.5816	502.335	17.5225
-38.5793	511.5477	17.542
-38.5792	501.549	17.5615
-38.5776	500.9548	17.5811
-38.57505	508.5687	17.6006
-38.5742	504.983	17.6201
-38.5725	500.703	17.6396
-38.5698	507.676	17.65918
-38.5692	503.711	17.6787
-38.567	501.386	17.6982
-38.56535	506.061	17.7178
-38.5639	508.337	17.7373
-38.5621	500.7196	17.7568
-38.5608	504.84	17.7764
-38.5585	505.4213	17.7959
-38.5569	503.494	17.81543
-38.55677	501.213	17.835
-38.5556	508.791	17.8545
-38.5526	504.151	17.874
-38.5519	504.457	17.8936
-38.5501	504.204	17.9131
-38.5473	504.437	17.9326
-38.5455	499.702	17.9521
-38.5442	505.915	17.97168
-38.54237	504.803	17.9912
-38.5406	499.556	18.0107
-38.5378	503.272	18.0303
-38.5369	507.2435	18.0498
-38.5359	498.688	18.0693
-38.5353	501.738	18.0889
-38.5337	507.481	18.1084
-38.5312	498.785	18.12793
-38.5294	500.983	18.1475
-38.5277	507.159	18.167
-38.5275	502.173	18.1865
-38.525	499.84	18.2061
-38.5232	508.883	18.2256
-38.5211	500.463	18.2451
-38.5206	500.238	18.2646
-38.5185	505.103	18.28418
-38.5169	506.02	18.3037
-38.51466	500.945	18.3232
-38.514	506.104	18.3428
-38.512	501.96	18.3623
-38.5101	501.854	18.3818
-38.5084	501.982	18.4014
-38.5083	507.857	18.4209
-38.5053	500.194	18.44043
-38.50325	502.763	18.46
-38.503	503.6019	18.4795
-38.4996	502.796	18.499
-38.4988	499.321	18.5186
-38.49691	505.9136	18.5381
-38.4952	503.162	18.5576
-38.4946	500.379	18.5771
-38.4927	502.641	18.59668
-38.4907	504.701	18.6162
-38.4909	498.923	18.6357
-38.487	504.521	18.6553
-38.4862	505.566	18.6748
-38.4831	497.289	18.6943
-38.48254	499.3819	18.7139
-38.4806	506.1254	18.7334
-38.4795	499.983	18.75293
-38.4784	498.29	18.7725
-38.4757	505.845	18.792
-38.4747	498.393	18.8115
-38.47311	499.497	18.8311
-38.4714	504.782	18.8506
-38.4698	502.1301	18.8701
-38.4683	499.657	18.8896
-38.4677	505.926	18.90918
-38.4642	499.833	18.9287
-38.46265	498.432	18.9482
-38.4622	500.817	18.9678
-38.46	505.135	18.9873
-38.459	499.389	19.0068
-38.4571	502.79	19.0264
-38.456	502.122	19.0459
-38.4538	499.854	19.06543
-38.4517	501.155	19.085
-38.4489	506.181	19.1045
-38.44828	500.86	19.124
-38.4471	500.391	19.1436
-38.4453	502.591	19.1631
-38.4445	504.367	19.1826
-38.4409	496.639	19.2021
-38.4409	504.1	19.22168
-38.4395	504.71	19.2412
-38.4377	497.458	19.2607
-38.4349	499.796	19.2803
-38.4349	504.24	19.2998
-38.4319	496.097	19.3193
-38.4301	500.97	19.3389
-38.4303	506.141	19.3584
-38.4267	497.828	19.37793
-38.4266	498.133	19.3975
-38.4241	505.3364	19.417
-38.4215	499.728	19.4365
-38.4215	498.7991	19.4561
-38.4184	504.954	19.4756
-38.4166	498.428	19.4951
-38.4158	497.974	19.5146
-38.4139	502.01	19.53418
-38.41317	502.056	19.5537
-38.4101	496.8201	19.5732
-38.4096	505.269	19.5928
-38.40797	499.931	19.6123
-38.4066	500.22	19.6318
-38.4039	499.455	19.6514
-38.4034	504.866	19.6709
-38.4001	499.15	19.69043
-38.3991	499.834	19.71
-38.3982	500.508	19.7295
-38.3957	500.846	19.749
-38.395	497.011	19.7686
-38.3918	505.152	19.7881
-38.3921	501.957	19.8076
-38.3898	497.215	19.8271
-38.3886	500.252	19.84668
-38.38649	503.957	19.8662
-38.3843	496.405	19.8857
-38.3836	500.5715	19.9053
-38.3816	504.186	19.9248
-38.3804	497.147	19.9443
-38.379	497.868	19.9639
-38.37656	503.105	19.9834
-38.3753	497.866	20.00293
-38.3737	494.221	20.0127

Data Header:			0.254_hd_uprint_typeiv_4545_r0			Time:	37.5559	s	4/13/2019 7:20:01 PM
Data Acquisition:	Timed
Station Name:	ft40.cfg
Test File Name:	monotonic_0.2540_typeiv_hd_4545_uprint.tst
Displacement	Force	Running Time
mm	N	s
-38.3731	498.68	20.0225
-38.3719	505.413	20.042
-38.3698	495.914	20.0615
-38.3688	497.688	20.0811
-38.3672	502.929	20.1006
-38.365	499.836	20.1201
-38.3629	497.33	20.1396
-38.363	503.504	20.15918
-38.3598	498.647	20.1787
-38.3592	497.353	20.1982
-38.3563	501.215	20.2178
-38.35511	503.201	20.2373
-38.3548	498.361	20.2568
-38.3528	501.142	20.2764
-38.3506	500.866	20.2959
-38.3488	499.57	20.31543
-38.3472	498.151	20.335
-38.3462	503.726	20.3545
-38.34462	499.487	20.374
-38.3427	497.629	20.3936
-38.3399	500.116	20.4131
-38.3389	499.779	20.4326
-38.3372	495.91	20.4521
-38.3356	501.626	20.47168
-38.3348	501.712	20.4912
-38.3328	495.859	20.5107
-38.3304	498.606	20.5303
-38.3291	502.109	20.5498
-38.32856	496.392	20.5693
-38.3275	497.324	20.5889
-38.325	503.054	20.6084
-38.3228	495.156	20.62793
-38.321	498.142	20.6475
-38.3192	501.065	20.667
-38.3187	497.855	20.6865
-38.3165	497.293	20.7061
-38.3157	503.226	20.7256
-38.3136	495.293	20.7451
-38.3121	495.291	20.7646
-38.3101	499.908	20.78418
-38.3093	501.315	20.8037
-38.307	496.362	20.8232
-38.3054	502.497	20.8428
-38.3033	497.292	20.8623
-38.3015	496.98	20.8818
-38.30027	496.6972	20.9014
-38.29834	503.2	20.9209
-38.2973	496.146	20.94043
-38.2952	497.466	20.96
-38.2943	498.827	20.9795
-38.2931	498.853	20.999
-38.2902	494.92	21.0186
-38.2885	501.896	21.0381
-38.2866	499.346	21.0576
-38.2861	496.473	21.0771
-38.2837	498.985	21.09668
-38.282	499.207	21.1162
-38.281	493.9675	21.1357
-38.279	498.669	21.1553
-38.2781	501.742	21.1748
-38.2759	491.686	21.1943
-38.27462	496.14	21.2139
-38.2717	502.368	21.2334
-38.2709	496.243	21.25293
-38.2692	496.274	21.2725
-38.26804	502.142	21.292
-38.2673	495.522	21.3115
-38.2644	496.9964	21.3311
-38.2627	500.734	21.3506
-38.2618	496.971	21.3701
-38.2594	494.641	21.3896
-38.258	501.841	21.40918
-38.2567	495.95	21.4287
-38.25486	494.725	21.4482
-38.2531	498.7283	21.4678
-38.25111	502.158	21.4873
-38.2498	497.503	21.5068
-38.2487	498.399	21.5264
-38.2467	497.01	21.5459
-38.245	496.837	21.56543
-38.2432	496.4946	21.585
-38.2404	501.098	21.6045
-38.2403	496.854	21.624
-38.2384	495.56	21.6436
-38.237	499.505	21.6631
-38.2341	497.763	21.6826
-38.2337	493.678	21.7021
-38.2317	498.75	21.72168
-38.23037	500.274	21.7412
-38.2292	493.934	21.7607
-38.2272	497.307	21.7803
-38.2264	498.433	21.7998
-38.2229	494.635	21.8193
-38.2216	496.409	21.8389
-38.2212	502.129	21.8584
-38.2187	493.085	21.87793
-38.2176	495.635	21.8975
-38.2154	500.319	21.917
-38.214	498.612	21.9365
-38.2119	494.529	21.9561
-38.2115	502.477	21.9756
-38.2093	493.589	21.9951
-38.2074	494.299	22.0146
-38.2057	500.04	22.03418
-38.2046	498.789	22.0537
-38.2022	493.842	22.0732
-38.20108	499.757	22.0928
-38.199	495.815	22.1123
-38.1978	494.075	22.1318
-38.1956	494.672	22.1514
-38.193	501.085	22.1709
-38.1934	494.238	22.19043
-38.1921	496.28	22.21
-38.1907	497.121	22.2295
-38.1885	494.893	22.249
-38.187	493.967	22.2686
-38.1844	500.745	22.2881
-38.18259	496.223	22.3076
-38.1813	492.615	22.3271
-38.1807	497.007	22.34668
-38.1786	497.603	22.3662
-38.1771	494.816	22.3857
-38.1742	496.083	22.4053
-38.1732	500.6333	22.4248
-38.172	492.027	22.4443
-38.1706	496.552	22.4639
-38.1689	497.522	22.4834
-38.1664	493.456	22.50293
-38.1655	494.716	22.5225
-38.1628	502.2937	22.542
-38.1621	491.669	22.5615
-38.16	495.321	22.5811
-38.1584	498.616	22.6006
-38.1577	498.282	22.6201
-38.156	494.24	22.6396
-38.1543	499.784	22.65918
-38.1519	494.0578	22.6787
-38.1505	493.372	22.6982
-38.1496	496.323	22.7178
-38.1482	499.096	22.7373
-38.1469	492.729	22.7568
-38.1441	496.822	22.7764
-38.1426	495.99	22.7959
-38.1408	494.273	22.81543
-38.1397	492.991	22.835
-38.137	498.967	22.8545
-38.1363	494.898	22.874
-38.1343	493.009	22.8936
-38.1321	496.03	22.9131
-38.1309	496.321	22.9326
-38.1298	490.351	22.9521
-38.1285	497.541	22.97168
-38.1267	497.846	22.9912
-38.1241	490.29	23.0107
-38.1224	496.481	23.0303
-38.12151	497.747	23.0498
-38.1199	493.753	23.0693
-38.1177	493.333	23.0889
-38.1163	500.896	23.1084
-38.1134	490.784	23.12793
-38.1126	494.656	23.1475
-38.1113	499.059	23.167
-38.1106	494.192	23.1865
-38.108	492.202	23.2061
-38.1067	499.137	23.2256
-38.1062	493.062	23.2451
-38.1037	492.359	23.2646
-38.1014	496.086	23.28418
-38.0988	496.6846	23.3037
-38.0989	492.9343	23.3232
-38.0966	497.114	23.3428
-38.0963	495.244	23.3623
-38.094	493.822	23.3818
-38.0928	494.578	23.4014
-38.0903	498.976	23.4209
-38.0888	493.794	23.44043
-38.08802	493.437	23.46
-38.0875	496.033	23.4795
-38.0843	496.21	23.499
-38.0821	491.445	23.5186
-38.0812	496.436	23.5381
-38.0784	495.813	23.5576
-38.0781	492.3746	23.5771
-38.0765	496.568	23.59668
-38.0739	495.955	23.6162
-38.0728	492.185	23.6357
-38.071	496.76	23.6553
-38.0691	498.691	23.6748
-38.0667	488.603	23.6943
-38.0655	492.481	23.7139
-38.0634	498.2547	23.7334
-38.0627	493.03	23.75293
-38.06	493.834	23.7725
-38.0585	499.672	23.792
-38.0582	490.296	23.8115
-38.0555	493.408	23.8311
-38.0544	498.307	23.8506
-38.0527	495.559	23.8701
-38.0515	491.701	23.8896
-38.0494	498.127	23.90918
-38.0483	493.4397	23.9287
-38.0459	492.47	23.9482
-38.0457	495.2388	23.9678
-38.043	497.336	23.9873
-38.0409	491.3317	24.0068
-38.0402	495.107	24.0264
-38.0385	494.588	24.0459
-38.0369	492.716	24.06543
-38.0345	494.47	24.085
-38.0327	498.418	24.1045
-38.0318	492.979	24.124
-38.0292	490.655	24.1436
-38.028	493.966	24.1631
-38.0269	495.228	24.1826
-38.0253	490.467	24.2021
-38.0241	494.646	24.22168
-38.0215	497.8183	24.2412
-38.0204	489.099	24.2607
-38.0185	496.2691	24.2803
-38.0159	497.178	24.2998
-38.015	491.995	24.3193
-38.0136	495.262	24.3389
-38.0124	500.393	24.3584
-38.0121	489.293	24.37793
-38.0094	493.257	24.3975
-38.00703	497.284	24.417
-38.0054	493.123	24.4365
-38.0032	490.965	24.4561
-38.0028	496.663	24.4756
-38.0011	489.75	24.4951
-37.9991	491.732	24.5146
-37.9973	494.875	24.53418
-37.9963	495.396	24.5537
-37.9941	491.025	24.5732
-37.9927	496.017	24.5928
-37.9909	492.472	24.6123
-37.9892	490.801	24.6318
-37.9892	493.205	24.6514
-37.9864	496.948	24.6709
-37.9849	490.872	24.69043
-37.9833	491.157	24.71
-37.981	494.292	24.7295
-37.9799	492.427	24.749
-37.9793	491.186	24.7686
-37.9776	496.459	24.7881
-37.9757	494.322	24.8076
-37.9731	487.8656	24.8271
-37.97134	494.279	24.84668
-37.9708	494.866	24.8662
-37.9672	490.307	24.8857
-37.9666	493.579	24.9053
-37.966	495.687	24.9248
-37.9639	488.1311	24.9443
-37.9624	494.372	24.9639
-37.9597	495.324	24.9834
-37.9582	491.329	25.00293
-37.9566	490.516	25.0225
-37.95504	498.158	25.042
-37.954	487.64	25.0615
-37.9526	491.706	25.0811
-37.9503	494.741	25.1006
-37.9493	493.799	25.1201
-37.94714	491.42	25.1396
-37.9454	496.4003	25.15918
-37.9441	491.0477	25.1787
-37.942	491.532	25.1982
-37.9407	494.779	25.2178
-37.9394	495.349	25.2373
-37.9376	489.251	25.2568
-37.9366	492.81	25.2764
-37.9332	493.8674	25.2959
-37.9328	492.724	25.31543
-37.9307	491.466	25.335
-37.9291	495.6846	25.3545
-37.927	493.617	25.374
-37.926	490.272	25.3936
-37.924	493.387	25.4131
-37.9223	492.787	25.4326
-37.9208	490.345	25.4521
-37.9193	494.855	25.47168
-37.9186	495.152	25.4912
-37.9164	487.315	25.5107
-37.915	494.958	25.5303
-37.9122	496.182	25.5498
-37.9109	491.566	25.5693
-37.90844	492.051	25.5889
-37.909	496.9053	25.6084
-37.9063	486.734	25.62793
-37.9053	493.61	25.6475
-37.9026	494.793	25.667
-37.9022	492.189	25.6865
-37.89938	490.263	25.7061
-37.8991	497.315	25.7256
-37.8968	490.049	25.7451
-37.8945	489.088	25.7646
-37.8932	495.055	25.78418
-37.89135	495.412	25.8037
-37.89043	490.302	25.8232
-37.889	494.407	25.8428
-37.88689	492.968	25.8623
-37.8843	489.775	25.8818
-37.884	491.018	25.9014
-37.8819	495.154	25.9209
-37.8801	490.131	25.94043
-37.87833	491.428	25.96
-37.8761	494.237	25.9795
-37.8762	491.482	25.999
-37.873	488.594	26.0186
-37.8724	495.3353	26.0381
-37.87093	493.829	26.0576
-37.8688	486.665	26.0771
-37.8671	493.854	26.09668
-37.8666	492.608	26.1162
-37.8637	489.203	26.1357
-37.8627	493.777	26.1553
-37.8604	494.901	26.1748
-37.86063	486.426	26.1943
-37.8574	492.08	26.2139
-37.8565	494.749	26.2334
-37.8551	491.298	26.25293
-37.8524	491.084	26.2725
-37.8516	496.502	26.292
-37.8514	488.393	26.3115
-37.8482	490.448	26.3311
-37.8468	495.624	26.3506
-37.8451	493.056	26.3701
-37.8437	489.161	26.3896
-37.8408	494.804	26.40918
-37.83926	489.524	26.4287
-37.8377	489.575	26.4482
-37.8365	490.958	26.4678
-37.8355	494.583	26.4873
-37.8339	489.38	26.5068
-37.8317	491.127	26.5264
-37.8305	493.781	26.5459
-37.82914	489.856	26.56543
-37.8263	491.208	26.585
-37.8256	495.223	26.6045
-37.82431	491.2774	26.624
-37.82201	487.894	26.6436
-37.8201	494.36	26.6631
-37.8191	490.24	26.6826
-37.8168	488.083	26.7021
-37.8153	493.038	26.72168
-37.8143	493.393	26.7412
-37.8128	485.204	26.7607
-37.8106	493.169	26.7803
-37.8079	491.737	26.7998
-37.8079	488.647	26.8193
-37.8066	490.576	26.8389
-37.8029	496.401	26.8584
-37.8029	484.588	26.87793
-37.8009	491.027	26.8975
-37.79945	492.93	26.917
-37.7966	490.087	26.9365
-37.796	488.903	26.9561
-37.7955	495.106	26.9756
-37.7921	488.0831	26.9951
-37.7912	489.859	27.0146
-37.78912	493.446	27.03418
-37.7881	493.165	27.0537
-37.7859	487.837	27.0732
-37.7843	491.812	27.0928
-37.7831	492.991	27.1123
-37.7811	488.902	27.1318
-37.7788	490.241	27.1514
-37.7778	494.054	27.1709
-37.7763	489.504	27.19043
-37.7747	489.416	27.21
-37.7735	492.658	27.2295
-37.771	489.558	27.249
-37.7684	489.463	27.2686
-37.76762	493.944	27.2881
-37.7663	492.919	27.3076
-37.76511	486.1236	27.3271
-37.7631	493.936	27.34668
-37.7614	491.487	27.3662
-37.7604	488.586	27.3857
-37.7586	491.111	27.4053
-37.7565	495.495	27.4248
-37.755	483.243	27.4443
-37.7522	491.969	27.4639
-37.7516	492.5314	27.4834
-37.75	488.049	27.50293
-37.7477	490.133	27.5225
-37.7471	496.5773	27.542
-37.7445	486.198	27.5615
-37.7432	489.51	27.5811
-37.7416	494.132	27.6006
-37.7406	492.2756	27.6201
-37.7392	488.733	27.6396
-37.7374	492.815	27.65918
-37.73465	488.182	27.6787
-37.7332	487.873	27.6982
-37.7329	491.975	27.7178
-37.7302	494.5723	27.7373
-37.7282	486.914	27.7568
-37.7267	490.502	27.7764
-37.7259	493.493	27.7959
-37.7244	487.04	27.81543
-37.7226	488.979	27.835
-37.7206	492.946	27.8545
-37.7202	490.438	27.874
-37.71772	487.924	27.8936
-37.7158	493.15	27.9131
-37.7148	488.494	27.9326
-37.7134	486.604	27.9521
-37.7114	493.506	27.97168
-37.7096	492.594	27.9912
-37.7088	486.294	28.0107
-37.7059	492.9122	28.0303
-37.7045	490.5386	28.0498
-37.703	488.271	28.0693
-37.7017	490.7438	28.0889
-37.7001	493.091	28.1084
-37.6996	484.472	28.12793
-37.696	489.863	28.1475
-37.6953	493.902	28.167
-37.6939	488.9093	28.1865
-37.6914	488.217	28.2061
-37.6905	493.6734	28.2256
-37.6894	486.69	28.2451
-37.686	487.942	28.2646
-37.6851	491.056	28.28418
-37.6838	491.624	28.3037
-37.6815	487.294	28.3232
-37.68045	491.062	28.3428
-37.6791	488.35	28.3623
-37.67717	485.036	28.3818
-37.675	488.825	28.4014
-37.6743	491.716	28.4209
-37.6727	487.705	28.44043
-37.6711	485.5	28.46
-37.6686	491.48	28.4795
-37.6673	488.036	28.499
-37.6653	486.727	28.5186
-37.6646	491.399	28.5381
-37.6618	491.5351	28.5576
-37.6618	485.816	28.5771
-37.6589	493.025	28.59668
-37.6587	488.973	28.6162
-37.6569	486.872	28.6357
-37.6535	489.9014	28.6553
-37.6531	493.406	28.6748
-37.65033	482.486	28.6943
-37.6497	489.1524	28.7139
-37.6482	490.747	28.7334
-37.6473	487.044	28.75293
-37.6438	488.182	28.7725
-37.64286	492.525	28.792
-37.6413	483.741	28.8115
-37.6394	488.476	28.8311
-37.6384	492.544	28.8506
-37.6356	488.725	28.8701
-37.6343	486.093	28.8896
-37.6336	491.599	28.90918
-37.6308	488.212	28.9287
-37.6296	487.265	28.9482
-37.629	488.2146	28.9678
-37.6264	491.334	28.9873
-37.625	486.065	29.0068
-37.6233	489.031	29.0264
-37.6216	490.118	29.0459
-37.6196	484.9787	29.06543
-37.6188	488.204	29.085
-37.617	491.417	29.1045
-37.61483	487.863	29.124
-37.6127	483.418	29.1436
-37.6112	492.077	29.1631
-37.6093	487.132	29.1826
-37.6096	485.846	29.2021
-37.6062	490.359	29.22168
-37.605	489.8866	29.2412
-37.604	481.958	29.2607
-37.6019	491.654	29.2803
-37.6002	490.694	29.2998
-37.5991	486.054	29.3193
-37.5966	487.609	29.3389
-37.5952	494.02	29.3584
-37.5941	482.038	29.37793
-37.5917	487.654	29.3975
-37.5902	490.819	29.417
-37.5895	488.098	29.4365
-37.5871	485.983	29.4561
-37.5852	490.953	29.4756
-37.5844	485.232	29.4951
-37.5827	485.474	29.5146
-37.5804	490.311	29.53418
-37.5791	490.29	29.5537
-37.5783	484.668	29.5732
-37.5765	487.713	29.5928
-37.5747	489.057	29.6123
-37.5731	484.205	29.6318
-37.5714	487.719	29.6514
-37.5695	489.463	29.6709
-37.5684	486.205	29.69043
-37.5662	485.983	29.71
-37.5651	490.397	29.7295
-37.5638	484.609	29.749
-37.5611	484.976	29.7686
-37.5597	489.619	29.7881
-37.5586	487.54	29.8076
-37.5574	480.365	29.8271
-37.555	489.36	29.84668
-37.552	488.0318	29.8662
-37.5518	484.284	29.8857
-37.5499	489.341	29.9053
-37.5479	490.0545	29.9248
-37.5474	480.796	29.9443
-37.5451	487.686	29.9639
-37.5437	489.944	29.9834
-37.5435	484.572	30.00293
-37.53965	486.242	30.0225
-37.5388	491.661	30.042
-37.5373	483.913	30.0615
-37.5358	484.885	30.0811
-37.5341	489.054	30.1006
-37.5319	485.572	30.1201
-37.5303	485.055	30.1396
-37.5284	487.564	30.15918
-37.52636	483.843	30.1787
-37.5261	483.652	30.1982
-37.5238	488.495	30.2178
-37.5229	489.9039	30.2373
-37.52187	485.3273	30.2568
-37.5196	485.637	30.2764
-37.5178	489.601	30.2959
-37.5163	484.45	30.31543
-37.514	485.157	30.335
-37.5129	489.95	30.3545
-37.5112	486.2049	30.374
-37.5101	482.284	30.3936
-37.5083	490.59	30.4131
-37.5065	485.639	30.4326
-37.5055	484.185	30.4521
-37.5027	489.161	30.47168
-37.5007	489.952	30.4912
-37.5001	480.093	30.5107
-37.4986	488.709	30.5303
-37.4963	488.2608	30.5498
-37.4945	484.149	30.5693
-37.4928	486.249	30.5889
-37.4908	491.614	30.6084
-37.4903	479.917	30.62793
-37.4897	486.129	30.6475
-37.4863	488.547	30.667
-37.48455	485.973	30.6865
-37.484	484.5134	30.7061
-37.4816	490.418	30.7256
-37.4797	484.951	30.7451
-37.4772	483.725	30.7646
-37.4771	487.553	30.78418
-37.4766	486.202	30.8037
-37.4739	482.445	30.8232
-37.472	486.199	30.8428
-37.46965	485.604	30.8623
-37.46899	482.376	30.8818
-37.467	484.8847	30.9014
-37.465	487.66	30.9209
-37.4637	485.134	30.94043
-37.463	481.943	30.96
-37.4609	488.103	30.9795
-37.4593	484.0209	30.999
-37.4577	483.656	31.0186
-37.4563	487.69	31.0381
-37.45372	485.9805	31.0576
-37.452	480.259	31.0771
-37.4506	488.644	31.09668
-37.4494	484.162	31.1162
-37.44762	481.5921	31.1357
-37.4455	487.7374	31.1553
-37.4429	489.028	31.1748
-37.4419	478.898	31.1943
-37.4407	487.211	31.2139
-37.4391	487.118	31.2334
-37.4373	483.4635	31.25293
-37.4356	483.9025	31.2725
-37.4342	489.509	31.292
-37.4334	480.5415	31.3115
-37.43119	482.893	31.3311
-37.42878	487.74	31.3506
-37.4283	486.022	31.3701
-37.4267	481.385	31.3896
-37.4242	486.465	31.40918
-37.4228	486.111	31.4287
-37.42189	482.466	31.4482
-37.42	485.416	31.4678
-37.417	486.976	31.4873
-37.417	482.21	31.5068
-37.4144	482.475	31.5264
-37.4136	486.049	31.5459
-37.4118	479.7417	31.56543
-37.4105	483.7973	31.585
-37.4086	488.59	31.6045
-37.4067	484.792	31.624
-37.4048	479.101	31.6436
-37.4039	487.805	31.6631
-37.4015	483.326	31.6826
-37.3993	482.399	31.7021
-37.3987	486.356	31.72168
-37.39719	485.27	31.7412
-37.3954	476.99	31.7607
-37.3928	487.817	31.7803
-37.3922	485.838	31.7998
-37.38966	481.086	31.8193
-37.3885	483.619	31.8389
-37.3867	487.696	31.8584
-37.38493	477.622	31.87793
-37.3839	483.133	31.8975
-37.3817	485.952	31.917
-37.3807	483.143	31.9365
-37.3791	481.726	31.9561
-37.3772	486.138	31.9756
-37.3768	480.9	31.9951
-37.3743	480.403	32.0146
-37.3723	485.523	32.03418
-37.3717	483.157	32.0537
-37.3684	479.728	32.0732
-37.3671	483.176	32.0928
-37.3659	484.587	32.1123
-37.3641	479.803	32.1318
-37.36245	482.208	32.1514
-37.3614	485.03	32.1709
-37.3595	480.75	32.19043
-37.3582	479.621	32.21
-37.3564	485.074	32.2295
-37.3548	479.964	32.249
-37.3535	478.7868	32.2686
-37.3511	485.94	32.2881
-37.3499	483.669	32.3076
-37.3476	475.603	32.3271
-37.3476	484.592	32.34668
-37.3442	480.831	32.3662
-37.3432	479.45	32.3857
-37.3404	483.3064	32.4053
-37.3401	482.8295	32.4248
-37.3378	475.178	32.4443
-37.3364	480.434	32.4639
-37.3344	483.7894	32.4834
-37.333	477.747	32.50293
-37.3307	478.507	32.5225
-37.3297	484.292	32.542
-37.3282	477.295	32.5615
-37.326	478.34	32.5811
-37.3255	480.729	32.6006
-37.3239	478.979	32.6201
-37.3216	479.0011	32.6396
-37.3201	479.9751	32.65918
-37.3181	478.816	32.6787
-37.31757	474.528	32.6982
-37.3157	479.218	32.7178
-37.3139	480.665	32.7373
-37.3126	476.192	32.7568
-37.3105	476.854	32.7764
-37.3097	480.265	32.7959
-37.3059	475.236	32.81543
-37.3069	475.14	32.835
-37.3036	479.396	32.8545
-37.3025	476.932	32.874
-37.3004	472.385	32.8936
-37.29932	480.46	32.9131
-37.298	475.261	32.9326
-37.2961	472.624	32.9521
-37.293	478.112	32.97168
-37.2936	476.074	32.9912
-37.2902	467.139	33.0107
-37.2894	476.37	33.0303
-37.2879	474.569	33.0498
-37.2865	470.778	33.0693
-37.2848	472.238	33.0889
-37.28334	474.031	33.1084
-37.2814	465.144	33.12793
-37.279	466.654	33.1475
-37.2778	468.524	33.167
-37.2768	462.068	33.1865
-37.2714	-141.878	33.2061
-37.2696	-23.14455	33.2256
-37.269	-53.3544	33.2451
-37.2701	-41.638	33.2646
-37.2673	-38.3189	33.28418
-37.2667	-41.7089	33.3037
-37.2646	-45.6116	33.3232
-37.2628	-41.3433	33.3428
-37.2604	-41.1678	33.3623
-37.2592	-45.7127	33.3818
-37.2576	-41.9159	33.4014
-37.2568	-38.9759	33.4209
-37.255	-43.8481	33.44043
-37.254	-45.7509	33.46
-37.252	-38.4464	33.4795
-37.2507	-42.9231	33.499
-37.2494	-44.35923	33.5186
-37.2468	-40.2423	33.5381
-37.2454	-41.8229	33.5576
-37.2435	-47.83564	33.5771
-37.2426	-37.2185	33.59668
-37.242	-41.12326	33.6162
-37.2391	-46.71579	33.6357
-37.2375	-40.46035	33.6553
-37.2356	-38.53162	33.6748
-37.2343	-48.4244	33.6943
-37.2327	-40.7931	33.7139
-37.2317	-39.3862	33.7334
-37.2295	-44.9453	33.75293
-37.2286	-42.1013	33.7725
-37.2266	-39.8307	33.792
-37.2248	-45.16272	33.8115
-37.2228	-43.3707	33.8311
-37.221	-38.9255	33.8506
-37.2202	-42.5136	33.8701
-37.2169	-44.8479	33.8896
-37.2174	-42.0199	33.90918
-37.2139	-41.3555	33.9287
-37.2137	-44.6209	33.9482
-37.21191	-41.0211	33.9678
-37.2095	-41.0578	33.9873
-37.20929	-43.6349	34.0068
-37.2062	-45.1535	34.0264
-37.2045	-39.4699	34.0459
-37.2038	-46.37994	34.06543
-37.2015	-44.4176	34.085
-37.1997	-39.2943	34.1045
-37.19849	-42.9041	34.124
-37.19611	-49.1845	34.1436
-37.195	-38.4482	34.1631
-37.1934	-42.7391	34.1826
-37.1915	-44.9706	34.2021
-37.1897	-40.2036	34.22168
-37.188	-40.7525	34.2412
-37.1863	-48.9096	34.2607
-37.1859	-41.41069	34.2803
-37.1832	-41.2205	34.2998
-37.18285	-46.4637	34.3193
-37.1801	-41.4166	34.3389
-37.1787	-38.2563	34.3584
-37.1766	-47.3068	34.37793
-37.17519	-43.4701	34.3975
-37.1743	-39.788	34.417
-37.171	-45.0464	34.4365
-37.1705	-43.2809	34.4561
-37.1688	-40.4889	34.4756
-37.1662	-44.5478	34.4951
-37.1655	-46.8602	34.5146
-37.1632	-38.74173	34.53418
-37.163	-41.0823	34.5537
-37.1611	-44.1746	34.5732
-37.1596	-42.2494	34.5928
-37.1575	-39.9858	34.6123
-37.1557	-46.0646	34.6318
-37.1548	-42.2682	34.6514
-37.15292	-39.7244	34.6709
-37.151	-43.2509	34.69043
-37.1498	-46.5315	34.71
-37.1484	-38.4737	34.7295
-37.1455	-44.4342	34.749
-37.1451	-43.2818	34.7686
-37.14299	-39.27029	34.7881
-37.1407	-40.8155	34.8076
-37.1396	-49.2202	34.8271
-37.13903	-39.6274	34.84668
-37.1366	-41.8463	34.8662
-37.1348	-44.5349	34.8857
-37.1325	-40.94558	34.9053
-37.13208	-40.2893	34.9248
-37.1306	-48.5837	34.9443
-37.1283	-41.4833	34.9639
-37.1272	-40.5629	34.9834
-37.125	-43.7231	35.00293
-37.1226	-44.7364	35.0225
-37.1228	-39.4373	35.042
-37.1204	-45.7623	35.0615
-37.1192	-44.8558	35.0811
-37.1167	-41.9421	35.1006
-37.1155	-44.5634	35.1201
-37.1128	-43.5424	35.1396
-37.1125	-40.3653	35.15918
-37.1102	-43.2932	35.1787
-37.109	-46.2228	35.1982
-37.1066	-40.5029	35.2178
-37.1047	-40.0258	35.2373
-37.1043	-43.1555	35.2568
-37.1033	-45.1714	35.2764
-37.1005	-37.7173	35.2959
-37.0989	-46.1868	35.31543
-37.0973	-43.1759	35.335
-37.0951	-41.12933	35.3545
-37.0945	-43.485	35.374
-37.0923	-47.98418	35.3936
-37.0903	-37.7069	35.4131
-37.0892	-41.9803	35.4326
-37.08762	-45.2142	35.4521
-37.0863	-40.1526	35.47168
-37.0844	-39.11187	35.4912
-37.0844	-48.6154	35.5107
-37.0815	-40.9657	35.5303
-37.0805	-41.3762	35.5498
-37.0789	-44.6675	35.5693
-37.07613	-41.8788	35.5889
-37.0738	-38.3454	35.6084
-37.073	-47.7917	35.62793
-37.0708	-42.6871	35.6475
-37.0692	-39.3923	35.667
-37.06831	-44.1885	35.6865
-37.0662	-43.8193	35.7061
-37.0642	-41.073	35.7256
-37.0621	-43.7481	35.7451
-37.0609	-45.2856	35.7646
-37.0612	-42.4353	35.78418
-37.0583	-43.2117	35.8037
-37.05727	-44.3596	35.8232
-37.0555	-43.8774	35.8428
-37.0527	-39.0188	35.8623
-37.05188	-45.82563	35.8818
-37.0497	-42.7109	35.9014
-37.0497	-38.3969	35.9209
-37.0463	-44.4727	35.94043
-37.0444	-46.6206	35.96
-37.0437	-37.9854	35.9795
-37.0433	-44.2334	35.999
-37.0405	-44.1806	36.0186
-37.0393	-40.589	36.0381
-37.0373	-41.8951	36.0576
-37.0359	-46.5027	36.0771
-37.0343	-37.0177	36.09668
-37.0319	-40.3465	36.1162
-37.03	-45.2416	36.1357
-37.0295	-40.3135	36.1553
-37.0269	-39.9513	36.1748
-37.0248	-45.8962	36.1943
-37.0246	-41.4113	36.2139
-37.0227	-40.2592	36.2334
-37.0213	-44.0106	36.25293
-37.0194	-41.6236	36.2725
-37.0175	-40.5893	36.292
-37.0156	-47.6387	36.3115
-37.0152	-44.5725	36.3311
-37.0121	-40.0171	36.3506
-37.0109	-43.1018	36.3701
-37.0103	-43.7844	36.3896
-37.0074	-41.3546	36.40918
-37.0068	-42.4327	36.4287
-37.0046	-46.05064	36.4482
-37.0035	-40.8434	36.4678
-37.0014	-41.0577	36.4873
-36.99992	-44.0566	36.5068
-36.9966	-44.8209	36.5264
-36.9969	-38.2931	36.5459
-36.99361	-45.0064	36.56543
-36.9923	-43.1684	36.585
-36.9911	-37.8829	36.6045
-36.9898	-41.0401	36.624
-36.9873	-48.2058	36.6436
-36.9859	-37.4906	36.6631
-36.9854	-43.8247	36.6826
-36.9843	-44.42371	36.7021
-36.98177	-40.5185	36.72168
-36.9797	-41.1954	36.7412
-36.9791	-48.7398	36.7607
-36.9769	-39.8831	36.7803
-36.97493	-40.4754	36.7998
-36.9731	-46.5461	36.8193
-36.9727	-42.83313	36.8389
-36.9703	-39.3595	36.8584
-36.9687	-47.4378	36.87793
-36.9675	-42.80352	36.8975
-36.9657	-39.83577	36.917
-36.96373	-44.3567	36.9365
-36.9627	-44.0849	36.9561
-36.9604	-40.6222	36.9756
-36.9587	-44.2196	36.9951
-36.9576	-46.55249	37.0146
-36.9558	-39.5472	37.03418
-36.9543	-40.9786	37.0537
-36.9526	-43.9658	37.0732
-36.95034	-44.0166	37.0928
-36.9491	-38.86805	37.1123
-36.9475	-45.8286	37.1318
-36.9471	-42.25956	37.1514
-36.9443	-39.6487	37.1709
-36.9434	-43.9713	37.19043
-36.9412	-47.2621	37.21
-36.938	-38.1477	37.2295
-36.9377	-45.1456	37.249
-36.9361	-44.7764	37.2686
-36.934	-40.1209	37.2881
-36.9328	-40.752	37.3076
-36.9316	-47.8457	37.3271
-36.9296	-39.9446	37.34668
-36.9281	-43.4047	37.3662
-36.9262	-45.4677	37.3857
-36.9243	-41.7443	37.4053
-36.9243	-41.1258	37.4248
-36.9212	-48.3755	37.4443
-36.9195	-40.90234	37.4639
-36.9179	-39.7457	37.4834
-36.917	-45.12117	37.50293
-36.9148	-41.4339	37.5225
-36.9136	-40.9728	37.542