File: data/processed_data_files/tensile/0.254_solid_uprint_typei_4545_r(3).dat
MTS793|BTW|ENU|1|2|.|/|:|1|0|0|A

Data Header:			0.254_solid_uprint_typei_4545_r0			Time:	20.0173	s	4/14/2019 4:23:10 AM
Data Acquisition:	Timed
Station Name:	ft40.cfg
Test File Name:	monotonic_0.2540_typei_solid_4545_uprint.tst
Displacement	Force	Running Time
mm	N	s
9.95707	-134.261	0.0224609
9.95616	-129.63	0.0419922
9.9563	-141.324	0.0615234
9.95753	-134.434	0.0810547
9.95822	-126.534	0.100586
9.95916	-134.994	0.120117
9.96316	-137.87	0.139648
9.96372	-122.4855	0.15918
9.9654	-131.713	0.178711
9.967205	-133.439	0.198242
9.96862	-119.872	0.217773
9.97067	-123.528	0.237305
9.9721	-135.551	0.256836
9.97352	-122.99	0.276367
9.97498	-120.954	0.295898
9.9774	-129.9343	0.31543
9.97776	-120.661	0.334961
9.97983	-117.785	0.354492
9.98154	-128.239	0.374023
9.98273	-121.81	0.393555
9.98516	-109.903	0.413086
9.986455	-121.1539	0.432617
9.98789	-122.678	0.452148
9.98956	-112.212	0.47168
9.99263	-113.504	0.491211
9.99344	-120.007	0.510742
9.99498	-107.857	0.530273
9.995759	-111.07	0.549805
9.99743	-117.357	0.569336
9.99885	-109.999	0.588867
10.0007	-104.338	0.608398
10.0029	-115.289	0.62793
10.0043	-106.812	0.647461
10.0068	-98.7449	0.666992
10.0079	-110.0914	0.686523
10.0094	-111.877	0.706055
10.0109	-95.4996	0.725586
10.0119	-106.576	0.745117
10.0141	-105.514	0.764648
10.0165	-95.1199	0.78418
10.01677	-102.468	0.803711
10.0181	-107.489	0.823242
10.02002	-90.8285	0.842773
10.0217	-94.8953	0.862305
10.0252	-103.61	0.881836
10.0252	-92.92926	0.901367
10.0275	-88.7659	0.920898
10.0283	-103.338	0.94043
10.0301	-93.5723	0.959961
10.0315	-86.0327	0.979492
10.0332	-97.3921	0.999023
10.0352	-89.9671	1.01855
10.0357	-83.5014	1.03809
10.0387	-92.9184	1.05762
10.0409	-91.2919	1.07715
10.0417	-78.2344	1.09668
10.0432	-86.9574	1.11621
10.04519	-89.3388	1.13574
10.0474	-80.5937	1.15527
10.0479	-78.9861	1.1748
10.0494	-88.55191	1.19434
10.05206	-77.1301	1.21387
10.0535	-74.3432	1.2334
10.0548	-82.5829	1.25293
10.0557	-79.0022	1.27246
10.0579	-67.5728	1.29199
10.0597	-82.4006	1.31152
10.0617	-76.4654	1.33105
10.0629	-64.3892	1.35059
10.0643	-74.7312	1.37012
10.066	-79.2244	1.38965
10.0671	-61.8779	1.40918
10.0696	-68.965	1.42871
10.071	-74.3278	1.44824
10.0721	-61.8625	1.46777
10.0737	-64.4424	1.4873
10.0764	-74.0368	1.50684
10.0778	-59.6596	1.52637
10.0784	-58.1325	1.5459
10.0805	-70.2438	1.56543
10.0827	-58.9566	1.58496
10.0835	-56.2098	1.60449
10.0858	-65.8283	1.62402
10.08699	-60.4628	1.64355
10.0887	-49.7474	1.66309
10.09059	-60.9367	1.68262
10.0925	-58.2893	1.70215
10.0927	-50.6697	1.72168
10.0947	-55.89735	1.74121
10.098	-59.3381	1.76074
10.0995	-45.3056	1.78027
10.1008	-46.9128	1.7998
10.1019	-56.19191	1.81934
10.1042	-50.5005	1.83887
10.105	-42.18589	1.8584
10.1074	-53.4181	1.87793
10.108	-43.5573	1.89746
10.1112	-37.5797	1.91699
10.1123	-47.7756	1.93652
10.1139	-47.585	1.95605
10.1146	-32.40239	1.97559
10.1158	-46.2597	1.99512
10.1189	-44.125	2.01465
10.11994	-30.1317	2.03418
10.1218	-36.9297	2.05371
10.1231	-46.5187	2.07324
10.1243	-29.5248	2.09277
10.1262	-31.6882	2.1123
10.129	-39.4938	2.13184
10.1292	-29.32198	2.15137
10.1308	-30.2403	2.1709
10.1333	-37.928	2.19043
10.1336	-27.9821	2.20996
10.1353	-20.1859	2.22949
10.1373	-33.69101	2.24902
10.1394	-27.9161	2.26855
10.1409	-18.6867	2.28809
10.1424	-27.9992	2.30762
10.1432	-27.6682	2.32715
10.1472	-16.1835	2.34668
10.1469	-22.1759	2.36621
10.1495	-23.8095	2.38574
10.1495	-17.7874	2.40527
10.1525	-15.0285	2.4248
10.154	-25.6825	2.44434
10.1567	-12.5969	2.46387
10.1561	-11.20276	2.4834
10.1587	-21.603	2.50293
10.1608	-16.0226	2.52246
10.16278	-4.06637	2.54199
10.163	-17.6593	2.56152
10.1647	-13.25773	2.58105
10.1673	-4.01939	2.60059
10.16855	-11.5414	2.62012
10.1706	-13.3883	2.63965
10.1717	1.77766	2.65918
10.1741	-5.9916	2.67871
10.17474	-12.5823	2.69824
10.1765	2.308161	2.71777
10.1786	0.423457	2.7373
10.1795	-11.5298	2.75684
10.182	0.962468	2.77637
10.1837	6.834662	2.7959
10.1848	-5.27539	2.81543
10.1868	4.61332	2.83496
10.18763	6.720737	2.85449
10.189	-1.68895	2.87402
10.1914	4.380147	2.89355
10.1927	16.0166	2.91309
10.1942	3.96	2.93262
10.1962	4.02954	2.95215
10.1982	14.6591	2.97168
10.1995	12.5265	2.99121
10.2011	5.45936	3.01074
10.2014	18.4714	3.03027
10.2053	16.4441	3.0498
10.2068	9.90108	3.06934
10.2079	16.7712	3.08887
10.2082	23.3867	3.1084
10.2108	10.3973	3.12793
10.2114	20.3644	3.14746
10.2136	27.2523	3.16699
10.216	16.5628	3.18652
10.2165	15.5036	3.20605
10.2183	31.6007	3.22559
10.2195	22.3816	3.24512
10.221	21.7811	3.26465
10.2227	33.4768	3.28418
10.2255	28.368	3.30371
10.2272	20.5972	3.32324
10.2281	35.6989	3.34277
10.2296	31.9451	3.3623
10.2327	23.81	3.38184
10.2338	36.6139	3.40137
10.2352	39.05101	3.4209
10.2374	25.585	3.44043
10.2383	35.4351	3.45996
10.2409	42.7275	3.47949
10.2414	33.6931	3.49902
10.2432	37.9834	3.51855
10.2439	43.8996	3.53809
10.24645	36.1599	3.55762
10.2479	37.0674	3.57715
10.24968	51.8692	3.59668
10.2514	41.3041	3.61621
10.25246	38.4081	3.63574
10.2543	48.6575	3.65527
10.25549	51.1977	3.6748
10.2586	40.7764	3.69434
10.259	52.24334	3.71387
10.2602	54.1368	3.7334
10.2623	45.7249	3.75293
10.2642	48.853	3.77246
10.2661	60.5831	3.79199
10.2663	48.5039	3.81152
10.2706	53.4585	3.83105
10.27	65.2696	3.85059
10.2727	55.6023	3.87012
10.2737	50.5758	3.88965
10.2751	66.6254	3.90918
10.2763	60.2322	3.92871
10.2785	55.4845	3.94824
10.28	67.2501	3.96777
10.2823	64.5213	3.9873
10.2831	54.581	4.00684
10.2848	69.4958	4.02637
10.2864	70.2645	4.0459
10.2891	59.7442	4.06543
10.2905	70.26799	4.08496
10.2925	73.274	4.10449
10.2925	63.8354	4.12402
10.2949	68.5546	4.14355
10.2972	80.9813	4.16309
10.298	69.4968	4.18262
10.2993	71.0833	4.20215
10.3015	78.9298	4.22168
10.3035	74.2829	4.24121
10.3048	69.89286	4.26074
10.3055	85.0118	4.28027
10.3077	83.1434	4.2998
10.3096	73.69339	4.31934
10.3114	80.6809	4.33887
10.3129	89.8148	4.3584
10.31422	76.5849	4.37793
10.3163	84.9484	4.39746
10.318	93.2467	4.41699
10.3195	82.8526	4.43652
10.3212	82.9394	4.45605
10.3221	97.7886	4.47559
10.324	86.3261	4.49512
10.3257	87.0112	4.51465
10.327	101.392	4.53418
10.3297	92.7331	4.55371
10.3298	84.1754	4.57324
10.3331	102.3155	4.59277
10.3334	99.3978	4.6123
10.3362	91.0437	4.63184
10.3371	102.4211	4.65137
10.3381	102.118	4.6709
10.3398	91.00206	4.69043
10.3416	103.631	4.70996
10.3431	108.598	4.72949
10.3453	97.0598	4.74902
10.3473	103.746	4.76855
10.34834	111.817	4.78809
10.3497	102.662	4.80762
10.3517	102.507	4.82715
10.3532	115.308	4.84668
10.3544	109.338	4.86621
10.3576	106.145	4.88574
10.3575	114.189	4.90527
10.3601	115.501	4.9248
10.3616	104.067	4.94434
10.3624	118.952	4.96387
10.3656	121.614	4.9834
10.3672	111.374	5.00293
10.367	114.797	5.02246
10.3696	128.489	5.04199
10.3712	115.417	5.06152
10.3734	118.87	5.08105
10.3751	128.201	5.10059
10.3763	121.6142	5.12012
10.3782	117.6468	5.13965
10.3794	133.238	5.15918
10.3813	123.823	5.17871
10.3831	120.407	5.19824
10.3843	134.458	5.21777
10.38673	131.882	5.2373
10.3879	120.272	5.25684
10.3895	132.493	5.27637
10.3914	137.7011	5.2959
10.3917	127.438	5.31543
10.3934	136.233	5.33496
10.3954	139.7803	5.35449
10.39783	130.443	5.37402
10.399	137.374	5.39355
10.4011	147.682	5.41309
10.4021	134.409	5.43262
10.4039	136.396	5.45215
10.4057	147.144	5.47168
10.408	143.642	5.49121
10.409	136.581	5.51074
10.41047	150.101	5.53027
10.4121	150.371	5.5498
10.4141	143.97	5.56934
10.4155	148.238	5.58887
10.4169	154.973	5.6084
10.4184	141.754	5.62793
10.4201	151.202	5.64746
10.4219	159.606	5.66699
10.423	148.067	5.68652
10.4242	148.22	5.70605
10.4273	162.985	5.72559
10.4283	153.5762	5.74512
10.4297	152.17	5.76465
10.4314	164.844	5.78418
10.433	159.047	5.80371
10.4359	152.641	5.82324
10.4374	167.116	5.84277
10.4381	162.998	5.8623
10.439	155.948	5.88184
10.4412	168.945	5.90137
10.44345	169.455	5.9209
10.4444	157.283	5.94043
10.447	167.263	5.95996
10.448	175.395	5.97949
10.4491	164.696	5.99902
10.4522	170.103	6.01855
10.4535	174.914	6.03809
10.4551	169.52	6.05762
10.4559	168.934	6.07715
10.4576	182.737	6.09668
10.459	174.58	6.11621
10.4607	171.593	6.13574
10.4626	182.201	6.15527
10.46357	184.495	6.1748
10.4658	172.091	6.19434
10.4693	183.5359	6.21387
10.4687	186.467	6.2334
10.4705	177.112	6.25293
10.4726	180.464	6.27246
10.4747	192.639	6.29199
10.4758	179.381	6.31152
10.4777	185.487	6.33105
10.47833	194.528	6.35059
10.4811	187.009	6.37012
10.48199	180.903	6.38965
10.4839	199.564	6.40918
10.4852	193.263	6.42871
10.4867	187.7764	6.44824
10.4883	199.992	6.46777
10.4911	197.062	6.4873
10.492	187.691	6.50684
10.49401	202.495	6.52637
10.4948	202.831	6.5459
10.4964	190.53	6.56543
10.4984	201.846	6.58496
10.5	206.899	6.60449
10.5013	195.706	6.62402
10.50299	198.784	6.64355
10.50501	212.342	6.66309
10.507	203.028	6.68262
10.5088	203.31	6.70215
10.5102	211.553	6.72168
10.5116	206.986	6.74121
10.5141	202.818	6.76074
10.5144	217.314	6.78027
10.51611	214.359	6.7998
10.5187	206.196	6.81934
10.5196	214.117	6.83887
10.52059	223.363	6.8584
10.5234	208.818	6.87793
10.52462	217.041	6.89746
10.5267	224.4745	6.91699
10.5279	214.666	6.93652
10.53	214.6295	6.95605
10.5308	229.324	6.97559
10.5332	218.315	6.99512
10.53427	217.725	7.01465
10.5358	232.837	7.03418
10.5369	225.542	7.05371
10.539	217.195	7.07324
10.5404	233.792	7.09277
10.5423	231.941	7.1123
10.5437	222.063	7.13184
10.545	234.1805	7.15137
10.5474	234.421	7.1709
10.5488	225.019	7.19043
10.5504	235.773	7.20996
10.5518	239.9711	7.22949
10.5539	229.607	7.24902
10.5556	236.414	7.26855
10.5569	243.454	7.28809
10.5582	236.326	7.30762
10.5602	234.429	7.32715
10.5624	247.73	7.34668
10.5631	243.051	7.36621
10.56507	238.066	7.38574
10.5674	246.575	7.40527
10.5686	247.315	7.4248
10.57111	238.447	7.44434
10.572	249.978	7.46387
10.5741	253.501	7.4834
10.5751	243.705	7.50293
10.5762	245.511	7.52246
10.5782	259.508	7.54199
10.5794	247.235	7.56152
10.58281	249.197	7.58105
10.5836	260.292	7.60059
10.5851	253.314	7.62012
10.5869	250.054	7.63965
10.5881	264.158	7.65918
10.5904	257.615	7.67871
10.592	253.674	7.69824
10.5938	267.115	7.71777
10.5942	264.117	7.7373
10.5961	252.525	7.75684
10.597	267.006	7.77637
10.5997	270.631	7.7959
10.6003	260.058	7.81543
10.603	266.9826	7.83496
10.6048	271.011	7.85449
10.606	260.357	7.87402
10.6071	267.317	7.89355
10.6087	279.071	7.91309
10.6112	267.687	7.93262
10.6124	269.085	7.95215
10.6138	278.315	7.97168
10.6153	276.801	7.99121
10.6169	267.981	8.01074
10.6181	281.325	8.03027
10.6215	279.86	8.0498
10.62194	274.21	8.06934
10.62329	279.253	8.08887
10.6254	286.093	8.1084
10.6267	274.9129	8.12793
10.6291	286.186	8.14746
10.6297	290.425	8.16699
10.6315	279.928	8.18652
10.6324	280.068	8.20605
10.6354	296.402	8.22559
10.6369	285.1	8.24512
10.6377	285.134	8.26465
10.6409	297.148	8.28418
10.642	289.851	8.30371
10.6435	282.87	8.32324
10.645	297.901	8.34277
10.6467	293.773	8.3623
10.6485	287.084	8.38184
10.6492	300.68	8.40137
10.65101	301.23	8.4209
10.654	289.367	8.44043
10.65377	297.2	8.45996
10.6569	307.46	8.47949
10.6596	295.4393	8.49902
10.6599	300.738	8.51855
10.6609	307.055	8.53809
10.663	300.146	8.55762
10.6646	300.553	8.57715
10.666	314.502	8.59668
10.66786	306.989	8.61621
10.66933	301.587	8.63574
10.67121	310.8652	8.65527
10.6723	314.005	8.6748
10.6747	302.89	8.69434
10.6744	315.79	8.71387
10.67705	317.955	8.7334
10.68001	309.486	8.75293
10.68	312.067	8.77246
10.6821	323.148	8.79199
10.683	311.448	8.81152
10.685	314.518	8.83105
10.6875	328.369	8.85059
10.6886	316.36	8.87012
10.6905	311.795	8.88965
10.6912	330.438	8.90918
10.6942	322.975	8.92871
10.6949	315.783	8.94824
10.6971	329.908	8.96777
10.6989	326.249	8.9873
10.69992	316.694	9.00684
10.7024	332.505	9.02637
10.7025	335.467	9.0459
10.7048	321.755	9.06543
10.7065	332.602	9.08496
10.7078	336.947	9.10449
10.7095	326.603	9.12402
10.71089	329.316	9.14355
10.7132	342.332	9.16309
10.7151	333.443	9.18262
10.7162	332.346	9.20215
10.71813	341.429	9.22168
10.7192	338.38	9.24121
10.7212	331.981	9.26074
10.7234	347.666	9.28027
10.7253	345.751	9.2998
10.7262	334.704	9.31934
10.7257	342.359	9.33887
10.7292	352.382	9.3584
10.7314	339.168	9.37793
10.7324	345.622	9.39746
10.7346	356.3811	9.41699
10.736	345.915	9.43652
10.7379	343.932	9.45605
10.7388	359.833	9.47559
10.7419	347.618	9.49512
10.7415	345.833	9.51465
10.7446	363.838	9.53418
10.7457	355.287	9.55371
10.74725	344.502	9.57324
10.7496	362.298	9.59277
10.7515	362.596	9.6123
10.7523	350.725	9.63184
10.7539	362.208	9.65137
10.7564	365.855	9.6709
10.7582	352.037	9.69043
10.759	362.59	9.70996
10.7609	372.35	9.72949
10.762	357.961	9.74902
10.7643	361.559	9.76855
10.765	374.674	9.78809
10.7671	365.431	9.80762
10.7678	360.643	9.82715
10.7708	376.683	9.84668
10.7723	370.081	9.86621
10.774	366.18	9.88574
10.7756	374.701	9.90527
10.7762	378.624	9.9248
10.7795	365.278	9.94434
10.78037	380.008	9.96387
10.7818	384.076	9.9834
10.783	369.044	10.00293
10.7854	373.1933	10.0225
10.7864	389.418	10.042
10.7876	373.856	10.0615
10.7897	376.841	10.0811
10.79125	390.01	10.1006
10.7934	382.384	10.1201
10.7952	376.576	10.1396
10.7961	394.69	10.15918
10.7978	385.245	10.1787
10.7988	378.817	10.1982
10.8022	394.086	10.2178
10.8023	392.652	10.2373
10.8038	378.171	10.2568
10.8056	393.505	10.2764
10.8079	400.818	10.2959
10.8092	384.585	10.31543
10.811	395.026	10.335
10.8125	399.86	10.3545
10.81502	389.227	10.374
10.8154	391.782	10.3936
10.8174	408.659	10.4131
10.8187	396.576	10.4326
10.8192	394.4249	10.4521
10.82303	406.834	10.47168
10.8241	403.792	10.4912
10.8256	391.9053	10.5107
10.8279	409.1698	10.5303
10.8284	408.238	10.5498
10.8299	398.77	10.5693
10.833	406.285	10.5889
10.8334	415.521	10.6084
10.8354	398.867	10.62793
10.8363	408.511	10.6475
10.8381	419.948	10.667
10.8399	407.0191	10.6865
10.8416	404.076	10.7061
10.8426	423.608	10.7256
10.8454	412.063	10.7451
10.8471	409.039	10.7646
10.8487	422.891	10.78418
10.8495	418.512	10.8037
10.8514	408.89	10.8232
10.853	424.632	10.8428
10.8548	424	10.8623
10.8564	412.714	10.8818
10.8579	428.057	10.9014
10.86	429.768	10.9209
10.8612	414.341	10.94043
10.8626	423.041	10.96
10.865	435.844	10.9795
10.866	420.701	10.999
10.8674	424.257	11.0186
10.86929	434.881	11.0381
10.8712	427.633	11.0576
10.8725	423.644	11.0771
10.8739	442.122	11.09668
10.8765	432.4256	11.1162
10.879	425.064	11.1357
10.8803	438.228	11.1553
10.8813	443.096	11.1748
10.88264	425.558	11.1943
10.884	440.8725	11.2139
10.8858	446.134	11.2334
10.886	433.984	11.25293
10.8895	438.026	11.2725
10.8911	450.131	11.292
10.8919	435.099	11.3115
10.8955	439.543	11.3311
10.896	455.365	11.3506
10.8972	442.158	11.3701
10.8989	435.187	11.3896
10.9003	455.743	11.40918
10.9028	448.966	11.4287
10.904	440.631	11.4482
10.9062	456.227	11.4678
10.9067	453.52	11.4873
10.9085	439.733	11.5068
10.9103	457.036	11.5264
10.9121	460.502	11.5459
10.9138	447.094	11.56543
10.9152	456.11	11.585
10.9168	465.384	11.6045
10.9178	450.25	11.624
10.9201	452.975	11.6436
10.9221	469.571	11.6631
10.9231	458.087	11.6826
10.9246	454.926	11.7021
10.92699	465.947	11.72168
10.9273	464.483	11.7412
10.9294	454.186	11.7607
10.9316	472.7	11.7803
10.9327	471.026	11.7998
10.9342	458.938	11.8193
10.9366	468.824	11.8389
10.9384	477.966	11.8584
10.9397	461.492	11.87793
10.9408	469.9599	11.8975
10.9426	481.621	11.917
10.9441	468.796	11.9365
10.94632	467.485	11.9561
10.9479	483.89	11.9756
10.9494	471.189	11.9951
10.9509	470.46	12.0146
10.9527	486.926	12.03418
10.9544	480.656	12.0537
10.9561	466.563	12.0732
10.9576	486.597	12.0928
10.9591	487.17	12.1123
10.9605	473.431	12.1318
10.9633	486.267	12.1514
10.9642	490.243	12.1709
10.9649	476.014	12.19043
10.9676	488.247	12.21
10.9688	495.522	12.2295
10.9712	481.023	12.249
10.9721	486.658	12.2686
10.9729	499.252	12.2881
10.975	487.857	12.3076
10.97753	483.73	12.3271
10.9795	501.279	12.34668
10.9802	495.035	12.3662
10.9817	487.818	12.3857
10.9838	497.504	12.4053
10.985	502.052	12.4248
10.9869	487.396	12.4443
10.9901	502.583	12.4639
10.99	508.0036	12.4834
10.9917	493.831	12.50293
10.9932	497.708	12.5225
10.9956	514.232	12.542
10.99651	497.236	12.5615
10.998	498.532	12.5811
11.0004	514.842	12.6006
11.0018	504.645	12.6201
11.002	496.783	12.6396
11.0048	517.251	12.65918
11.0065	508.181	12.6787
11.0069	500.695	12.6982
11.01	518.211	12.7178
11.0113	515.771	12.7373
11.0124	499.553	12.7568
11.0145	516.739	12.7764
11.0169	523.142	12.7959
11.0178	506.594	12.81543
11.0187	516.434	12.835
11.0213	523.004	12.8545
11.0232	511.718	12.874
11.0247	516.098	12.8936
11.026	530.431	12.9131
11.0275	516.168	12.9326
11.0297	517.002	12.9521
11.0316	529.422	12.97168
11.0325	524.854	12.9912
11.0341	514.435	13.0107
11.0365	530.767	13.0303
11.038	531.067	13.0498
11.0376	519.806	13.0693
11.0408	526.136	13.0889
11.0423	537.23	13.1084
11.045	520.82	13.12793
11.04545	529.375	13.1475
11.0469	541.676	13.167
11.0483	526.04	13.1865
11.0505	524.284	13.2061
11.0522	544.181	13.2256
11.053	533.102	13.2451
11.0555	528.931	13.2646
11.0572	545.731	13.28418
11.0586	539.742	13.3037
11.0593	526.6485	13.3232
11.0613	546.508	13.3428
11.0634	545.162	13.3623
11.0652	531.4707	13.3818
11.067	547.394	13.4014
11.069	549.819	13.4209
11.0691	532.119	13.44043
11.0714	543.734	13.46
11.0728	555.177	13.4795
11.0734	541.763	13.499
11.0758	545.727	13.5186
11.0782	554.524	13.5381
11.0805	546.9339	13.5576
11.0812	544.839	13.5771
11.0823	562.131	13.59668
11.0843	553.752	13.6162
11.0856	545.535	13.6357
11.087	556.582	13.6553
11.0906	561.564	13.6748
11.0911	546.36	13.6943
11.093	560.6308	13.7139
11.0946	565.128	13.7334
11.0959	550.9	13.75293
11.0982	556.274	13.7725
11.0996	571.019	13.792
11.1009	554.527	13.8115
11.1023	559.222	13.8311
11.1043	574.584	13.8506
11.1059	561.245	13.8701
11.1081	554.961	13.8896
11.1109	577.093	13.90918
11.1111	568.028	13.9287
11.1129	560.281	13.9482
11.1143	575.798	13.9678
11.1164	573.363	13.9873
11.1175	560.2998	14.0068
11.1193	575.306	14.0264
11.121	579.655	14.0459
11.1227	563.488	14.06543
11.1239	575.755	14.085
11.1252	581.911	14.1045
11.1266	569.318	14.124
11.12852	570.605	14.1436
11.1309	587.631	14.1631
11.1323	575.814	14.1826
11.1342	572.645	14.2021
11.135	584.694	14.22168
11.137	584.17	14.2412
11.1381	571.985	14.2607
11.1382	588.817	14.2803
11.1406	588.75	14.2998
11.1427	574.815	14.3193
11.145	584.891	14.3389
11.146	595.382	14.3584
11.1478	578.917	14.37793
11.1507	586.535	14.3975
11.1509	598.912	14.417
11.1533	584.4967	14.4365
11.155	584.087	14.4561
11.1564	601.308	14.4756
11.1576	588.339	14.4951
11.1596	585.125	14.5146
11.1603	602.562	14.53418
11.1629	596.8587	14.5537
11.16429	584.238	14.5732
11.1654	603.0069	14.5928
11.1676	602.75	14.6123
11.1686	588.661	14.6318
11.1711	601.819	14.6514
11.173	606.28	14.6709
11.1744	592.166	14.69043
11.17569	602.564	14.71
11.1778	612.404	14.7295
11.1793	596.349	14.749
11.1809	602.351	14.7686
11.1815	611.795	14.7881
11.18434	603.44	14.8076
11.1857	599.327	14.8271
11.18723	618.812	14.84668
11.1891	612.065	14.8662
11.1902	602.969	14.8857
11.1923	612.375	14.9053
11.1933	617.3233	14.9248
11.1957	602.727	14.9443
11.1972	619.643	14.9639
11.1984	622.506	14.9834
11.2005	606.782	15.00293
11.201	612.447	15.0225
11.2034	628.647	15.042
11.2054	612.531	15.0615
11.2057	613.327	15.0811
11.2085	630.126	15.1006
11.2104	619.347	15.1201
11.2111	612.196	15.1396
11.2126	631.89	15.15918
11.2142	622.4	15.1787
11.2162	617.105	15.1982
11.2178	633.388	15.2178
11.21998	630.28	15.2373
11.221	615.152	15.2568
11.2239	630.87	15.2764
11.2242	636.505	15.2959
11.2254	621.305	15.31543
11.2273	629.341	15.335
11.2292	638.181	15.3545
11.2331	624.852	15.374
11.233	630.417	15.3936
11.2327	645.143	15.4131
11.2368	631.528	15.4326
11.2385	629.205	15.4521
11.2385	642.561	15.47168
11.2404	638.832	15.4912
11.2431	627.949	15.5107
11.2453	645.156	15.5303
11.24528	644.019	15.5498
11.2471	632.8988	15.5693
11.2486	640.287	15.5889
11.2516	649.811	15.6084
11.2519	634.032	15.62793
11.2535	644.646	15.6475
11.2552	655.445	15.667
11.2579	640.87	15.6865
11.25978	638.216	15.7061
11.2605	658.942	15.7256
11.2625	646.054	15.7451
11.264	644.629	15.7646
11.2649	659.331	15.78418
11.2671	651.321	15.8037
11.2692	641.24	15.8232
11.2702	659.5274	15.8428
11.2713	658.284	15.8623
11.27355	643.26	15.8818
11.2747	660.156	15.9014
11.2762	664.197	15.9209
11.2786	647.108	15.94043
11.28001	656.624	15.96
11.2817	668.632	15.9795
11.2838	654.605	15.999
11.2848	657.317	16.0186
11.2864	667.234	16.0381
11.2877	660.057	16.0576
11.2901	655.89	16.0771
11.2911	673.437	16.09668
11.294	665.625	16.1162
11.2956	656.104	16.1357
11.2962	670.214	16.1553
11.2979	672.651	16.1748
11.2997	657.644	16.1943
11.3004	671.946	16.2139
11.3023	677.186	16.2334
11.304	663.7973	16.25293
11.3062	666.423	16.2725
11.3085	681.712	16.292
11.309	665.144	16.3115
11.3099	672.141	16.3311
11.3138	685.519	16.3506
11.3145	671.995	16.3701
11.315	666.373	16.3896
11.3171	688.65	16.40918
11.32	678.816	16.4287
11.3199	669.948	16.4482
11.3218	685.062	16.4678
11.3237	684.71	16.4873
11.32551	670.286	16.5068
11.3271	684.141	16.5264
11.3295	690.351	16.5459
11.3319	675.203	16.56543
11.33215	686.512	16.585
11.3341	694.788	16.6045
11.335	678.834	16.624
11.3366	682.321	16.6436
11.3381	696.449	16.6631
11.3401	686.902	16.6826
11.3421	684.653	16.7021
11.3425	696.29	16.72168
11.3451	691.998	16.7412
11.3458	683.532	16.7607
11.3484	700.376	16.7803
11.3493	697.456	16.7998
11.3523	686.554	16.8193
11.3528	695.849	16.8389
11.3546	704.978	16.8584
11.3556	689.171	16.87793
11.3582	697.628	16.8975
11.3606	708.726	16.917
11.3615	694.265	16.9365
11.3634	694.062	16.9561
11.3648	711.427	16.9756
11.3665	699.801	16.9951
11.368	696.541	17.0146
11.36977	714.433	17.03418
11.3715	704.97	17.0537
11.3725	691.767	17.0732
11.373	713.17	17.0928
11.3757	711.528	17.1123
11.3777	699.04	17.1318
11.379	709.608	17.1514
11.3812	714.2309	17.1709
11.38225	699.997	17.19043
11.3845	711.255	17.21
11.3857	720.4834	17.2295
11.3872	705.549	17.249
11.3886	710.238	17.2686
11.3903	722.51	17.2881
11.3915	712.443	17.3076
11.3938	707.816	17.3271
11.3961	726.437	17.34668
11.3965	719.603	17.3662
11.3987	711.506	17.3857
11.4011	722.019	17.4053
11.4013	724.21	17.4248
11.4031	712.018	17.4443
11.40498	725.4007	17.4639
11.4072	730.491	17.4834
11.4087	715.804	17.50293
11.4104	720.447	17.5225
11.4113	735.951	17.542
11.4138	719.1546	17.5615
11.4146	723.644	17.5811
11.4168	736.026	17.6006
11.4177	724.857	17.6201
11.419	719.232	17.6396
11.4213	738.258	17.65918
11.424	729.749	17.6787
11.4243	721.856	17.6982
11.4264	738.65	17.7178
11.4275	738.352	17.7373
11.429	721.054	17.7568
11.4303	738.733	17.7764
11.4333	743.455	17.7959
11.43515	728.171	17.81543
11.4367	736.285	17.835
11.437	744.202	17.8545
11.4394	731.6452	17.874
11.4412	736.703	17.8936
11.4433	749.303	17.9131
11.446	736.737	17.9326
11.4457	736.495	17.9521
11.4471	748.597	17.97168
11.4493	746.067	17.9912
11.4508	733.811	18.0107
11.451	751.093	18.0303
11.4538	749.053	18.0498
11.45615	738.555	18.0693
11.458	746.336	18.0889
11.46	754.6604	18.1084
11.4608	740.789	18.12793
11.4628	751.267	18.1475
11.4632	759.251	18.167
11.4653	745.079	18.1865
11.4666	743.704	18.2061
11.4688	762.352	18.2256
11.4706	750.826	18.2451
11.4725	746.391	18.2646
11.474	763.836	18.28418
11.4749	756.511	18.3037
11.4762	745.506	18.3232
11.4779	763.798	18.3428
11.4805	761.37	18.3623
11.4816	749.631	18.3818
11.483	763.177	18.4014
11.4849	765.131	18.4209
11.4859	750.448	18.44043
11.4883	760.969	18.46
11.49	771.585	18.4795
11.49091	757.591	18.499
11.4935	760.408	18.5186
11.4947	770.676	18.5381
11.4962	762.713	18.5576
11.4982	759.634	18.5771
11.4986	776.836	18.59668
11.501	766.944	18.6162
11.5018	761.703	18.6357
11.5055	772.878	18.6553
11.5067	776.504	18.6748
11.5073	759.223	18.6943
11.5094	775.006	18.7139
11.5099	780.118	18.7334
11.5125	767.789	18.75293
11.5145	770.924	18.7725
11.5152	783.572	18.792
11.5181	770.13	18.8115
11.52	773.737	18.8311
11.5212	786.153	18.8506
11.5221	776.738	18.8701
11.5239	768.331	18.8896
11.5256	787.964	18.90918
11.5268	780.477	18.9287
11.5294	772.245	18.9482
11.5306	787.228	18.9678
11.5322	785.011	18.9873
11.5341	772.449	19.0068
11.5355	788.513	19.0264
11.5373	790.896	19.0459
11.539	777.001	19.06543
11.5396	787.959	19.085
11.5417	796.17	19.1045
11.5433	778.05	19.124
11.5451	783.955	19.1436
11.54662	798.951	19.1631
11.5482	786.3443	19.1826
11.5489	785.723	19.2021
11.5509	796.139	19.22168
11.5524	792.11	19.2412
11.555	784.315	19.2607
11.5566	800.681	19.2803
11.5586	796.712	19.2998
11.559	786.91	19.3193
11.5612	795.942	19.3389
11.56256	804.8634	19.3584
11.5647	787.385	19.37793
11.5655	797.396	19.3975
11.5672	807.124	19.417
11.56959	796.111	19.4365
11.5719	793.827	19.4561
11.5731	811.6814	19.4756
11.5751	797.893	19.4951
11.5766	797.134	19.5146
11.5774	812.181	19.53418
11.5806	803.089	19.5537
11.5805	792.424	19.5732
11.5832	811.663	19.5928
11.5853	809.635	19.6123
11.5869	798.31	19.6318
11.5874	810.588	19.6514
11.5892	813.421	19.6709
11.5904	798.871	19.69043
11.5922	809.491	19.71
11.5933	818.643	19.7295
11.5954	805.371	19.749
11.5973	809.859	19.7686
11.59739	819.046	19.7881
11.6009	809.75	19.8076
11.6032	806.268	19.8271
11.6039	823.011	19.84668
11.6058	816.769	19.8662
11.60622	809.673	19.8857
11.6081	818.6037	19.9053
11.6102	821.88	19.9248
11.6126	808.102	19.9443
11.6134	823.433	19.9639
11.6141	825.513	19.9834
11.6175	813.71	20.00293
11.6176	814.146	20.0127

Data Header:			0.254_solid_uprint_typei_4545_r0			Time:	40.0173	s	4/14/2019 4:23:30 AM
Data Acquisition:	Timed
Station Name:	ft40.cfg
Test File Name:	monotonic_0.2540_typei_solid_4545_uprint.tst
Displacement	Force	Running Time
mm	N	s
11.6193	817.649	20.0225
11.6203	832.734	20.042
11.6207	816.02	20.0615
11.6236	820.409	20.0811
11.6244	833.729	20.1006
11.6264	822.939	20.1201
11.6277	817.222	20.1396
11.6296	835.419	20.15918
11.6315	825.815	20.1787
11.6338	819.341	20.1982
11.6339	835.644	20.2178
11.63689	831.054	20.2373
11.6384	817.769	20.2568
11.6397	833.419	20.2764
11.6413	839.435	20.2959
11.6428	823.955	20.31543
11.6443	832.067	20.335
11.6458	840.016	20.3545
11.6474	828.031	20.374
11.65	833.504	20.3936
11.6505	844.467	20.4131
11.65275	831.564	20.4326
11.6554	830.73	20.4521
11.6561	843.492	20.47168
11.6573	840.287	20.4912
11.6596	829.2016	20.5107
11.6603	846.541	20.5303
11.6617	845.701	20.5498
11.664	835.187	20.5693
11.6657	841.334	20.5889
11.6677	852.2749	20.6084
11.66883	834.783	20.62793
11.67	846.811	20.6475
11.6718	852.8645	20.667
11.6743	839.143	20.6865
11.675	838.594	20.7061
11.6781	855.969	20.7256
11.6786	843.819	20.7451
11.6809	841.273	20.7646
11.6822	855.733	20.78418
11.6832	849.102	20.8037
11.6851	839.46	20.8232
11.6872	857.882	20.8428
11.6876	854.6543	20.8623
11.6895	842.976	20.8818
11.6913	857.548	20.9014
11.6934	859.741	20.9209
11.6941	843.2807	20.94043
11.6959	854.543	20.96
11.6986	863.767	20.9795
11.6999	849.524	20.999
11.701	853.3147	21.0186
11.7028	861.771	21.0381
11.70468	855.468	21.0576
11.707	852.907	21.0771
11.7088	867.601	21.09668
11.70975	857.905	21.1162
11.7114	853.253	21.1357
11.7126	865.5	21.1553
11.7148	867.495	21.1748
11.7161	853.172	21.1943
11.7183	866.318	21.2139
11.72	869.625	21.2334
11.72111	858.896	21.25293
11.7238	861.127	21.2725
11.7241	874.491	21.292
11.7257	859.543	21.3115
11.7284	865.272	21.3311
11.7287	876.871	21.3506
11.7304	866.105	21.3701
11.73229	859.116	21.3896
11.7344	879.758	21.40918
11.7363	871.144	21.4287
11.7378	863.982	21.4482
11.739	877.461	21.4678
11.7394	874.927	21.4873
11.7416	862.367	21.5068
11.7435	875.708	21.5264
11.7453	878.7486	21.5459
11.74728	866.282	21.56543
11.748	876.304	21.585
11.7515	883.096	21.6045
11.7515	868.667	21.624
11.7536	872.635	21.6436
11.7549	887.332	21.6631
11.757	877.447	21.6826
11.759	873.943	21.7021
11.7598	881.7027	21.72168
11.7614	880.5885	21.7412
11.7642	872.3631	21.7607
11.766	889.412	21.7803
11.76587	884.541	21.7998
11.7679	874.299	21.8193
11.7698	882.602	21.8389
11.7708	892.592	21.8584
11.773	876.303	21.87793
11.7751	884.828	21.8975
11.7761	895.833	21.917
11.7783	881.885	21.9365
11.7794	881.288	21.9561
11.781	896.749	21.9756
11.78252	882.281	21.9951
11.7843	883.543	22.0146
11.7862	897.373	22.03418
11.7879	891.298	22.0537
11.7893	878.594	22.0732
11.7911	898.388	22.0928
11.7936	895.271	22.1123
11.7938	884.052	22.1318
11.7957	895.47	22.1514
11.7976	896.923	22.1709
11.7991	885.915	22.19043
11.801	895.663	22.21
11.8032	902.618	22.2295
11.8047	889.072	22.249
11.8049	895.1347	22.2686
11.8073	904.034	22.2881
11.80859	893.256	22.3076
11.8107	890.819	22.3271
11.8124	906.093	22.34668
11.8145	900.353	22.3662
11.8158	894.009	22.3857
11.8181	903.096	22.4053
11.8197	904.859	22.4248
11.8197	894.641	22.4443
11.8222	906.967	22.4639
11.8232	908.8349	22.4834
11.8253	895.251	22.50293
11.8274	900.691	22.5225
11.8282	913.12	22.542
11.8304	898.0791	22.5615
11.8323	902.7702	22.5811
11.8336	914.904	22.6006
11.8345	905.747	22.6201
11.8365	899.466	22.6396
11.8381	916.0191	22.65918
11.84002	907.95	22.6787
11.8407	901.6579	22.6982
11.8437	916.791	22.7178
11.8449	914.652	22.7373
11.8459	899.494	22.7568
11.8483	915.675	22.7764
11.8492	919.884	22.7959
11.8514	905.188	22.81543
11.8527	913.888	22.835
11.8546	920.004	22.8545
11.8559	907.523	22.874
11.8582	913.774	22.8936
11.8604	923.5188	22.9131
11.8613	912.3288	22.9326
11.86292	912.354	22.9521
11.8647	922.539	22.97168
11.8656	917.761	22.9912
11.8669	909.784	23.0107
11.8689	926.049	23.0303
11.871	923.34	23.0498
11.8718	913.963	23.0693
11.8736	920.692	23.0889
11.8755	927.253	23.1084
11.8776	915.268	23.12793
11.8791	923.569	23.1475
11.8807	930.229	23.167
11.88248	918.145	23.1865
11.8832	917.204	23.2061
11.8854	936.112	23.2256
11.8869	922.413	23.2451
11.889	920.876	23.2646
11.8906	933.766	23.28418
11.8919	926.885	23.3037
11.8937	917.409	23.3232
11.8951	933.906	23.3428
11.8962	930.864	23.3623
11.8993	920.633	23.3818
11.8999	935.094	23.4014
11.9022	936.972	23.4209
11.9031	920.673	23.44043
11.90529	931.545	23.46
11.9061	939.726	23.4795
11.90861	926.033	23.499
11.9101	929.465	23.5186
11.9105	939.081	23.5381
11.9126	928.575	23.5576
11.9148	929.29	23.5771
11.9158	942.502	23.59668
11.9182	933.964	23.6162
11.919	929.682	23.6357
11.9215	940.39	23.6553
11.92215	941.696	23.6748
11.9248	927.927	23.6943
11.9259	941.483	23.7139
11.9271	945.022	23.7334
11.929	933.498	23.75293
11.9302	935.651	23.7725
11.9337	949.005	23.792
11.9347	935.185	23.8115
11.9366	938.733	23.8311
11.9377	950.114	23.8506
11.9396	937.802	23.8701
11.94089	933.967	23.8896
11.9428	952.719	23.90918
11.9441	942.986	23.9287
11.9444	936.74	23.9482
11.9473	950.26	23.9678
11.9494	947.173	23.9873
11.9507	936.211	24.0068
11.9518	950.417	24.0264
11.954	952.6	24.0459
11.9554	938.744	24.06543
11.9573	948.895	24.085
11.9586	953.358	24.1045
11.96025	939.561	24.124
11.9606	944.233	24.1436
11.9635	958.137	24.1631
11.966	948.596	24.1826
11.9674	944.641	24.2021
11.9687	955.889	24.22168
11.969	952.153	24.2412
11.97157	945.106	24.2607
11.97438	959.732	24.2803
11.974	957.213	24.2998
11.9759	947.184	24.3193
11.9781	953.748	24.3389
11.9804	962.996	24.3584
11.982	947.851	24.37793
11.9832	956.105	24.3975
11.9841	965.495	24.417
11.9866	953.387	24.4365
11.9874	951.96	24.4561
11.99	967.058	24.4756
11.9917	954.779	24.4951
11.99312	953.772	24.5146
11.9947	967.795	24.53418
11.9964	958.946	24.5537
11.998	948.518	24.5732
11.9998	966.135	24.5928
12.0008	964.666	24.6123
12.00175	952.209	24.6318
12.0039	964.8952	24.6514
12.0055	967.124	24.6709
12.0073	953.674	24.69043
12.009	962.8291	24.71
12.0107	971.442	24.7295
12.0117	957.054	24.749
12.0154	961.6228	24.7686
12.0159	972.184	24.7881
12.0169	960.804	24.8076
12.019	959.361	24.8271
12.0202	975.382	24.84668
12.0217	966.209	24.8662
12.0242	962.207	24.8857
12.02621	970.266	24.9053
12.0271	970.838	24.9248
12.0285	959.899	24.9443
12.03	973.475	24.9639
12.032	975.331	24.9834
12.0337	962.254	25.00293
12.0355	967.401	25.0225
12.03547	981.826	25.042
12.0381	963.915	25.0615
12.0404	966.737	25.0811
12.0413	980.555	25.1006
12.0438	970.224	25.1201
12.0457	963.975	25.1396
12.0457	982.302	25.15918
12.0479	970.526	25.1787
12.0506	967.232	25.1982
12.0516	981.847	25.2178
12.0532	977.278	25.2373
12.0543	963.565	25.2568
12.0563	978.008	25.2764
12.0584	982.8927	25.2959
12.0598	968.086	25.31543
12.0612	975.013	25.335
12.0633	982.6051	25.3545
12.0644	971.347	25.374
12.0663	974.411	25.3936
12.0673	986.313	25.4131
12.0704	972.403	25.4326
12.0714	972.906	25.4521
12.0732	985.632	25.47168
12.0735	979.676	25.4912
12.07571	969.478	25.5107
12.078	985.044	25.5303
12.0799	984.318	25.5498
12.0811	973.715	25.5693
12.0829	980.003	25.5889
12.0835	988.246	25.6084
12.0861	974.679	25.62793
12.0884	980.938	25.6475
12.0891	991.139	25.667
12.0899	977.5387	25.6865
12.09357	976.416	25.7061
12.0944	995.461	25.7256
12.095	980.554	25.7451
12.0974	977.5553	25.7646
12.098	990.6	25.78418
12.0999	985.112	25.8037
12.10204	975.334	25.8232
12.1036	991.266	25.8428
12.1058	989.125	25.8623
12.1065	978.358	25.8818
12.1087	989.914	25.9014
12.1107	993.582	25.9209
12.1107	975.891	25.94043
12.1143	986.322	25.96
12.115	996.845	25.9795
12.1171	982.771	25.999
12.1184	985.3736	26.0186
12.1194	994.439	26.0381
12.1212	984.6615	26.0576
12.1226	984.98	26.0771
12.1246	997.975	26.09668
12.1262	991.4201	26.1162
12.1277	983.457	26.1357
12.1298	996.419	26.1553
12.1304	995.38	26.1748
12.13235	980.78	26.1943
12.1348	995.423	26.2139
12.1359	997.854	26.2334
12.1385	987.321	26.25293
12.1397	990.753	26.2725
12.14	1003.36	26.292
12.1428	987.842	26.3115
12.1443	993.215	26.3311
12.1455	1004.147	26.3506
12.1472	991.759	26.3701
12.1497	985.379	26.3896
12.1506	1005.09	26.40918
12.1522	996.741	26.4287
12.154	988.27	26.4482
12.1562	1001.94	26.4678
12.1569	999.868	26.4873
12.1585	986.861	26.5068
12.16075	1001.85	26.5264
12.1629	1000.36	26.5459
12.1636	990.7829	26.56543
12.16528	998.182	26.585
12.1666	1005.69	26.6045
12.1686	990.94	26.624
12.1703	995.918	26.6436
12.1714	1008.42	26.6631
12.1735	996.628	26.6826
12.1756	996.091	26.7021
12.1769	1005.54	26.72168
12.1775	999.142	26.7412
12.1802	992.793	26.7607
12.1822	1009.38	26.7803
12.1832	1004.73	26.7998
12.18453	994.993	26.8193
12.1867	1003.01	26.8389
12.1887	1010.38	26.8584
12.1892	995.249	26.87793
12.1916	1001.89	26.8975
12.19357	1011.58	26.917
12.1954	1000.87	26.9365
12.1972	998.156	26.9561
12.1979	1013.61	26.9756
12.2	999.925	26.9951
12.201	1000.11	27.0146
12.2024	1012.59	27.03418
12.2042	1004.71	27.0537
12.2053	993.669	27.0732
12.20812	1014.46	27.0928
12.2101	1010.97	27.1123
12.2123	998.124	27.1318
12.213	1010.41	27.1514
12.2147	1012.14	27.1709
12.2164	997.028	27.19043
12.2168	1010.36	27.21
12.219	1015.24	27.2295
12.2205	1001.37	27.249
12.2225	1007.17	27.2686
12.223	1017.31	27.2881
12.2262	1003.89	27.3076
12.228	1002.29	27.3271
12.2286	1017.44	27.34668
12.2299	1011.68	27.3662
12.2328	1002.84	27.3857
12.23382	1012.5	27.4053
12.2354	1012.134	27.4248
12.2369	1001.16	27.4443
12.2388	1015.3	27.4639
12.2404	1017.25	27.4834
12.2418	1004.91	27.50293
12.2433	1008.48	27.5225
12.2447	1021.748	27.542
12.2466	1005.83	27.5615
12.2485	1009.11	27.5811
12.25	1021.72	27.6006
12.2516	1010.76	27.6201
12.2522	1005.12	27.6396
12.2537	1022.38	27.65918
12.2558	1013.193	27.6787
12.2585	1007.5	27.6982
12.259	1021.47	27.7178
12.261	1018.41	27.7373
12.26254	1000.98	27.7568
12.2648	1018.97	27.7764
12.2653	1021.29	27.7959
12.2669	1007.41	27.81543
12.2698	1015.033	27.835
12.2721	1020.553	27.8545
12.2729	1007.38	27.874
12.2739	1013.16	27.8936
12.2758	1024.39	27.9131
12.2774	1011.54	27.9326
12.27976	1011.69	27.9521
12.281	1022.111	27.97168
12.2815	1016.58	27.9912
12.2841	1009.28	28.0107
12.2849	1023.34	28.0303
12.288	1020.82	28.0498
12.2891	1011.19	28.0693
12.2904	1018.52	28.0889
12.291	1025.379	28.1084
12.2942	1009.46	28.12793
12.2961	1019.26	28.1475
12.2973	1027.35	28.167
12.2999	1013.28	28.1865
12.30017	1011.6	28.2061
12.3023	1029.87	28.2256
12.3043	1015.63	28.2451
12.3056	1013.79	28.2646
12.307	1024.26	28.28418
12.3081	1022.96	28.3037
12.3105	1009.04	28.3232
12.3118	1027.19	28.3428
12.3135	1021.69	28.3623
12.315	1011.68	28.3818
12.3173	1025.01	28.4014
12.3174	1027.49	28.4209
12.3195	1009.133	28.44043
12.3208	1020.37	28.46
12.3226	1029.92	28.4795
12.3251	1015.23	28.499
12.3264	1018.26	28.5186
12.3288	1027.11	28.5381
12.3303	1016.86	28.5576
12.3306	1016.78	28.5771
12.33383	1031.68	28.59668
12.3348	1020.97	28.6162
12.3356	1014.94	28.6357
12.3386	1026.06	28.6553
12.3395	1028.12	28.6748
12.3412	1013.96	28.6943
12.3428	1025.4	28.7139
12.3436	1029.29	28.7334
12.3463	1017.89	28.75293
12.34707	1020.13	28.7725
12.3491	1030.69	28.792
12.3507	1016.18	28.8115
12.3523	1021.28	28.8311
12.35425	1033.28	28.8506
12.3561	1020.58	28.8701
12.3579	1013.04	28.8896
12.3597	1034	28.90918
12.36	1024.66	28.9287
12.3623	1017.3	28.9482
12.3644	1028.89	28.9678
12.3668	1027.56	28.9873
12.3677	1013.41	29.0068
12.36904	1029.23	29.0264
12.3703	1030.187	29.0459
12.37216	1016.19	29.06543
12.37359	1026.76	29.085
12.3755	1033.681	29.1045
12.37632	1017.47	29.124
12.3789	1021.63	29.1436
12.3801	1035.18	29.1631
12.3818	1024.97	29.1826
12.3827	1022.962	29.2021
12.3859	1030.83	29.22168
12.388	1026.46	29.2412
12.3888	1018.46	29.2607
12.3903	1034.782	29.2803
12.3918	1029.73	29.2998
12.3931	1019.37	29.3193
12.3952	1026.9	29.3389
12.397	1035.28	29.3584
12.3973	1019.04	29.37793
12.4003	1028.05	29.3975
12.4018	1036.65	29.417
12.402	1024.3	29.4365
12.4051	1022.03	29.4561
12.406	1036.28	29.4756
12.4077	1023.24	29.4951
12.4088	1022.782	29.5146
12.4116	1038.46	29.53418
12.4122	1028.53	29.5537
12.4144	1017.84	29.5732
12.41703	1036.59	29.5928
12.4182	1034.09	29.6123
12.4196	1021.45	29.6318
12.4209	1031.6	29.6514
12.4238	1034.76	29.6709
12.4249	1018.7	29.69043
12.4264	1031.22	29.71
12.4275	1037.772	29.7295
12.4287	1022.78	29.749
12.4312	1026.7	29.7686
12.4328	1037.55	29.7881
12.435	1026.6	29.8076
12.436	1023.68	29.8271
12.4374	1037.43	29.84668
12.43891	1031.062	29.8662
12.4415	1025.24	29.8857
12.4421	1032.42	29.9053
12.4435	1033.95	29.9248
12.4453	1022.3	29.9443
12.44708	1036.1	29.9639
12.4478	1037.73	29.9834
12.4504	1023.04	30.00293
12.4523	1028.52	30.0225
12.4531	1041.05	30.042
12.4553	1026.62	30.0615
12.4557	1027.74	30.0811
12.45864	1040.29	30.1006
12.4603	1031.86	30.1201
12.4624	1022.35	30.1396
12.46279	1040.824	30.15918
12.4649	1031.83	30.1787
12.4676	1025.14	30.1982
12.4682	1039.515	30.2178
12.4687	1037.573	30.2373
12.4714	1020.29	30.2568
12.473	1035.78	30.2764
12.4741	1039.76	30.2959
12.4772	1025.55	30.31543
12.4779	1032.5	30.335
12.4803	1040.9	30.3545
12.4816	1024.12	30.374
12.4827	1029.84	30.3936
12.4846	1041.51	30.4131
12.4863	1029.82	30.4326
12.4876	1027.21	30.4521
12.4896	1038.86	30.47168
12.4904	1032.52	30.4912
12.4923	1025.1	30.5107
12.49417	1038.55	30.5303
12.4965	1036.76	30.5498
12.4967	1027.76	30.5693
12.5003	1034.16	30.5889
12.50104	1040.4	30.6084
12.5025	1026.627	30.62793
12.5041	1034.52	30.6475
12.5064	1043.2	30.667
12.5071	1027.69	30.6865
12.5095	1026.66	30.7061
12.5108	1043.88	30.7256
12.5124	1031.53	30.7451
12.513	1027.65	30.7646
12.5146	1042.236	30.78418
12.5173	1036.42	30.8037
12.5203	1024.35	30.8232
12.5198	1041.15	30.8428
12.5209	1035.66	30.8623
12.5247	1026.64	30.8818
12.5255	1037.13	30.9014
12.5273	1042.07	30.9209
12.52854	1024.812	30.94043
12.5296	1034.62	30.96
12.53208	1042.37	30.9795
12.5333	1030.42	30.999
12.5348	1032.74	31.0186
12.53652	1042.81	31.0381
12.5389	1030.37	31.0576
12.5394	1030.32	31.0771
12.5415	1044.31	31.09668
12.543	1033.39	31.1162
12.54545	1027.97	31.1357
12.5468	1040.41	31.1553
12.5475	1039.09	31.1748
12.5491	1027.1	31.1943
12.5506	1039.13	31.2139
12.55333	1043.4	31.2334
12.5546	1030.36	31.25293
12.5567	1033.25	31.2725
12.5583	1045.87	31.292
12.5599	1031	31.3115
12.5612	1034.17	31.3311
12.5634	1045.94	31.3506
12.5637	1033.54	31.3701
12.5669	1026.34	31.3896
12.5688	1046.95	31.40918
12.5697	1038.98	31.4287
12.5715	1028.54	31.4482
12.5724	1041.97	31.4678
12.5744	1040.001	31.4873
12.5749	1025.65	31.5068
12.5771	1042.34	31.5264
12.5776	1043.56	31.5459
12.58	1028.96	31.56543
12.5824	1037.66	31.585
12.5847	1046.85	31.6045
12.5852	1028.82	31.624
12.5876	1032.38	31.6436
12.58844	1046.04	31.6631
12.59	1034.58	31.6826
12.5922	1032.09	31.7021
12.59337	1043.55	31.72168
12.5957	1035.63	31.7412
12.5977	1029.14	31.7607
12.5991	1044.01	31.7803
12.5999	1041.5	31.7998
12.6014	1029.061	31.8193
12.6035	1037.19	31.8389
12.6062	1045.39	31.8584
12.6072	1028.61	31.87793
12.6083	1037.41	31.8975
12.6098	1045.662	31.917
12.6119	1033.11	31.9365
12.61266	1032.496	31.9561
12.6146	1047.699	31.9756
12.6171	1033.71	31.9951
12.6177	1033.26	32.0146
12.6193	1046.82	32.03418
12.622	1039.04	32.0537
12.6234	1025.23	32.0732
[...]
16.3463	1036.97	76.72168
16.3473	1035.17	76.7412
16.3482	1016.16	76.7607
16.3503	1031.252	76.7803
16.3517	1040.9	76.7998
16.35375	1017.75	76.8193
16.3548	1025.78	76.8389
16.3562	1041.53	76.8584
16.3579	1022.06	76.87793
16.3594	1022.954	76.8975
16.3619	1040.02	76.917
16.3636	1023.4	76.9365
16.3647	1017.52	76.9561
16.36754	1041.1	76.9756
16.3679	1030.52	76.9951
16.369	1016.99	77.0146
16.37141	1033.2	77.03418
16.3724	1037.44	77.0537
16.37409	1016.69	77.0732
16.3758	1031.126	77.0928
16.37657	1039.59	77.1123
16.3793	1020.15	77.1318
16.3819	1025.39	77.1514
16.3817	1041.47	77.1709
16.3845	1020.91	77.19043
16.3852	1023.28	77.21
16.3882	1042.45	77.2295
16.3893	1028.333	77.249
16.391	1015.062	77.2686
16.393	1041.3	77.2881
16.3938	1031.49	77.3076
16.3967	1017.24	77.3271
16.3971	1034.87	77.34668
16.399	1037.15	77.3662
16.4009	1013.7	77.3857
16.4028	1032.53	77.4053
16.4042	1039.81	77.4248
16.405	1016.57	77.4443
16.4076	1027.37	77.4639
16.4093	1040.67	77.4834
16.4101	1020.98	77.50293
16.411	1020.46	77.5225
16.4132	1041.33	77.542
16.4149	1025.59	77.5615
16.4165	1020.06	77.5811
16.4174	1036.46	77.6006
16.42	1030.29	77.6201
16.42267	1015.86	77.6396
16.4232	1037.68	77.65918
16.4246	1036.95	77.6787
16.426	1016.23	77.6982
16.4281	1028.74	77.7178
16.4293	1041.49	77.7373
16.432	1017.22	77.7568
16.4321	1025.9	77.7764
16.4352	1040.11	77.7959
16.437	1023.49	77.81543
16.4376	1018.71	77.835
16.4397	1041.66	77.8545
16.4413	1023.56	77.874
16.4421	1016.3	77.8936
16.4442	1041.55	77.9131
16.44622	1031.43	77.9326
16.4483	1011.29	77.9521
16.4495	1035.99	77.97168
16.45022	1036.64	77.9912
16.4528	1016.72	78.0107
16.4535	1031.28	78.0303
16.457	1036.79	78.0498
16.4566	1015.92	78.0693
16.4591	1026.23	78.0889
16.46	1041.77	78.1084
16.4616	1021.82	78.12793
16.46488	1021.46	78.1475
16.4656	1039.18	78.167
16.467	1025.548	78.1865
16.46859	1014.95	78.2061
16.471	1038.69	78.2256
16.47274	1029.54	78.2451
16.4744	1018.19	78.2646
16.4757	1032.14	78.28418
16.477	1034.63	78.3037
16.4785	1014.51	78.3232
16.4795	1030.96	78.3428
16.4825	1040.26	78.3623
16.4837	1017.09	78.3818
16.4851	1021.36	78.4014
16.487	1041.299	78.4209
16.4888	1019.77	78.44043
16.4898	1020.32	78.46
16.4923	1040.27	78.4795
16.4939	1028.09	78.499
16.4949	1014.68	78.5186
16.49568	1038.86	78.5381
16.4979	1028.62	78.5576
16.5006	1014.45	78.5771
16.5019	1035.52	78.59668
16.5024	1035.58	78.6162
16.5039	1013.61	78.6357
16.5066	1029.62	78.6553
16.5082	1040.28	78.6748
16.5094	1016.649	78.6943
16.5108	1025.04	78.7139
16.5137	1038.14	78.7334
16.5145	1020.699	78.75293
16.5167	1020.96	78.7725
16.51796	1040.3	78.792
16.51936	1024.91	78.8115
16.51988	1018.07	78.8311
16.5227	1035.81	78.8506
16.5244	1032.1	78.8701
16.526	1013.09	78.8896
16.5269	1033.47	78.90918
16.5296	1035.739	78.9287
16.53014	1016.21	78.9482
16.532	1025.85	78.9678
16.5339	1039.22	78.9873
16.5366	1015.5	79.0068
16.53689	1025.66	79.0264
16.5397	1041.15	79.0459
16.5409	1019.215	79.06543
16.5418	1016.88	79.085
16.5432	1042.04	79.1045
16.5454	1027.19	79.124
16.5476	1015.82	79.1436
16.5484	1037.23	79.1631
16.5502	1030.54	79.1826
16.5522	1012.69	79.2021
16.553	1035.51	79.22168
16.5556	1035.16	79.2412
16.5577	1014.49	79.2607
16.55864	1030.74	79.2803
16.56	1037.56	79.2998
16.5608	1014.84	79.3193
16.5634	1022.44	79.3389
16.5649	1041.56	79.3584
16.5669	1021.45	79.37793
16.56781	1021.16	79.3975
16.5698	1036.25	79.417
16.5718	1027.33	79.4365
16.5731	1016.05	79.4561
16.5736	1039.25	79.4756
16.57699	1029.356	79.4951
16.579	1015.79	79.5146
16.5798	1030.93	79.53418
16.5811	1037.26	79.5537
16.5834	1013.51	79.5732
16.5832	1028.87	79.5928
16.5854	1039.73	79.6123
16.5885	1018.97	79.6318
16.5902	1019.91	79.6514
16.5915	1040.31	79.6709
16.5939	1019.04	79.69043
16.59424	1020.53	79.71
16.5949	1038.87	79.7295
16.5977	1024.26	79.749
16.5988	1013.81	79.7686
16.6002	1039.07	79.7881
16.6026	1030.74	79.8076
16.6038	1013.69	79.8271
16.6057	1033.004	79.84668
16.6073	1033.236	79.8662
16.6087	1012.74	79.8857
16.6107	1028.74	79.9053
16.6125	1036.455	79.9248
16.61422	1016.702	79.9443
16.6156	1024.926	79.9639
16.6163	1037.509	79.9834
16.6197	1020.33	80.00293
16.6192	1013.71	80.0127

Data Header:			0.254_solid_uprint_typei_4545_r0			Time:	86.3074	s	4/14/2019 4:24:16 AM
Data Acquisition:	Timed
Station Name:	ft40.cfg
Test File Name:	monotonic_0.2540_typei_solid_4545_uprint.tst
Displacement	Force	Running Time
mm	N	s
16.6211	1017.32	80.0225
16.622	1030.28	80.0322
16.62265	1040.45	80.042
16.6226	1032.98	80.0518
16.6246	1025.49	80.0615
16.6236	1015.88	80.0713
16.6246	1016.38	80.0811
16.626	1024.39	80.09082
16.6272	1032.1	80.1006
16.6275	1038.55	80.1104
16.6279	1030.9	80.1201
16.6287	1018.41	80.1299
16.6306	1014.351	80.1396
16.6308	1017.78	80.1494
16.6317	1033.9	80.15918
16.6317	1037.47	80.1689
16.633	1034.33	80.1787
16.6345	1024.49	80.1885
16.6343	1013.78	80.1982
16.6359	1016.47	80.208
16.6358	1026.46	80.2178
16.6375	1036.66	80.2275
16.6376	1041.73	80.2373
16.6393	1028.46	80.24707
16.6402	1014.63	80.2568
16.6401	1012.5	80.2666
16.6411	1021.76	80.2764
16.6415	1035.65	80.2861
16.643	1040.62	80.2959
16.6442	1032.58	80.3057
16.6437	1022.23	80.31543
16.6454	1013.91	80.3252
16.6468	1015.54	80.335
16.6473	1030.77	80.3447
16.6477	1038.47	80.3545
16.6491	1038.05	80.3643
16.6501	1023.82	80.374
16.6503	1011.8	80.3838
16.652	1015.11	80.3936
16.65189	1026.15	80.40332
16.65344	1039.77	80.4131
16.6535	1036.73	80.4229
16.6544	1027.71	80.4326
16.6556	1019.934	80.4424
16.6561	1010.32	80.4521
16.6566	1021.22	80.4619
16.6575	1033.92	80.47168
16.6577	1037.98	80.4814
16.659	1036.26	80.4912
16.6601	1019.403	80.501
16.6602	1014.12	80.5107
16.6612	1018.26	80.5205
16.6629	1028.82	80.5303
16.6642	1037.653	80.54
16.6638	1035.33	80.5498
16.6643	1026.33	80.55957
16.6656	1018.92	80.5693
16.6671	1014.21	80.5791
16.6671	1022.97	80.5889
16.6692	1035.34	80.5986
16.66897	1039.87	80.6084
16.67	1029.63	80.6182
16.6706	1018.93	80.62793
16.6721	1014.2	80.6377
16.6729	1020.19	80.6475
16.6734	1029.31	80.6572
16.6743	1036.34	80.667
16.6741	1035.06	80.6768
16.6754	1025.479	80.6865
16.6769	1015.16	80.6963
16.6775	1013.88	80.7061
16.6783	1024.64	80.71582
16.6779	1037.335	80.7256
16.6803	1035.3	80.7354
16.681	1030.155	80.7451
16.6817	1017.91	80.7549
16.6818	1014.31	80.7646
16.6832	1021.05	80.7744
16.6844	1029.15	80.78418
16.68462	1039.46	80.7939
16.6859	1035.218	80.8037
16.686	1022.612	80.8135
16.6874	1012.74	80.8232
16.68807	1012.91	80.833
16.6888	1028.5	80.8428
16.6894	1037.23	80.8525
16.6905	1036.68	80.8623
16.6915	1027.12	80.87207
16.6924	1015.06	80.8818
16.6929	1014.62	80.8916
16.69442	1020.78	80.9014
16.6938	1033.08	80.9111
16.6959	1040.16	80.9209
16.696	1032.29	80.9307
16.6964	1017.58	80.94043
16.6978	1010.81	80.9502
16.6976	1016.05	80.96
16.6992	1031.02	80.9697
16.6994	1039.52	80.9795
16.7016	1034.79	80.9893
16.7013	1022.11	80.999
16.7018	1014.41	81.0088
16.70377	1012.365	81.0186
16.70369	1025.52	81.02832
16.7048	1035.424	81.0381
16.706	1040.3	81.0479
16.7068	1028.05	81.0576
16.7068	1014.496	81.0674
16.7083	1013.01	81.0771
16.7098	1021.01	81.0869
16.71055	1034.068	81.09668
16.7113	1037.78	81.1064
16.7116	1029.302	81.1162
16.71228	1022.94	81.126
16.713	1010.78	81.1357
16.7138	1016.66	81.1455
16.71479	1026.86	81.1553
16.7148	1036.86	81.165
16.7159	1036.82	81.1748
16.7169	1023.41	81.18457
16.7178	1015.17	81.1943
16.71966	1014.6	81.2041
16.7196	1023.6	81.2139
16.7208	1034.457	81.2236
16.7221	1036.73	81.2334
16.7227	1029.99	81.2432
16.7226	1020.93	81.25293
16.7235	1011.904	81.2627
16.7244	1016.33	81.2725
16.726	1028.65	81.2822
16.7265	1037.56	81.292
16.72681	1034.797	81.3018
16.7281	1023.44	81.3115
16.7288	1013.97	81.3213
16.7297	1015.73	81.3311
16.7308	1021.74	81.34082
16.73032	1032.23	81.3506
16.7325	1035.96	81.3604
16.7331	1029.63	81.3701
16.7337	1019.447	81.3799
16.7344	1009.922	81.3896
16.7356	1018.19	81.3994
16.7364	1032.63	81.40918
16.7368	1036.75	81.4189
16.7376	1034.41	81.4287
16.7378	1019.74	81.4385
16.739	1013.06	81.4482
16.7393	1015.79	81.458
16.7399	1021.24	81.4678
16.7421	1035.193	81.4775
16.7423	1038.686	81.4873
16.7428	1028.52	81.49707
16.74437	1015.12	81.5068
16.7456	1008.78	81.5166
16.74612	1022.51	81.5264
16.7479	1035.09	81.5361
16.7477	1037.07	81.5459
16.7483	1030.11	81.5557
16.7499	1017.63	81.56543
16.7496	1012.9	81.5752
16.75032	1013.71	81.585
16.7512	1028.01	81.5947
16.7518	1039.57	81.6045
16.7535	1034.7	81.6143
16.7535	1022.27	81.624
16.7542	1010.618	81.6338
16.7561	1011.16	81.6436
16.7559	1025.29	81.65332
16.75667	1034.96	81.6631
16.758	1034.87	81.6729
16.7593	1025.7	81.6826
16.7593	1016.85	81.6924
16.76037	1009.03	81.7021
16.7623	1018.66	81.7119
16.7623	1028.98	81.72168
16.7626	1038.34	81.7314
16.7638	1033.75	81.7412
16.7637	1018.19	81.751
16.7667	1012.18	81.7607
16.7659	1015.1	81.7705
16.76679	1027.12	81.7803
16.7683	1035.55	81.79
16.7687	1031.62	81.7998
16.7694	1025.84	81.80957
16.76993	1013.68	81.8193
16.7715	1012.46	81.8291
16.77223	1018.95	81.8389
16.7724	1030.8	81.8486
16.7721	1038.66	81.8584
16.7748	1027.22	81.8682
16.77496	1017.13	81.87793
16.7757	1011.91	81.8877
16.7754	1014.84	81.8975
16.7768	1027.63	81.9072
16.7782	1034.23	81.917
16.7799	1033.36	81.9268
16.7797	1024.59	81.9365
16.7803	1012.69	81.9463
16.781	1011.3	81.9561
16.78203	1022.61	81.96582
16.783	1032.14	81.9756
16.7853	1035.85	81.9854
16.7856	1025.56	81.9951
16.786	1014.71	82.0049
16.7865	1010.69	82.0146
16.7874	1018.16	82.0244
16.7875	1028.74	82.03418
16.7884	1035.57	82.0439
16.79	1033.053	82.0537
16.79063	1021	82.0635
16.7906	1008.78	82.0732
16.7909	1010.79	82.083
16.7927	1025.66	82.0928
16.7943	1033.4	82.1025
16.7949	1037.04	82.1123
16.795	1023.67	82.12207
16.79611	1012.235	82.1318
16.7968	1010.86	82.1416
16.7976	1015.68	82.1514
16.7994	1031.61	82.1611
16.7994	1037.06	82.1709
16.8	1030.39	82.1807
16.8009	1017.68	82.19043
16.8019	1006.34	82.2002
16.8028	1015.19	82.21
16.8032	1027.86	82.2197
16.8036	1037.11	82.2295
16.8052	1032.94	82.2393
16.8059	1019.83	82.249
16.8058	1013.23	82.2588
16.8074	1010.9	82.2686
16.809	1021.65	82.27832
16.8089	1034.28	82.2881
16.8097	1036.11	82.2979
16.811	1027.2	82.3076
16.8111	1013.31	82.3174
16.8118	1008.39	82.3271
16.8139	1019.21	82.3369
16.8149	1031.18	82.34668
16.814	1034.58	82.3564
16.8157	1029.69	82.3662
16.816	1017.93	82.376
16.8171	1010.75	82.3857
16.8177	1012.68	82.3955
16.8197	1022.96	82.4053
16.8198	1035.36	82.415
16.8206	1035.07	82.4248
16.8208	1021.32	82.43457
16.8222	1012.44	82.4443
16.8237	1011.23	82.4541
16.8242	1019.954	82.4639
16.8251	1029.31	82.4736
16.8263	1033.26	82.4834
16.8265	1028.83	82.4932
16.8278	1017.06	82.50293
16.8274	1011.41	82.5127
16.8283	1013.61	82.5225
16.82939	1023.91	82.5322
16.83	1036.057	82.542
16.83135	1029.74	82.5518
16.8326	1020.949	82.5615
16.83309	1010.67	82.5713
16.8338	1009.48	82.5811
16.8343	1020.95	82.59082
16.8352	1028.35	82.6006
16.8364	1034.76	82.6104
16.8366	1027.92	82.6201
16.8376	1013.79	82.6299
16.8388	1008.63	82.6396
16.8392	1015.05	82.6494
16.8395	1028.34	82.65918
16.8403	1035.78	82.6689
16.841	1030.35	82.6787
16.843	1017.45	82.6885
16.8436	1009.1	82.6982
16.8441	1011.2	82.708
16.84486	1021.93	82.7178
16.8457	1032.86	82.7275
16.8463	1034.48	82.7373
16.8485	1024.56	82.74707
16.8476	1010.79	82.7568
16.8494	1007.96	82.7666
16.8507	1018.6	82.7764
16.8504	1031.66	82.7861
16.8509	1035.32	82.7959
16.8527	1025.62	82.8057
16.8536	1014.35	82.81543
16.8537	1009.94	82.8252
16.85474	1010.74	82.835
16.8564	1026.39	82.8447
16.8558	1034.91	82.8545
16.8575	1031.881	82.8643
16.8584	1020.65	82.874
16.8587	1004.31	82.8838
16.8593	1009.89	82.8936
16.8598	1021.99	82.90332
16.861	1031.754	82.9131
16.8618	1033.99	82.9229
16.86307	1021.15	82.9326
16.8634	1013.53	82.9424
16.8638	1008.759	82.9521
16.8651	1015.04	82.9619
16.8664	1028.29	82.97168
16.86739	1035.06	82.9814
16.86767	1030.86	82.9912
16.8681	1014.45	83.001
16.8699	1007.16	83.0107
16.86978	1013.14	83.0205
16.8708	1024.31	83.0303
16.8714	1032.42	83.04
16.872	1030.301	83.0498
16.8745	1022.12	83.05957
16.8741	1013.72	83.0693
16.8759	1010.67	83.0791
16.87628	1017.08	83.0889
16.8766	1030.04	83.0986
16.8774	1034.47	83.1084
16.8782	1025.8	83.1182
16.8791	1016.45	83.12793
16.8815	1008.31	83.1377
16.8802	1016.45	83.1475
16.8803	1026.37	83.1572
16.883	1030.96	83.167
16.883	1030.8	83.1768
16.8844	1020.21	83.1865
16.8849	1010.86	83.1963
16.8865	1009.79	83.2061
16.8867	1018.37	83.21582
16.8874	1032.04	83.2256
16.8881	1033.88	83.2354
16.8899	1026.08	83.2451
16.8898	1011.44	83.2549
16.8912	1006.56	83.2646
16.8913	1015.91	83.2744
16.8927	1024.07	83.28418
16.893	1032.65	83.2939
16.8939	1030.42	83.3037
16.8957	1017.2	83.3135
16.89599	1008.57	83.3232
16.8963	1007.05	83.333
16.897	1020.61	83.3428
16.8987	1033.45	83.3525
16.8998	1031.87	83.3623
16.8991	1021.358	83.37207
16.9002	1009.44	83.3818
16.9009	1008.51	83.3916
16.902	1016.08	83.4014
16.9019	1028.69	83.4111
16.9034	1033.12	83.4209
16.9043	1027.44	83.4307
16.9054	1013.39	83.44043
16.907	1005.65	83.4502
16.9068	1011.72	83.46
16.9074	1026.83	83.4697
16.9081	1035.29	83.4795
16.9093	1028.48	83.4893
16.911	1016.94	83.499
16.9108	1008.63	83.5088
16.9117	1007.13	83.5186
16.9119	1020.52	83.52832
16.9133	1029.31	83.5381
16.9145	1034.858	83.5479
16.9149	1025.41	83.5576
16.916	1007.97	83.5674
16.9162	1006.323	83.5771
16.91873	1014.3	83.5869
16.918	1027.46	83.59668
16.9194	1031.8	83.6064
16.9192	1023.801	83.6162
16.9209	1016.6	83.626
16.9209	1006.92	83.6357
16.9221	1009.52	83.6455
16.9227	1021.22	83.6553
16.9239	1029.704	83.665
16.9245	1032.699	83.6748
16.9261	1018.81	83.68457
16.9268	1009.02	83.6943
16.927	1007.601	83.7041
16.9287	1015.89	83.7139
16.9281	1026.8	83.7236
16.9294	1029.56	83.7334
16.931	1022.89	83.7432
16.9314	1013.36	83.75293
16.9326	1005.86	83.7627
16.93161	1010.33	83.7725
16.9342	1021.456	83.7822
16.93441	1030.38	83.792
16.9351	1026.92	83.8018
16.93594	1016.82	83.8115
16.93721	1005.39	83.8213
16.938	1006.04	83.8311
16.9395	1016.71	83.84082
16.9392	1025.51	83.8506
16.9394	1028.7	83.8604
16.941	1019.75	83.8701
16.9422	1010.52	83.8799
16.9432	1003.22	83.8896
16.9435	1006.54	83.8994
16.9438	1022.202	83.90918
16.9448	1028.79	83.9189
16.9459	1023.72	83.9287
16.9464	1010.09	83.9385
16.9474	1001.11	83.9482
16.9479	1007.57	83.958
16.9493	1013.94	83.9678
16.9504	1026.67	83.9775
16.9519	1026.79	83.9873
16.9525	1016.2	83.99707
16.9523	1004.09	84.0068
16.9537	997.6925	84.0166
16.9542	1008.81	84.0264
16.955	1024.697	84.0361
16.9549	1026.53	84.0459
16.95578	1018.83	84.0557
16.9569	1005.8	84.06543
16.9583	1000.1	84.0752
16.95845	1003.638	84.085
16.9589	1016.28	84.0947
16.9614	1024.38	84.1045
16.9608	1022.29	84.1143
16.96286	1009.7	84.124
16.9631	995.907	84.1338
16.9654	996.801	84.1436
16.9653	1010.76	84.15332
16.9665	1021.47	84.1631
16.9665	1021.14	84.1729
16.968	1011.51	84.1826
16.9676	999.678	84.1924
16.96839	995.545	84.2021
16.9702	1003.321	84.2119
16.9706	1013.65	84.22168
16.9708	1021.19	84.2314
16.9723	1018.01	84.2412
16.9735	999.831	84.251
16.9736	994.023	84.2607
16.9739	996.023	84.2705
16.97423	1009.06	84.2803
16.9764	1016.96	84.29
16.977	1012.645	84.2998
16.977	1005.58	84.30957
16.9783	995.65	84.3193
16.9792	992.261	84.3291
16.9791	999.824	84.3389
16.9812	1009.29	84.3486
16.98238	1016.22	84.3584
16.9823	1006.547	84.3682
16.9824	995.098	84.37793
16.98394	989.064	84.3877
16.9848	991.956	84.3975
16.9851	1004.16	84.4072
16.9862	1007.48	84.417
16.9869	1006.5	84.4268
16.9885	999.391	84.4365
16.98933	986.603	84.4463
16.9896	983.9975	84.4561
16.99131	991.033	84.46582
16.9915	1001.35	84.4756
16.99185	1001.07	84.4854
16.9985	-16.0192	84.4951
17.002	21.6247	84.5049
17.00069	-64.0255	84.5146
17.0008	-44.8149	84.5244
17.0011	-41.0005	84.53418
17.0012	-26.5532	84.5439
17.0012	-27.758	84.5537
17.0024	-35.51152	84.5635
17.0027	-51.1451	84.5732
17.0022	-55.5109	84.583
17.00316	-43.45863	84.5928
17.0036	-30.8041	84.6025
17.0047	-23.0681	84.6123
17.0052	-32.6677	84.62207
17.006	-47.36	84.6318
17.0063	-50.16457	84.6416
17.0075	-49.14954	84.6514
17.0081	-33.8942	84.6611
17.0092	-24.8414	84.6709
17.0103	-27.4528	84.6807
17.011	-39.4217	84.69043
17.0097	-54.4652	84.7002
17.0119	-50.0885	84.71
17.0128	-38.2408	84.7197
17.0137	-27.9314	84.7295
17.0145	-26.5718	84.7393
17.0153	-38.3561	84.749
17.0162	-48.6328	84.7588
17.0174	-52.4297	84.7686
17.018	-45.2713	84.77832
17.0187	-31.8157	84.7881
17.0196	-26.1769	84.7979
17.0195	-30.5202	84.8076
17.021	-45.2436	84.8174
17.0222	-53.58461	84.8271
17.0212	-48.5584	84.8369
17.0226	-34.5308	84.84668
17.0239	-27.9844	84.8564
17.0256	-29.8822	84.8662
17.0266	-38.5217	84.876
17.0268	-47.5575	84.8857
17.0268	-49.046	84.8955
17.0287	-44.9447	84.9053
17.0288	-31.3118	84.915
17.0308	-25.405	84.9248
17.031	-38.079	84.93457
17.0321	-44.7304	84.9443
17.03199	-52.571	84.9541
17.0329	-43.4147	84.9639
17.0339	-33.67654	84.9736
17.0344	-30.4559	84.9834
17.0338	-29.66013	84.9932
17.0361	-40.4776	85.00293
17.0371	-49.0021	85.0127
17.0371	-48.3569	85.0225
17.0385	-40.39119	85.0322
17.0387	-26.9762	85.042
17.0409	-28.5354	85.0518
17.0402	-38.24622	85.0615
17.0426	-46.9379	85.0713
17.0421	-51.0129	85.0811
17.0449	-40.7327	85.09082
17.0446	-34.6024	85.1006
17.0447	-27.9918	85.1104
17.0456	-31.6847	85.1201
17.0454	-42.697	85.1299
17.047	-50.9382	85.1396
17.04854	-50.6077	85.1494
17.0485	-36.2869	85.15918
17.0496	-25.6948	85.1689
17.0511	-28.8803	85.1787
17.0518	-41.78476	85.1885
17.0525	-50.0445	85.1982
17.0526	-48.37088	85.208
17.053	-42.2102	85.2178
17.05546	-27.765	85.2275
17.05492	-27.3798	85.2373
17.05599	-34.9756	85.24707
17.0585	-47.987	85.2568
17.0583	-54.7069	85.2666
17.059	-43.5706	85.2764
17.0599	-31.6011	85.2861
17.06045	-24.0011	85.2959
17.0609	-32.5066	85.3057
17.0621	-46.1608	85.31543
17.06221	-49.8535	85.3252
17.064	-49.4879	85.335
17.064	-36.4479	85.3447
17.0647	-28.7518	85.3545
17.0659	-29.4803	85.3643
17.0679	-37.022	85.374
17.0678	-51.9617	85.3838
17.0689	-50.4176	85.3936
17.0688	-40.5136	85.40332
17.0698	-30.7281	85.4131
17.0707	-24.60074	85.4229
17.07214	-35.031	85.4326
17.0729	-46.07962	85.4424
17.0729	-49.8947	85.4521
17.0741	-45.8545	85.4619
17.0741	-35.4879	85.47168
17.0762	-26.3335	85.4814
17.078	-31.3247	85.4912
17.07683	-43.3538	85.501
17.0781	-50.04586	85.5107
17.0797	-49.2533	85.5205
17.08	-38.904	85.5303
17.08049	-30.717	85.54
17.0811	-29.8575	85.5498
17.0819	-37.7594	85.55957
17.0818	-45.16996	85.5693
17.0836	-48.2987	85.5791
17.0852	-46.6123	85.5889
17.0847	-34.7214	85.5986
17.0866	-24.6693	85.6084
17.08732	-34.6724	85.6182
17.0873	-42.75013	85.62793
17.0892	-52.1611	85.6377
17.0887	-47.1942	85.6475
17.0906	-37.0517	85.6572
17.0905	-32.39106	85.667
17.0924	-28.1135	85.6768
17.0927	-38.6674	85.6865
17.0931	-47.4341	85.6963
17.0947	-51.13604	85.7061
17.0955	-45.7271	85.71582
17.09672	-29.9744	85.7256
17.0971	-26.9975	85.7354
17.0967	-35.0039	85.7451
17.0983	-45.2667	85.7549
17.0993	-52.50869	85.7646
17.1	-44.5883	85.7744
17.1007	-37.8893	85.78418
17.1011	-28.8507	85.7939
17.1024	-28.0468	85.8037
17.10483	-40.1875	85.8135
17.1039	-49.9188	85.8232
17.1043	-51.01527	85.833
17.1065	-41.7883	85.8428
17.1073	-26.8154	85.8525
17.1073	-27.6802	85.8623
17.1086	-38.52496	85.87207
17.1091	-49.3219	85.8818
17.109	-52.0259	85.8916
17.1108	-44.1934	85.9014
17.1116	-32.5592	85.9111
17.1121	-27.2467	85.9209
17.1139	-31.6804	85.9307
17.1146	-43.9107	85.94043
17.114	-53.4579	85.9502
17.1158	-47.8685	85.96
17.1161	-38.221	85.9697
17.1178	-26.0271	85.9795
17.1177	-29.5181	85.9893
17.1181	-40.9743	85.999
17.1191	-49.8524	86.0088
17.11985	-51.2296	86.0186
17.1218	-41.0254	86.02832
17.1222	-31.2975	86.0381
17.122	-28.9697	86.0479
17.1234	-34.5974	86.0576
17.125	-48.6988	86.0674
17.12627	-51.9697	86.0771
17.125	-44.7526	86.0869
17.1267	-34.6114	86.09668
17.1283	-28.0816	86.1064
17.1286	-34.8084	86.1162
17.13019	-41.7839	86.126
17.1313	-49.0185	86.1357
17.1314	-51.1793	86.1455
17.1323	-40.8514	86.1553
17.1318	-31.8726	86.165
17.1339	-27.3984	86.1748
17.1336	-37.9495	86.18457
17.1347	-48.7639	86.1943
17.1359	-49.8593	86.2041
17.1362	-45.0475	86.2139
17.1373	-33.5258	86.2236
17.13884	-28.3441	86.2334
17.1403	-32.7085	86.2432
17.13994	-42.4333	86.25293
17.1409	-49.2419	86.2627
17.142	-49.6324	86.2725
17.1422	-38.965	86.2822
17.1431	-28.0587	86.292
17.1436	-28.58791	86.3018