File: data/processed_data_files/tensile/0.254_hd_uprint_typeiv_4545_r(5).dat
MTS793|BTW|ENU|1|2|.|/|:|1|0|0|A

Data Header:			0.254_hd_uprint_typeiv_4545_r0			Time:	20.0176	s	4/13/2019 7:22:03 PM
Data Acquisition:	Timed
Station Name:	ft40.cfg
Test File Name:	monotonic_0.2540_typeiv_hd_4545_uprint.tst
Displacement	Force	Running Time
mm	N	s
-40.03418	-207.448	0.0227051
-40.03545	-205.243	0.0422363
-40.03442	-203.272	0.0617676
-40.0337	-207.959	0.0812988
-40.0305	-202.759	0.10083
-40.0292	-201.842	0.120361
-40.0294	-205.088	0.139893
-40.0263	-201.538	0.159424
-40.0242	-194.86	0.178955
-40.02319	-202.868	0.198486
-40.0213	-201.217	0.218018
-40.02047	-195.078	0.237549
-40.0181	-195.686	0.25708
-40.0169	-197.994	0.276611
-40.0151	-191.168	0.296143
-40.0133	-194.047	0.315674
-40.012	-192.391	0.335205
-40.01059	-191.682	0.354736
-40.0097	-188.611	0.374268
-40.0067	-190.837	0.393799
-40.0052	-187.214	0.41333
-40.0044	-186.071	0.432861
-40.0023	-187.735	0.452393
-40.0021	-188.959	0.471924
-39.999	-181.965	0.491455
-39.9968	-181.672	0.510986
-39.9952	-183.444	0.530518
-39.9948	-180.978	0.550049
-39.9922	-178.503	0.56958
-39.9908	-181.985	0.589111
-39.9883	-177.184	0.608643
-39.9878	-175.409	0.628174
-39.9858	-180.859	0.647705
-39.9844	-175.728	0.667236
-39.9827	-171.373	0.686768
-39.9817	-177.883	0.706299
-39.9791	-176.065	0.72583
-39.9778	-168.677	0.745361
-39.9758	-173.9653	0.764893
-39.9741	-171.693	0.784424
-39.9728	-168.229	0.803955
-39.9708	-166.988	0.823486
-39.9696	-170.917	0.843018
-39.9674	-163.058	0.862549
-39.9663	-167.773	0.88208
-39.9656	-167.443	0.901611
-39.9627	-163.8707	0.921143
-39.9606	-160.984	0.940674
-39.9593	-164.594	0.960205
-39.9579	-159.306	0.979736
-39.9568	-160.227	0.999268
-39.9551	-160.2914	1.0188
-39.9539	-159.622	1.03833
-39.95174	-153.232	1.05786
-39.9511	-157.685	1.07739
-39.9483	-155.461	1.09692
-39.9463	-152.734	1.11646
-39.9461	-151.052	1.13599
-39.9428	-155.123	1.15552
-39.9416	-149.252	1.17505
-39.9409	-147.644	1.19458
-39.9388	-150.8287	1.21411
-39.9357	-147.5015	1.23364
-39.9355	-145.445	1.25317
-39.9335	-148.657	1.27271
-39.9329	-145.452	1.29224
-39.9313	-139.833	1.31177
-39.928	-145.962	1.3313
-39.9274	-143.808	1.35083
-39.9259	-136.014	1.37036
-39.9238	-139.918	1.38989
-39.9228	-141.339	1.40942
-39.9222	-134.054	1.42896
-39.91856	-140.263	1.44849
-39.9176	-137.022	1.46802
-39.9161	-134.133	1.48755
-39.914	-132.3929	1.50708
-39.913	-137.043	1.52661
-39.9106	-129.175	1.54614
-39.9095	-131.451	1.56567
-39.909	-131.674	1.58521
-39.9066	-129.949	1.60474
-39.904	-126.655	1.62427
-39.9029	-128.0932	1.6438
-39.901	-125.213	1.66333
-39.8992	-125.785	1.68286
-39.89801	-124.922	1.70239
-39.8962	-125.302	1.72192
-39.8936	-118.397	1.74146
-39.8933	-122.3017	1.76099
-39.89193	-122.721	1.78052
-39.8905	-119.5541	1.80005
-39.8885	-116.753	1.81958
-39.8873	-120.148	1.83911
-39.8855	-115.672	1.85864
-39.8835	-112.391	1.87817
-39.88213	-117.212	1.89771
-39.88026	-114.245	1.91724
-39.8773	-109.182	1.93677
-39.8768	-114.522	1.9563
-39.8751	-111.768	1.97583
-39.873	-105.129	1.99536
-39.8703	-111.2772	2.01489
-39.86927	-110.38	2.03442
-39.8692	-104.037	2.05396
-39.8671	-106.502	2.07349
-39.8649	-108.17	2.09302
-39.8645	-101.857	2.11255
-39.8618	-104.492	2.13208
-39.8613	-103.01	2.15161
-39.8586	-98.981	2.17114
-39.8572	-98.2706	2.19067
-39.8558	-101.043	2.21021
-39.8539	-96.2252	2.22974
-39.8525	-97.8047	2.24927
-39.8507	-97.6153	2.2688
-39.8496	-98.3149	2.28833
-39.8478	-90.6671	2.30786
-39.8465	-94.6946	2.32739
-39.8449	-93.1388	2.34692
-39.8431	-92.9566	2.36646
-39.8406	-90.2906	2.38599
-39.8399	-93.55278	2.40552
-39.83746	-86.4354	2.42505
-39.8361	-86.1295	2.44458
-39.835	-89.84713	2.46411
-39.83305	-86.802	2.48364
-39.8319	-81.1493	2.50317
-39.8308	-87.40406	2.52271
-39.8283	-82.6928	2.54224
-39.8261	-78.79673	2.56177
-39.8256	-84.4989	2.5813
-39.8232	-82.1597	2.60083
-39.8207	-76.0391	2.62036
-39.8194	-81.0127	2.63989
-39.8184	-79.803	2.65942
-39.8164	-72.8598	2.67896
-39.8144	-76.0146	2.69849
-39.8136	-77.15126	2.71802
-39.8115	-71.8744	2.73755
-39.8093	-70.9115	2.75708
-39.8079	-73.6667	2.77661
-39.8065	-66.9468	2.79614
-39.8059	-69.4807	2.81567
-39.8037	-70.3865	2.83521
-39.8009	-66.7524	2.85474
-39.8012	-61.3953	2.87427
-39.79948	-67.15741	2.8938
-39.797	-63.9233	2.91333
-39.7943	-63.0578	2.93286
-39.7945	-63.4235	2.95239
-39.7921	-64.2264	2.97192
-39.7913	-59.0143	2.99146
-39.7898	-59.5865	3.01099
-39.7868	-59.2628	3.03052
-39.7854	-57.6978	3.05005
-39.7838	-55.701	3.06958
-39.7826	-59.7383	3.08911
-39.7812	-52.3984	3.10864
-39.7794	-51.0032	3.12817
-39.777	-55.0324	3.14771
-39.7759	-54.3989	3.16724
-39.774	-46.5893	3.18677
-39.7724	-53.3314	3.2063
-39.7708	-49.95063	3.22583
-39.7692	-44.8275	3.24536
-39.7669	-50.0684	3.26489
-39.76582	-50.01535	3.28442
-39.7639	-41.595	3.30396
-39.7638	-45.2818	3.32349
-39.7613	-48.2824	3.34302
-39.7601	-39.0865	3.36255
-39.75835	-42.7149	3.38208
-39.7575	-43.24	3.40161
-39.75507	-38.6305	3.42114
-39.7528	-37.8925	3.44067
-39.7524	-41.6593	3.46021
-39.7502	-35.1377	3.47974
-39.7484	-36.0478	3.49927
-39.746	-36.639	3.5188
-39.7443	-35.2021	3.53833
-39.7427	-29.0791	3.55786
-39.7421	-33.6665	3.57739
-39.7404	-30.9565	3.59692
-39.7383	-29.922	3.61646
-39.737	-28.276	3.63599
-39.7363	-31.2948	3.65552
-39.7334	-25.2961	3.67505
-39.7327	-27.3771	3.69458
-39.7309	-26.8327	3.71411
-39.7278	-23.9436	3.73364
-39.7264	-20.2677	3.75317
-39.7253	-27.83589	3.77271
-39.7241	-22.3067	3.79224
-39.7224	-18.6159	3.81177
-39.7203	-21.1432	3.8313
-39.7189	-21.6519	3.85083
-39.7171	-15.9024	3.87036
-39.7162	-18.9708	3.88989
-39.7148	-19.3242	3.90942
-39.7132	-11.1055	3.92896
-39.71067	-16.3645	3.94849
-39.7095	-17.9487	3.96802
-39.7076	-8.47194	3.98755
-39.70586	-10.6024	4.00708
-39.7043	-15.3065	4.02661
-39.7033	-7.66607	4.04614
-39.7014	-8.21845	4.06567
-39.6989	-10.1413	4.08521
-39.6971	-7.43288	4.10474
-39.6958	-4.70216	4.12427
-39.6947	-7.91753	4.1438
-39.6925	-3.63862	4.16333
-39.6909	-1.57573	4.18286
-39.6894	-2.77307	4.20239
-39.6889	-5.264955	4.22192
-39.6865	4.883872	4.24146
-39.6849	1.47431	4.26099
-39.6834	0.880297	4.28052
-39.6831	1.90997	4.30005
-39.6804	5.2626	4.31958
-39.6784	1.1403	4.33911
-39.676	7.98033	4.35864
-39.6752	8.2775	4.37817
-39.6732	4.264658	4.39771
-39.67197	7.34457	4.41724
-39.6707	12.8712	4.43677
-39.6683	7.8563	4.4563
-39.6649	9.42903	4.47583
-39.6663	15.9777	4.49536
-39.6636	12.8952	4.51489
-39.6622	10.2116	4.53442
-39.6604	17.887	4.55396
-39.6591	14.3468	4.57349
-39.6576	14.4825	4.59302
-39.6553	22.2875	4.61255
-39.654	19.1792	4.63208
-39.6519	16.4028	4.65161
-39.6508	22.4706	4.67114
-39.6495	24.7027	4.69067
-39.64632	18.6873	4.71021
-39.6462	24.5974	4.72974
-39.6449	25.30372	4.74927
-39.6428	23.9212	4.7688
-39.64056	25.3753	4.78833
-39.6399	30.0881	4.80786
-39.6365	25.3268	4.82739
-39.6363	28.4479	4.84692
-39.6346	31.2849	4.86646
-39.63221	32.9208	4.88599
-39.6319	27.8543	4.90552
-39.6296	36.4143	4.92505
-39.6286	37.7039	4.94458
-39.6262	34.2239	4.96411
-39.6244	35.8604	4.98364
-39.6227	39.9109	5.00317
-39.6216	33.1194	5.02271
-39.62	39.6105	5.04224
-39.618	43.3681	5.06177
-39.6166	39.2063	5.0813
-39.6144	38.2768	5.10083
-39.6144	48.391	5.12036
-39.61134	41.5881	5.13989
-39.6102	41.7939	5.15942
-39.6082	48.7912	5.17896
-39.60775	46.5279	5.19849
-39.6042	42.6437	5.21802
-39.6033	51.3189	5.23755
-39.6017	50.8338	5.25708
-39.6003	45.3574	5.27661
-39.5995	54.7989	5.29614
-39.598	53.3067	5.31567
-39.5958	48.8203	5.33521
-39.5942	52.6983	5.35474
-39.5923	57.2392	5.37427
-39.5905	52.1111	5.3938
-39.5885	58.2066	5.41333
-39.5871	59.5169	5.43286
-39.5857	56.96328	5.45239
-39.5843	58.34243	5.47192
-39.5822	64.01	5.49146
-39.5807	61.3653	5.51099
-39.5795	61.8673	5.53052
-39.5781	64.7791	5.55005
-39.5751	66.5972	5.56958
-39.5745	62.3905	5.58911
-39.5733	67.40345	5.60864
-39.5703	70.7628	5.62817
-39.57	67.7596	5.64771
-39.5686	66.702	5.66724
-39.5658	75.0796	5.68677
-39.5644	66.5606	5.7063
-39.5623	72.4866	5.72583
-39.5611	78.0837	5.74536
-39.5596	74.4347	5.76489
-39.558	71.50721	5.78442
-39.5561	81.3019	5.80396
-39.55471	76.74057	5.82349
-39.5533	75.4634	5.84302
-39.5517	83.1964	5.86255
-39.5501	80.3425	5.88208
-39.5485	77.8603	5.90161
-39.5473	85.0628	5.92114
-39.5448	85.5533	5.94067
-39.5434	80.416	5.96021
-39.5423	87.0195	5.97974
-39.5413	87.2621	5.99927
-39.5384	83.97789	6.0188
-39.5366	85.3494	6.03833
-39.536	90.7809	6.05786
-39.53384	87.4831	6.07739
-39.5332	90.1927	6.09692
-39.53	93.627	6.11646
-39.529	92.7972	6.13599
-39.5265	90.3984	6.15552
-39.524	98.3015	6.17505
-39.5238	96.66864	6.19458
-39.5227	94.3138	6.21411
-39.5208	95.9891	6.23364
-39.5182	102.398	6.25317
-39.5167	94.9673	6.27271
-39.5143	100.137	6.29224
-39.5146	104.3215	6.31177
-39.5126	99.8412	6.3313
-39.51088	99.2404	6.35083
-39.5091	108.847	6.37036
-39.507	100.948	6.38989
-39.50563	103.676	6.40942
-39.5046	110.093	6.42896
-39.503	108.266	6.44849
-39.5014	102.933	6.46802
-39.4994	111.576	6.48755
-39.4974	109.6083	6.50708
-39.4961	107.757	6.52661
-39.4954	114.498	6.54614
-39.4927	113.847	6.56567
-39.4902	109.658	6.58521
-39.4901	115.838	6.60474
-39.4876	119.031	6.62427
-39.48634	113.212	6.6438
-39.4849	117.728	6.66333
-39.4831	122.154	6.68286
-39.4813	118.594	6.70239
-39.4799	118.132	6.72192
-39.4776	123.922	6.74146
-39.477	119.815	6.76099
-39.47459	122.776	6.78052
-39.4739	125.002	6.80005
-39.4724	125.713	6.81958
-39.4692	121.771	6.83911
-39.4681	128.338	6.85864
-39.4667	130.775	6.87817
-39.4664	126.779	6.89771
-39.4641	127.6	6.91724
-39.4617	134.7876	6.93677
-39.4606	129.294	6.9563
-39.4592	132.557	6.97583
-39.458	136.383	6.99536
-39.4551	133.866	7.01489
-39.4528	131.538	7.03442
-39.4512	141.0195	7.05396
-39.45153	135.351	7.07349
-39.4476	135.742	7.09302
-39.44791	141.54	7.11255
-39.4445	142.491	7.13208
-39.4437	135.666	7.15161
-39.4429	143.675	7.17114
-39.4404	142.6992	7.19067
-39.43898	140.267	7.21021
-39.4377	145.235	7.22974
-39.4359	147.319	7.24927
-39.43541	141.289	7.2688
-39.43343	146.606	7.28833
-39.4303	151.677	7.30786
-39.429	145.997	7.32739
-39.42794	148.198	7.34692
-39.4253	151.67	7.36646
-39.4243	150.645	7.38599
-39.4233	149.653	7.40552
-39.4212	155.335	7.42505
-39.4201	154.158	7.44458
-39.4197	153.478	7.46411
-39.4176	156.696	7.48364
-39.41486	159.84	7.50317
-39.41415	153.585	7.52271
-39.4114	160.518	7.54224
-39.40947	161.802	7.56177
-39.409	160.462	7.5813
-39.4066	157.812	7.60083
-39.406	167.007	7.62036
-39.4033	160.654	7.63989
-39.40218	163.033	7.65942
-39.3988	169.195	7.67896
-39.3984	166.498	7.69849
-39.3969	161.951	7.71802
-39.3944	172.815	7.73755
-39.3938	168.683	7.75708
-39.3917	166.134	7.77661
-39.3904	172.935	7.79614
-39.3892	174.1111	7.81567
-39.3877	169.034	7.83521
-39.3853	175.744	7.85474
-39.3841	177.531	7.87427
-39.3822	174.278	7.8938
-39.3803	175.8867	7.91333
-39.3786	181.499	7.93286
-39.37706	175.062	7.95239
-39.3756	177.011	7.97192
-39.3747	183.492	7.99146
-39.3723	181.541	8.01099
-39.3704	180.409	8.03052
-39.36964	183.993	8.05005
-39.3675	184.855	8.06958
-39.3673	181.915	8.08911
-39.3642	187.79	8.10864
-39.3617	187.994	8.12817
-39.36068	186.681	8.14771
-39.3594	187.061	8.16724
-39.3574	193.761	8.18677
-39.3566	188.286	8.2063
-39.3539	189.979	8.22583
-39.354	195.045	8.24536
-39.3513	193.734	8.26489
-39.34988	189.758	8.28442
-39.3482	200.483	8.30396
-39.34663	193.452	8.32349
-39.3443	195.312	8.34302
-39.3441	200.729	8.36255
-39.342	199.829	8.38208
-39.3399	193.824	8.40161
-39.3386	204.456	8.42114
-39.3376	202.227	8.44067
-39.335	199.7796	8.46021
-39.3344	203.647	8.47974
-39.33144	206.222	8.49927
-39.3293	200.995	8.5188
-39.3285	206.021	8.53833
-39.3269	208.559	8.55786
-39.3248	204.204	8.57739
-39.3232	208.2682	8.59692
-39.3218	212.517	8.61646
-39.3202	209.032	8.63599
-39.3185	208.246	8.65552
-39.3172	212.12	8.67505
-39.3166	213.6893	8.69458
-39.3137	213.224	8.71411
-39.3116	213.268	8.73364
-39.3107	218.309	8.75317
-39.3096	212.299	8.77271
-39.307	219.163	8.79224
-39.3052	220.708	8.81177
-39.3039	217.699	8.8313
-39.30212	216.039	8.85083
-39.3014	226.038	8.87036
-39.2993	217.889	8.88989
-39.299	221.483	8.90942
-39.2973	226.8718	8.92896
-39.2946	224.596	8.94849
-39.2927	218.945	8.96802
-39.2924	230.759	8.98755
-39.2889	225.053	9.00708
-39.2882	225.935	9.02661
-39.2849	232.385	9.04614
-39.2846	232.115	9.06567
-39.2832	225.321	9.08521
-39.2812	232.357	9.10474
-39.28	233.713	9.12427
-39.27787	230.815	9.1438
-39.2766	235.144	9.16333
-39.275	238.934	9.18286
-39.2743	232.071	9.20239
-39.2722	235.611	9.22192
-39.2696	240.094	9.24146
-39.2693	236.826	9.26099
-39.2676	237.695	9.28052
-39.2671	242.3235	9.30005
-39.2634	241.085	9.31958
-39.2621	238.384	9.33911
-39.2598	242.958	9.35864
-39.2585	245.322	9.37817
-39.2573	243.238	9.39771
-39.2555	246.685	9.41724
-39.2529	249.699	9.43677
-39.2521	243.994	9.4563
-39.2508	247.9016	9.47583
-39.2492	253.812	9.49536
-39.2473	249.728	9.51489
-39.2449	246.629	9.53442
-39.2442	256.71	9.55396
-39.2421	252.386	9.57349
-39.2414	252.489	9.59302
-39.2388	256.041	9.61255
-39.2377	257.567	9.63208
-39.2361	249.951	9.65161
-39.2354	261.8967	9.67114
-39.2322	257.682	9.69067
-39.2315	256.205	9.71021
-39.2288	261.169	9.72974
-39.2279	265.676	9.74927
-39.2266	258.062	9.7688
-39.2251	261.892	9.78833
-39.2231	265.304	9.80786
-39.2214	261.66	9.82739
-39.2194	264.9967	9.84692
-39.2182	270.5463	9.86646
-39.2164	263.7485	9.88599
-39.2148	265.409	9.90552
-39.2126	271.919	9.92505
-39.2106	270.857	9.94458
-39.2096	268.965	9.96411
-39.2089	270.652	9.98364
-39.20723	273.2225	10.0032
-39.2046	271.2764	10.0227
-39.2022	275.585	10.0422
-39.2016	276.54	10.0618
-39.1998	274.823	10.0813
-39.19751	274.072	10.10083
-39.1967	281.7952	10.1204
-39.19643	274.708	10.1399
-39.1939	276.839	10.1594
-39.1927	284.8793	10.179
-39.18977	282.228	10.1985
-39.1886	277.2244	10.218
-39.187	286.587	10.2375
-39.1854	283.032	10.25708
-39.1835	282.625	10.2766
-39.1817	287.341	10.2961
-39.18	288.855	10.3157
-39.18045	281.456	10.3352
-39.17704	291.006	10.3547
-39.17593	290.908	10.3743
-39.173	287.529	10.3938
-39.1721	289.254	10.41333
-39.1715	296.044	10.4329
-39.1694	287.97	10.4524
-39.1659	292.21	10.4719
-39.1654	295.872	10.4915
-39.1637	293.764	10.511
-39.1628	294.593	10.5305
-39.1609	299.511	10.55
-39.1588	295.339	10.56958
-39.1579	294.555	10.5891
-39.1563	301.087	10.6086
-39.15435	300.854	10.6282
-39.1533	299.991	10.6477
-39.1512	300.419	10.6672
-39.1497	305.069	10.6868
-39.1478	300.462	10.7063
-39.1459	305.006	10.72583
-39.1448	308.54	10.7454
-39.1432	305.087	10.7649
-39.1415	304.194	10.7844
-39.13953	313.287	10.804
-39.13821	306.591	10.8235
-39.13567	307.129	10.843
-39.1355	311.966	10.8625
-39.13435	314.391	10.88208
-39.1318	305.725	10.9016
-39.1294	315.8703	10.9211
-39.1285	313.733	10.9407
-39.1278	312.004	10.9602
-39.125	316.983	10.9797
-39.1228	319.786	10.9993
-39.1226	312.396	11.0188
-39.1211	318.692	11.03833
-39.1181	321.227	11.0579
-39.1162	318.593	11.0774
-39.1149	319.202	11.0969
-39.113	324.9158	11.1165
-39.1115	319.021	11.136
-39.1102	321.661	11.1555
-39.1085	324.121	11.175
-39.108	323.338	11.19458
-39.1051	323.223	11.2141
-39.10445	327.018	11.2336
-39.1028	325.711	11.2532
-39.1012	324.705	11.2727
-39.0993	327.8215	11.2922
-39.0965	331.522	11.3118
-39.0961	329.709	11.3313
-39.09359	329.0033	11.35083
-39.0921	333.953	11.3704
-39.091	330.599	11.3899
-39.0901	332.499	11.4094
-39.0873	337.988	11.429
-39.0868	335.327	11.4485
-39.0844	330.591	11.468
-39.0834	341.215	11.4875
-39.0814	337.542	11.50708
-39.0798	335.123	11.5266
-39.0791	340.6824	11.5461
-39.0767	343.277	11.5657
-39.0758	335.506	11.5852
-39.0728	342.953	11.6047
-39.0723	343.195	11.6243
-39.0706	340.668	11.6438
-39.0683	344.031	11.66333
-39.0673	350.579	11.6829
-39.0648	341.505	11.7024
-39.0638	345.602	11.7219
-39.0618	348.621	11.7415
-39.0614	347.48	11.761
-39.0592	345.554	11.7805
-39.05611	352.365	11.8
-39.0552	349.431	11.81958
-39.054	348.95	11.8391
-39.0524	353.057	11.8586
-39.0503	354.6	11.8782
-39.04821	352.776	11.8977
-39.0473	354.295	11.9172
-39.0456	358.061	11.9368
-39.042	352.903	11.9563
-39.0418	355.059	11.97583
-39.0404	359.065	11.9954
-39.0385	358.7002	12.0149
-39.0366	356.4119	12.0344
-39.0355	363.696	12.054
-39.0345	358.923	12.0735
-39.0325	359.41	12.093
-39.0307	366.061	12.1125
-39.0288	367.65	12.13208
-39.028	358.3	12.1516
-39.0247	368.461	12.1711
-39.024	368.617	12.1907
-39.0226	365.166	12.2102
-39.0213	368.692	12.2297
-39.0191	372.534	12.2493
-39.0191	364.397	12.2688
-39.0162	371.541	12.28833
-39.0139	373.1647	12.3079
-39.0135	368.595	12.3274
-39.0127	371.888	12.3469
-39.00935	378.835	12.3665
-39.0087	370.694	12.386
-39.00692	374.11	12.4055
-39.0047	376.129	12.425
-39.0041	378.41	12.44458
-39.002	375.402	12.4641
-38.9991	380.804	12.4836
-38.9987	377.666	12.5032
-38.9973	376.739	12.5227
-38.9944	380.805	12.5422
-38.9938	383.157	12.5618
-38.99184	380.227	12.5813
-38.9894	379.642	12.60083
-38.9885	385.526	12.6204
-38.986	382.708	12.6399
-38.9856	382.122	12.6594
-38.9836	386.897	12.679
-38.9826	388.1503	12.6985
-38.9798	383.678	12.718
-38.9792	390.962	12.7375
-38.9771	387.783	12.75708
-38.9758	386.221	12.7766
-38.9746	390.922	12.7961
-38.97118	394.181	12.8157
-38.9701	385.889	12.8352
-38.9696	393.648	12.8547
-38.9671	394.609	12.8743
-38.9648	391.996	12.8938
-38.9645	395.045	12.91333
-38.9626	400.035	12.9329
-38.9605	390.224	12.9524
-38.9588	397.2319	12.9719
-38.9575	400.1969	12.9915
-38.9557	398.39	13.011
-38.9545	396.757	13.0305
-38.9528	404.333	13.05
-38.9512	398.274	13.06958
-38.9492	398.858	13.0891
-38.948	402.228	13.1086
-38.9457	404.2706	13.1282
-38.9447	401.603	13.1477
-38.9429	406.319	13.1672
-38.9417	406.098	13.1868
-38.9393	403.7742	13.2063
-38.9395	405.976	13.22583
-38.9378	411.404	13.2454
-38.9343	408.34	13.2649
-38.9332	405.809	13.2844
-38.9314	412.148	13.304
-38.9307	408.83	13.3235
-38.9287	409.252	13.343
-38.92651	414.022	13.3625
-38.9246	414.731	13.38208
-38.9239	409.085	13.4016
-38.9221	418.155	13.4211
-38.9204	416.564	13.4407
-38.91753	412.172	13.4602
-38.9171	417.348	13.4797
-38.9148	422.224	13.4993
-38.91293	414.257	13.5188
-38.91304	418.354	13.53833
-38.9108	421.9176	13.5579
-38.90974	418.7514	13.5774
-38.9071	419.893	13.5969
-38.9057	425.775	13.6165
-38.9035	418.373	13.636
-38.9022	419.9165	13.6555
-38.9001	425.972	13.675
-38.8984	424.993	13.69458
-38.8976	421.876	13.7141
-38.8959	429.16	13.7336
-38.8936	427.307	13.7532
-38.8926	425.58	13.7727
-38.8909	426.46	13.7922
-38.8894	430.918	13.8118
-38.8871	428.5827	13.8313
-38.8867	429.843	13.85083
-38.8843	433.212	13.8704
-38.88319	430.297	13.8899
-38.88063	429.544	13.9094
-38.8787	435.523	13.929
-38.878	434.645	13.9485
-38.8772	430.136	13.968
-38.8749	437.092	13.9875
-38.8723	434.753	14.00708
-38.8719	433.05	14.0266
-38.8694	439.015	14.0461
-38.86787	440.393	14.0657
-38.866	433.919	14.0852
-38.8639	441.078	14.1047
-38.863	442.053	14.1243
-38.8615	438.633	14.1438
-38.8591	440.091	14.16333
-38.8586	447.56	14.1829
-38.8567	440.28	14.2024
-38.8541	442.999	14.2219
-38.8533	444.067	14.2415
-38.8522	443.829	14.261
-38.8504	443.7453	14.2805
-38.8486	449.813	14.3
-38.8461	444.972	14.31958
-38.84605	446.0965	14.3391
-38.8436	448.845	14.3586
-38.8415	452.223	14.3782
-38.8402	448.684	14.3977
-38.8384	451.49	14.4172
-38.8364	452.461	14.4368
-38.8359	449.86	14.4563
-38.8338	452.851	14.47583
-38.8331	455.534	14.4954
-38.8315	452.281	14.5149
-38.8283	452.94	14.5344
-38.8278	457.775	14.554
-38.8265	456.036	14.5735
-38.8244	452.078	14.593
-38.82296	458.788	14.6125
-38.8215	460.3725	14.63208
-38.8188	455.395	14.6516
-38.8174	460.833	14.6711
-38.8153	459.896	14.6907
-38.814	457.8313	14.7102
-38.81266	461.015	14.7297
-38.8103	465.864	14.7493
-38.8093	457.387	14.7688
-38.8078	463.092	14.78833
-38.807	465.59	14.8079
-38.8047	463.634	14.8274
-38.8036	461.482	14.8469
-38.802	469.652	14.8665
-38.7998	463.458	14.886
-38.7979	464.926	14.9055
-38.7969	468.097	14.925
-38.7953	468.3295	14.94458
-38.7936	465.895	14.9641
-38.7924	472.345	14.9836
-38.7891	469.419	15.0032
-38.7878	466.905	15.0227
-38.7866	469.87	15.0422
-38.78455	474.2	15.0618
-38.7838	470.064	15.0813
-38.781	472.058	15.10083
-38.7798	474.008	15.1204
-38.7785	472.281	15.1399
-38.7762	471.613	15.1594
-38.7759	477.654	15.179
-38.7744	474.414	15.1985
-38.7723	473.126	15.218
-38.7713	478.001	15.2375
-38.7688	478.315	15.25708
-38.7674	474.795	15.2766
-38.76553	478.35	15.2961
-38.7646	481.864	15.3157
-38.7618	475.0899	15.3352
-38.7603	480.442	15.3547
-38.76	483.318	15.3743
-38.7579	479.495	15.3938
-38.75576	481.7486	15.41333
-38.7535	487.7677	15.4329
-38.7518	478.601	15.4524
-38.7515	483.261	15.4719
-38.74894	488.36	15.4915
-38.7476	486.653	15.511
-38.74641	482.627	15.5305
-38.7436	490.876	15.55
-38.74287	485.2829	15.56958
-38.7411	486.2	15.5891
-38.7398	488.664	15.6086
-38.7382	489.74	15.6282
-38.7361	486.031	15.6477
-38.7341	491.874	15.6672
-38.7331	490.88	15.6868
-38.7323	490.385	15.7063
-38.73	488.228	15.72583
-38.7285	495.982	15.7454
-38.7261	490.709	15.7649
-38.7238	492.201	15.7844
-38.7225	492.188	15.804
-38.7223	493.157	15.8235
-38.7203	492.107	15.843
-38.7171	497.168	15.8625
-38.7167	497.767	15.88208
-38.7146	491.061	15.9016
-38.71344	496.502	15.9211
-38.7114	499.193	15.9407
-38.7098	495.894	15.9602
-38.7079	497.473	15.9797
-38.7076	502.338	15.9993
-38.7052	493.952	16.0188
-38.7038	498.926	16.03833
-38.7024	501.317	16.0579
-38.7019	497.85	16.0774
-38.6997	497.8768	16.0969
-38.6962	505.2728	16.1165
-38.6965	498.146	16.136
-38.6943	499.492	16.1555
-38.6925	503.988	16.175
-38.6916	504.526	16.19458
-38.6898	500.333	16.2141
-38.6878	507.178	16.2336
-38.6861	502.956	16.2532
-38.6847	502.817	16.2727
-38.68166	504.028	16.2922
-38.68	508.352	16.3118
-38.6793	502.854	16.3313
-38.679	506.005	16.35083
-38.6744	507.757	16.3704
-38.6749	507.115	16.3899
-38.6728	504.255	16.4094
-38.6712	510.858	16.429
-38.6693	508.3111	16.4485
-38.6681	506.587	16.468
-38.6671	509.6156	16.4875
-38.6648	509.155	16.50708
-38.6619	506.546	16.5266
-38.6612	512.17	16.5461
-38.6589	514.035	16.5657
-38.6579	506.299	16.5852
-38.6578	510.749	16.6047
-38.65575	514.917	16.6243
-38.6538	510.51	16.6438
-38.6521	510.182	16.66333
-38.6502	517.028	16.6829
-38.6491	508.86	16.7024
-38.6459	512.22	16.7219
-38.6441	515.845	16.7415
-38.6435	513.41	16.761
-38.6417	511.143	16.7805
-38.6409	519.176	16.8
-38.6381	513.035	16.81958
-38.6363	513.088	16.8391
-38.6351	516.128	16.8586
-38.6323	519.121	16.8782
-38.63237	513.539	16.8977
-38.6299	518.496	16.9172
-38.629	516.4	16.9368
-38.6271	515.719	16.9563
-38.62508	515.865	16.97583
-38.625	520.556	16.9954
-38.623	517.213	17.0149
-38.6212	515.964	17.0344
-38.61956	521.828	17.054
-38.6177	518.674	17.0735
-38.6149	517.127	17.093
-38.6145	520.524	17.1125
-38.6133	520.75	17.13208
-38.6106	516.483	17.1516
-38.6084	521.06	17.1711
-38.6082	522.26	17.1907
-38.6062	514.929	17.2102
-38.6039	519.761	17.2297
-38.6025	527.041	17.2493
-38.6008	517.569	17.2688
-38.60004	519.3526	17.28833
-38.5972	524.844	17.3079
-38.5965	520.595	17.3274
-38.5947	520.782	17.3469
-38.5933	527.472	17.3665
-38.5916	520.061	17.386
-38.5897	520.883	17.4055
-38.5882	525.172	17.425
-38.5865	524.81	17.44458
-38.5847	519.733	17.4641
-38.5824	527.947	17.4836
-38.5817	523.169	17.5032
-38.5802	522.177	17.5227
-38.5788	522.139	17.5422
-38.5762	528.285	17.5618
-38.5752	522.32	17.5813
-38.57291	524.225	17.60083
-38.5719	526.061	17.6204
-38.5701	524.934	17.6399
-38.568	522.656	17.6594
-38.567	528.3692	17.679
-38.565	525.749	17.6985
-38.564	523.531	17.718
-38.5621	525.626	17.7375
-38.5606	527.381	17.75708
-38.5589	522.15	17.7766
-38.5585	525.749	17.7961
-38.5554	529.422	17.8157
-38.55365	522.882	17.8352
-38.5516	525.954	17.8547
-38.5506	529.956	17.8743
-38.5486	522.801	17.8938
-38.5474	523.635	17.91333
-38.5461	533.084	17.9329
-38.5444	525.682	17.9524
-38.5418	525.731	17.9719
-38.54147	528.861	17.9915
-38.5393	526.554	18.011
-38.53801	523.698	18.0305
-38.5363	532.335	18.05
-38.5341	524.893	18.06958
-38.534	523.839	18.0891
-38.5311	528.148	18.1086
-38.5295	529.968	18.1282
-38.528	524.687	18.1477
-38.5268	529.035	18.1672
-38.5255	526.421	18.1868
-38.5236	525.959	18.2063
-38.5217	524.698	18.22583
-38.5191	530.066	18.2454
-38.5187	525.51	18.2649
-38.5179	525.997	18.2844
-38.5148	529.214	18.304
-38.5134	527.787	18.3235
-38.5118	522.637	18.343
-38.51017	530.187	18.3625
-38.5084	529.153	18.38208
-38.5065	525.412	18.4016
-38.5051	525.923	18.4211
-38.5026	528.993	18.4407
-38.5022	524.541	18.4602
-38.5004	525.263	18.4797
-38.49852	530.7229	18.4993
-38.4973	523.108	18.5188
-38.4954	523.973	18.53833
-38.4935	530.373	18.5579
-38.4917	524.138	18.5774
-38.4914	522.014	18.5969
-38.4894	529.798	18.6165
-38.4881	524.679	18.636
-38.4854	523.4751	18.6555
-38.4839	527.722	18.675
-38.4824	525.991	18.69458
-38.4802	523.263	18.7141
-38.4796	529.6925	18.7336
-38.4769	525.7099	18.7532
-38.4763	523.9093	18.7727
-38.4751	524.055	18.7922
-38.4731	528.663	18.8118
-38.4719	523.763	18.8313
-38.468	526.231	18.85083
-38.4669	525.855	18.8704
-38.46579	525.026	18.8899
-38.4647	523.054	18.9094
-38.4626	529.107	18.929
-38.4613	525.47	18.9485
-38.4596	523.4939	18.968
-38.458	526.058	18.9875
-38.45554	527.161	19.00708
-38.455	519.025	19.0266
-38.45274	526.648	19.0461
-38.4515	528.981	19.0657
-38.4499	523.074	19.0852
-38.4474	523.547	19.1047
-38.4468	527.369	19.1243
-38.4451	520.754	19.1438
-38.4433	522.905	19.16333
-38.4411	529.734	19.1829
-38.4394	521.423	19.2024
-38.43869	521.011	19.2219
-38.4371	526.874	19.2415
-38.4359	522.934	19.261
-38.433	520.318	19.2805
-38.4318	528.016	19.3
-38.4293	523.128	19.31958
-38.4284	519.347	19.3391
-38.4272	523.374	19.3586
-38.4263	524.639	19.3782
-38.4248	520.711	19.3977
-38.4209	526.678	19.4172
-38.4214	524.644	19.4368
-38.419	520.635	19.4563
-38.417	519.5	19.47583
-38.4159	526.4176	19.4954
-38.4139	522.471	19.5149
-38.4127	522.479	19.5344
-38.41111	524.6322	19.554
-38.4089	522.118	19.5735
-38.4076	517.319	19.593
-38.4057	525.645	19.6125
-38.4051	523.131	19.63208
-38.4025	520.495	19.6516
-38.4006	522.57	19.6711
-38.4	525.602	19.6907
-38.3973	518.43	19.7102
-38.3948	521.753	19.7297
-38.3941	526.871	19.7493
-38.3927	518.609	19.7688
-38.3925	519.076	19.78833
-38.3886	523.1106	19.8079
-38.3879	518.8172	19.8274
-38.3856	519.432	19.8469
-38.3839	527.6839	19.8665
-38.3834	519.697	19.886
-38.3811	517.449	19.9055
-38.379	522.847	19.925
-38.3782	524.229	19.94458
-38.3775	517.662	19.9641
-38.3743	523.418	19.9836
-38.37323	520.171	20.0032
-38.3726	518.932	20.0129

Data Header:			0.254_hd_uprint_typeiv_4545_r0			Time:	40.0178	s	4/13/2019 7:22:23 PM
Data Acquisition:	Timed
Station Name:	ft40.cfg
Test File Name:	monotonic_0.2540_typeiv_hd_4545_uprint.tst
Displacement	Force	Running Time
mm	N	s
-38.3726	518.726	20.0227
-38.37014	520.217	20.0422
-38.3675	523.408	20.0618
-38.3673	516.8429	20.0813
-38.3657	520.8808	20.10083
-38.363	522.1748	20.1204
-38.3621	520.099	20.1399
-38.3594	516.548	20.1594
-38.3581	522.513	20.179
-38.35685	521.035	20.1985
-38.3552	518.079	20.218
-38.3539	519.253	20.2375
-38.3528	520.538	20.25708
-38.351	513.897	20.2766
-38.3496	521.464	20.2961
-38.3473	523.218	20.3157
-38.34594	516.911	20.3352
-38.3433	518.396	20.3547
-38.3418	524.009	20.3743
-38.3412	516.437	20.3938
-38.3383	517.815	20.41333
-38.3376	523.165	20.4329
-38.3348	517.413	20.4524
-38.3332	516.991	20.4719
-38.3324	521.98	20.4915
-38.3308	517.466	20.511
-38.3299	514.79	20.5305
-38.3284	524.346	20.55
-38.3255	518.016	20.56958
-38.3241	513.484	20.5891
-38.3237	518.215	20.6086
-38.32172	521.2193	20.6282
-38.3195	515.617	20.6477
-38.3187	521.625	20.6672
-38.3167	519.101	20.6868
-38.3151	516.9967	20.7063
-38.3125	516.478	20.72583
-38.3114	522.944	20.7454
-38.3097	515.339	20.7649
-38.3072	516.913	20.7844
-38.3069	519.6604	20.804
-38.3043	518.693	20.8235
-38.3027	514.476	20.843
-38.3016	521.547	20.8625
-38.29921	519.727	20.88208
-38.2991	517.06	20.9016
-38.2981	517.763	20.9211
-38.2944	521.628	20.9407
-38.2934	512.329	20.9602
-38.2925	517.9	20.9797
-38.2906	522.766	20.9993
-38.28957	515.339	21.0188
-38.2865	513.269	21.03833
-38.2857	521.799	21.0579
-38.2839	514.799	21.0774
-38.28228	514.7619	21.0969
-38.2801	523.175	21.1165
-38.2781	515.2666	21.136
-38.2773	514.424	21.1555
-38.2758	519.2243	21.175
-38.2751	516.587	21.19458
-38.272	511.715	21.2141
-38.2704	520.395	21.2336
-38.2695	518.036	21.2532
-38.2672	515.277	21.2727
-38.2657	516.741	21.2922
-38.263	520.164	21.3118
-38.2623	513.958	21.3313
-38.2608	517.482	21.35083
-38.2597	517.522	21.3704
-38.25716	515.857	21.3899
-38.2556	513.736	21.4094
-38.2546	521.087	21.429
-38.2524	517.093	21.4485
-38.2508	514.612	21.468
-38.2509	516.37	21.4875
-38.2479	518.807	21.50708
-38.2456	511.4549	21.5266
-38.24485	518.767	21.5461
-38.2426	517.922	21.5657
-38.2414	514.273	21.5852
-38.2391	515.647	21.6047
-38.2384	521.035	21.6243
-38.2355	512.146	21.6438
-38.2363	514.8952	21.66333
-38.2335	520.564	21.6829
-38.2311	514.799	21.7024
-38.2309	511.339	21.7219
-38.2286	518.335	21.7415
-38.2271	515.213	21.761
-38.2247	512.194	21.7805
-38.2244	520.125	21.8
-38.2217	514.935	21.81958
-38.2205	511.493	21.8391
-38.2181	517.4071	21.8586
-38.2163	518.262	21.8782
-38.215	510.501	21.8977
-38.2134	516.294	21.9172
-38.2114	516.427	21.9368
-38.211	513.1665	21.9563
-38.2093	512.3551	21.97583
-38.2076	517.957	21.9954
-38.205	512.052	22.0149
-38.2044	514.772	22.0344
-38.20277	516.047	22.054
-38.2006	515.005	22.0735
-38.1995	510.227	22.093
-38.1969	517.103	22.1125
-38.1963	514.63	22.13208
-38.19318	512.093	22.1516
-38.19265	512.555	22.1711
-38.19091	516.628	22.1907
-38.18977	509.675	22.2102
-38.1877	515.061	22.2297
-38.1862	516.77	22.2493
-38.1846	510.626	22.2688
-38.1831	510.99	22.28833
-38.1811	518.919	22.3079
-38.1805	511.371	22.3274
-38.1781	510.743	22.3469
-38.17561	519.28	22.3665
-38.1756	514.91	22.386
-38.1733	509.549	22.4055
-38.1718	515.643	22.425
-38.1711	514.005	22.44458
-38.1696	509.685	22.4641
-38.1666	517.9071	22.4836
-38.1656	514.106	22.5032
-38.1636	509.858	22.5227
-38.161	513.119	22.5422
-38.1601	517.334	22.5618
-38.1584	511.004	22.5813
-38.1568	513.254	22.60083
-38.1561	515.235	22.6204
-38.1529	512.729	22.6399
-38.1522	510.503	22.6594
-38.1499	516.894	22.679
-38.148	515.181	22.6985
-38.1474	511.75	22.718
-38.1454	513.471	22.7375
-38.14394	515.637	22.75708
-38.1415	508.2627	22.7766
-38.14064	515.816	22.7961
-38.1381	515.831	22.8157
-38.1372	512.972	22.8352
-38.1358	509.615	22.8547
-38.1343	517.357	22.8743
-38.1319	509.6572	22.8938
-38.131	511.288	22.91333
-38.1281	517.2	22.9329
-38.128	511.144	22.9524
-38.1261	508.131	22.9719
-38.1236	515.887	22.9915
-38.1227	512.0238	23.011
-38.122	507.821	23.0305
-38.1195	516.864	23.05
-38.117	512.9928	23.06958
-38.1151	509.017	23.0891
-38.1149	514.527	23.1086
-38.113	513.396	23.1282
-38.11113	508.8	23.1477
-38.1098	514.409	23.1672
-38.1089	515.286	23.1868
-38.1059	508.975	23.2063
-38.1047	510.289	23.22583
-38.10376	515.931	23.2454
-38.1016	512.1261	23.2649
-38.10043	513.096	23.2844
-38.0977	512.871	23.304
-38.097	514.094	23.3235
-38.0944	508.696	23.343
-38.0924	515.811	23.3625
-38.092	512.913	23.38208
-38.0913	510.141	23.4016
-38.088	509.538	23.4211
-38.0854	515.902	23.4407
-38.0855	508.443	23.4602
-38.08289	511.989	23.4797
-38.0818	516.228	23.4993
-38.0804	510.282	23.5188
-38.0775	509.868	23.53833
-38.0748	515.963	23.5579
-38.0751	510.687	23.5774
-38.0735	509.893	23.5969
-38.0713	517.152	23.6165
-38.0705	510.343	23.636
-38.0689	504.562	23.6555
-38.0676	516.433	23.675
-38.0658	511.38	23.69458
-38.0637	507.104	23.7141
-38.0624	513.111	23.7336
-38.0625	511.822	23.7532
-38.0598	508.08	23.7727
-38.0581	511.012	23.7922
-38.0556	514.335	23.8118
-38.054	507.561	23.8313
-38.0518	511.774	23.85083
-38.0522	514.4	23.8704
-38.0493	509.8161	23.8899
-38.0477	508.032	23.9094
-38.0453	513.952	23.929
-38.0442	511.956	23.9485
-38.0435	510.99	23.968
-38.0415	510.847	23.9875
-38.0395	512.6593	24.00708
-38.0385	507.758	24.0266
-38.0356	514.115	24.0461
-38.0351	514.0097	24.0657
-38.0335	508.206	24.0852
-38.0324	508.216	24.1047
-38.0293	515.518	24.1243
-38.02874	506.305	24.1438
-38.02599	510.853	24.16333
-38.0247	513.1449	24.1829
-38.0237	510.075	24.2024
-38.021	507.23	24.2219
-38.0199	515.2146	24.2415
-38.01857	509.025	24.261
-38.01767	508.5191	24.2805
-38.0158	514.937	24.3
-38.0138	512.198	24.31958
-38.0125	504.42	24.3391
-38.0105	512.741	24.3586
-38.0079	512.923	24.3782
-38.0069	506.779	24.3977
-38.00481	513.797	24.4172
-38.004	511.822	24.4368
-38.0025	506.067	24.4563
-38.0008	508.922	24.47583
-37.9987	513.031	24.4954
-37.9981	507.317	24.5149
-37.9955	509.349	24.5344
-37.9934	510.466	24.554
-37.9928	509.537	24.5735
-37.9902	507.531	24.593
-37.9893	512.792	24.6125
-37.98745	510.184	24.63208
-37.9857	507.293	24.6516
-37.9834	509.262	24.6711
-37.9818	511.851	24.6907
-37.9805	504.331	24.7102
-37.98027	509.56	24.7297
-37.9777	513.9903	24.7493
-37.9757	507.6217	24.7688
-37.9749	506.792	24.78833
-37.9742	514.003	24.8079
-37.9715	507.424	24.8274
-37.9698	506.954	24.8469
-37.96772	512.522	24.8665
-37.9663	510.185	24.886
-37.9634	504.357	24.9055
-37.9624	513.211	24.925
-37.9614	508.5011	24.94458
-37.9602	505.803	24.9641
-37.9584	511.552	24.9836
-37.957	510.653	25.0032
-37.954	504.72	25.0227
-37.9532	508.604	25.0422
-37.9512	511.107	25.0618
-37.9507	505.999	25.0813
-37.9495	511.38	25.10083
-37.9465	511.573	25.1204
-37.946	505.265	25.1399
-37.94474	506.887	25.1594
-37.9413	512.871	25.179
-37.9402	508.363	25.1985
-37.939	509.114	25.218
-37.9364	508.873	25.2375
-37.93565	510.8877	25.25708
-37.9353	504.984	25.2766
-37.9332	510.725	25.2961
-37.9314	510.0975	25.3157
-37.9289	507.176	25.3352
-37.9288	506.789	25.3547
-37.9269	512.546	25.3743
-37.9238	504.093	25.3938
-37.9223	508.949	25.41333
-37.92065	513.229	25.4329
-37.9193	509.558	25.4524
-37.9181	503.7074	25.4719
-37.9157	513.305	25.4915
-37.9148	506.98	25.511
-37.9122	507.173	25.5305
-37.9099	512.7785	25.55
-37.9088	509.482	25.56958
-37.9075	503.844	25.5891
-37.9062	512.402	25.6086
-37.9041	509.922	25.6282
-37.9029	504.4697	25.6477
-37.9018	510.671	25.6672
-37.9	510.696	25.6868
-37.8977	503.798	25.7063
-37.8972	505.048	25.72583
-37.8954	509.864	25.7454
-37.8926	506.077	25.7649
-37.8913	509.1619	25.7844
-37.8895	510.06	25.804
-37.8884	507.311	25.8235
-37.8861	503.252	25.843
-37.8851	510.998	25.8625
-37.8836	509.3674	25.88208
-37.8822	507.449	25.9016
-37.88031	506.258	25.9211
-37.87775	511.214	25.9407
-37.8777	504.352	25.9602
-37.8749	509.507	25.9797
-37.8746	511.655	25.9993
-37.87233	506.758	26.0188
-37.8695	503.435	26.03833
-37.86871	512.953	26.0579
-37.8676	505.122	26.0774
-37.8649	505.355	26.0969
-37.8636	512.536	26.1165
-37.8623	509.655	26.136
-37.8609	502.48	26.1555
-37.8586	511.069	26.175
-37.8576	507.521	26.19458
-37.8561	506.265	26.2141
-37.85445	509.237	26.2336
-37.8523	510.162	26.2532
-37.8513	502.6676	26.2727
-37.8505	508.904	26.2922
-37.848	510.8	26.3118
-37.8454	504.73	26.3313
-37.8438	507.532	26.35083
-37.8426	510.055	26.3704
-37.842	505.446	26.3899
-37.8395	505.146	26.4094
-37.838	510.298	26.429
-37.8351	506.258	26.4485
-37.834	506.036	26.468
-37.8332	508.203	26.4875
-37.8312	508.441	26.50708
-37.8292	502.9437	26.5266
-37.8275	508.638	26.5461
-37.8259	509.179	26.5657
-37.8246	504.077	26.5852
-37.8226	504.223	26.6047
-37.821	510.6756	26.6243
-37.82	504.606	26.6438
-37.8184	506.692	26.66333
-37.8163	510.202	26.6829
-37.81477	506.549	26.7024
-37.81263	501.958	26.7219
-37.8124	512.113	26.7415
-37.81	504.843	26.761
-37.8092	504.161	26.7805
-37.8069	508.923	26.8
-37.805	508.004	26.81958
-37.804	499.772	26.8391
-37.8014	510.434	26.8586
-37.8007	507.232	26.8782
-37.7989	501.763	26.8977
-37.7968	507.842	26.9172
-37.7943	509.523	26.9368
-37.7933	501.161	26.9563
-37.7905	506.075	26.97583
-37.7914	509.95	26.9954
-37.7897	504.136	27.0149
-37.7878	506.67	27.0344
-37.7867	508.779	27.054
-37.7838	505.4	27.0735
-37.7825	504.566	27.093
-37.7805	509.306	27.1125
-37.7799	506.678	27.13208
-37.7777	504.186	27.1516
-37.7758	506.306	27.1711
-37.7749	509.602	27.1907
-37.7722	503.502	27.2102
-37.771	507.015	27.2297
-37.7707	508.267	27.2493
-37.7686	506.018	27.2688
-37.7665	502.178	27.28833
-37.7647	509.641	27.3079
-37.7635	502.473	27.3274
-37.7605	506.006	27.3469
-37.76001	509.521	27.3665
-37.7588	506.524	27.386
-37.7559	499.431	27.4055
-37.754	509.474	27.425
-37.7534	504.296	27.44458
-37.752	503.04	27.4641
-37.7499	508.181	27.4836
-37.74828	508.658	27.5032
-37.7465	501.136	27.5227
-37.7456	506.031	27.5422
-37.74258	507.195	27.5618
-37.7416	502.181	27.5813
-37.7392	506.423	27.60083
-37.7386	510.239	27.6204
-37.7373	502.1875	27.6399
-37.7357	504.731	27.6594
-37.734	507.683	27.679
-37.73238	503.919	27.6985
-37.7304	504.269	27.718
-37.7288	506.937	27.7375
-37.7275	504.651	27.75708
-37.7257	502.011	27.7766
-37.7243	508.328	27.7961
-37.72229	507.694	27.8157
-37.7204	502.141	27.8352
-37.7188	504.373	27.8547
-37.7165	510.4025	27.8743
-37.71516	502.852	27.8938
-37.7139	505.969	27.91333
-37.7126	507.954	27.9329
-37.7109	506.563	27.9524
-37.7088	501.683	27.9719
-37.7078	509.394	27.9915
-37.7056	503.709	28.011
-37.7048	503.437	28.0305
-37.7015	509.296	28.05
-37.7007	508.236	28.06958
-37.69873	498.542	28.0891
-37.6987	507.605	28.1086
-37.6973	505.537	28.1282
-37.6942	502.521	28.1477
-37.6931	507.286	28.1672
-37.6915	508.72	28.1868
-37.6897	500.439	28.2063
-37.68705	505.788	28.22583
-37.6864	507.637	28.2454
-37.6853	501.607	28.2649
-37.683	504.1846	28.2844
-37.6823	509.298	28.304
-37.68	503.949	28.3235
-37.6788	501.01	28.343
-37.6765	507.867	28.3625
-37.67601	506.1683	28.38208
-37.6732	504.606	28.4016
-37.6716	506.702	28.4211
-37.6709	507.045	28.4407
-37.6686	500.567	28.4602
-37.6677	506.879	28.4797
-37.6642	506.663	28.4993
-37.6632	503.951	28.5188
-37.6617	501.4993	28.53833
-37.6609	510.442	28.5579
-37.66013	500.7146	28.5774
-37.6565	503.52	28.5969
-37.6558	506.521	28.6165
-37.6545	505.232	28.636
-37.65213	499.45	28.6555
-37.6495	508.817	28.675
-37.6487	502.88	28.69458
-37.6478	501.999	28.7141
-37.64476	507.121	28.7336
-37.6441	508.256	28.7532
-37.6428	499.329	28.7727
-37.6413	505.644	28.7922
-37.6401	507.728	28.8118
-37.6374	502.434	28.8313
-37.6365	504.552	28.85083
-37.6344	508.078	28.8704
-37.6319	500.286	28.8899
-37.6307	503.717	28.9094
-37.6297	508.3096	28.929
-37.6276	503.374	28.9485
-37.6265	503.15	28.968
-37.6251	505.36	28.9875
-37.6225	506.001	29.00708
-37.6217	501.283	29.0266
-37.6197	504.724	29.0461
-37.6173	504.82	29.0657
-37.6169	503.2301	29.0852
-37.6148	504.804	29.1047
-37.6135	507.646	29.1243
-37.6122	499.804	29.1438
-37.6092	504.6351	29.16333
-37.6077	506.984	29.1829
-37.60598	504.606	29.2024
-37.6044	498.866	29.2219
-37.604	508.747	29.2415
-37.6016	502.0101	29.261
-37.6003	502.872	29.2805
-37.5987	508.138	29.3
-37.5962	506.64	29.31958
-37.597	498.496	29.3391
-37.5932	507.186	29.3586
-37.5917	506.271	29.3782
-37.5908	500.736	29.3977
-37.5887	505.902	29.4172
-37.5877	508.8775	29.4368
-37.5857	499.549	29.4563
-37.58416	503.2301	29.47583
-37.5828	506.897	29.4954
-37.58	501.788	29.5149
-37.5789	503.295	29.5344
-37.5782	508.218	29.554
-37.5773	501.571	29.5735
-37.5739	501.3551	29.593
-37.5735	506.377	29.6125
-37.5714	503.512	29.63208
-37.5697	502.154	29.6516
-37.5679	504.835	29.6711
-37.5651	505.276	29.6907
-37.564	500.114	29.7102
-37.5633	503.965	29.7297
-37.5609	506.089	29.7493
-37.5601	503.686	29.7688
-37.55788	502.03	29.78833
-37.5558	508.585	29.8079
-37.55534	501.261	29.8274
-37.5534	501.625	29.8469
-37.5521	507.314	29.8665
-37.55	504.233	29.886
-37.5467	498.171	29.9055
-37.5466	507.476	29.925
-37.5445	503.587	29.94458
-37.5433	499.912	29.9641
-37.5416	507.233	29.9836
-37.5405	507.2	30.0032
-37.539	498.578	30.0227
-37.5382	505.158	30.0422
-37.53476	507.745	30.0618
-37.534	501.672	30.0813
-37.5309	503.02	30.10083
-37.5299	508.4411	30.1204
-37.5284	499.392	30.1399
-37.5272	504.277	30.1594
-37.5251	507.136	30.179
-37.5228	502.301	30.1985
-37.5231	501.001	30.218
-37.5207	507.088	30.2375
-37.5192	502.383	30.25708
-37.5176	499.562	30.2766
-37.5154	507.026	30.2961
-37.514	505.809	30.3157
-37.5121	501.652	30.3352
-37.51	501.954	30.3547
-37.5094	507.051	30.3743
-37.5068	501.2858	30.3938
-37.50597	502.947	30.41333
-37.504	505.269	30.4329
-37.5014	504.06	30.4524
-37.5006	499.78	30.4719
-37.50005	508.1814	30.4915
-37.4987	502.338	30.511
-37.4956	500.157	30.5305
-37.4939	504.765	30.55
-37.4926	506.828	30.56958
-37.4922	497.365	30.5891
-37.4885	505.831	30.6086
-37.4875	502.989	30.6282
-37.4858	499.1	30.6477
-37.4843	505.6926	30.6672
-37.4827	507.858	30.6868
-37.4809	496.779	30.7063
-37.4797	503.068	30.72583
-37.4781	505.509	30.7454
-37.4766	502.197	30.7649
-37.4755	502.523	30.7844
-37.4731	507.769	30.804
-37.4718	501.475	30.8235
-37.4699	502.105	30.843
-37.4694	505.629	30.8625
-37.4675	502.753	30.88208
-37.4653	499.8	30.9016
-37.4634	504.655	30.9211
-37.4613	503.033	30.9407
-37.4602	497.034	30.9602
-37.4586	503.819	30.9797
-37.45628	505.029	30.9993
-37.4556	501.31	31.0188
-37.4552	499.2478	31.03833
-37.4522	505.1344	31.0579
-37.4496	499.84	31.0774
-37.4486	501.257	31.0969
-37.4462	505.298	31.1165
-37.4447	501.011	31.136
-37.44429	497.151	31.1555
-37.4423	508.21	31.175
-37.4416	503.247	31.19458
-37.44	499.6041	31.2141
-37.43848	505.096	31.2336
-37.4356	505.614	31.2532
-37.4352	497.143	31.2727
-37.4317	504.784	31.2922
-37.4316	503.273	31.3118
-37.4298	498.301	31.3313
-37.428	501.99	31.35083
-37.4265	506.407	31.3704
-37.4246	497.27	31.3899
-37.42305	499.918	31.4094
-37.42104	504.428	31.429
-37.4196	502.574	31.4485
-37.418	499.148	31.468
-37.4167	504.569	31.4875
-37.4139	501	31.50708
-37.41325	500.723	31.5266
-37.4121	502.673	31.5461
-37.4095	503.911	31.5657
-37.4084	500.366	31.5852
-37.40646	503.026	31.6047
-37.4031	505.9007	31.6243
-37.4021	498.1	31.6438
-37.401	500.084	31.66333
-37.3993	504.0766	31.6829
-37.3982	502.159	31.7024
-37.3981	497.845	31.7219
-37.3957	505.954	31.7415
-37.393	499.862	31.761
-37.3917	498.176	31.7805
-37.3903	505.704	31.8
-37.3881	505.292	31.81958
-37.3864	496.274	31.8391
-37.3849	506.0535	31.8586
-37.383	503.379	31.8782
-37.3813	498.065	31.8977
-37.3806	501.628	31.9172
-37.3787	505.337	31.9368
-37.3776	496.176	31.9563
-37.3753	502.299	31.97583
-37.3734	504.2392	31.9954
-37.3718	498.363	32.0149
-37.372	501.933	32.0344
-37.36924	505.867	32.054
-37.3683	498.224	32.0735
-37.3651	498.381	32.093
-37.3644	502.946	32.1125
-37.3625	502.362	32.13208
-37.3611	498.8382	32.1516
-37.3593	501.961	32.1711
-37.3584	500.755	32.1907
-37.3567	499.903	32.2102
-37.3543	503.081	32.2297
-37.353	502.047	32.2493
-37.3513	498.936	32.2688
-37.3504	499.8923	32.28833
-37.3475	504.916	32.3079
-37.3462	498.6199	32.3274
-37.34536	498.873	32.3469
-37.3432	502.561	32.3665
-37.3415	502.307	32.386
-37.34	497.641	32.4055
-37.339	504.644	32.425
-37.3364	499.164	32.44458
-37.3351	498.3	32.4641
-37.3338	502.4339	32.4836
-37.3321	505.092	32.5032
-37.33036	494.495	32.5227
-37.3288	502.012	32.5422
-37.3276	503.79	32.5618
-37.32489	499.251	32.5813
-37.32386	500.471	32.60083
-37.3225	503.691	32.6204
-37.3197	496.886	32.6399
-37.3179	500.734	32.6594
-37.3168	504.241	32.679
-37.316	498.8548	32.6985
-37.3134	497.635	32.718
-37.311	504.427	32.7375
-37.31004	500.788	32.75708
-37.30983	497.418	32.7766
-37.3073	501.306	32.7961
-37.306	502.726	32.8157
-37.3043	500.425	32.8352
-37.3023	501.206	32.8547
-37.3006	502.495	32.8743
-37.2996	498.117	32.8938
-37.2976	500.369	32.91333
-37.2957	504.509	32.9329
-37.2943	500.4537	32.9524
-37.2927	496.117	32.9719
-37.2898	504.696	32.9915
-37.2904	499.315	33.011
-37.2868	498.752	33.0305
-37.2848	501.923	33.05
-37.2839	503.439	33.06958
-37.2824	496.4928	33.0891
-37.2808	504.402	33.1086
-37.2789	502.609	33.1282
-37.2777	498.126	33.1477
-37.276	502.047	33.1672
-37.2758	505.9899	33.1868
-37.2719	495.841	33.2063
-37.2711	500.097	33.22583
-37.2697	502.302	33.2454
-37.2688	498.652	33.2649
-37.2659	499.1412	33.2844
-37.264	504.453	33.304
-37.2631	496.513	33.3235
-37.2613	499.2258	33.343
-37.2595	502.72	33.3625
-37.2585	499.855	33.38208
-37.2567	497.813	33.4016
-37.2556	499.987	33.4211
-37.2525	500.603	33.4407
-37.253	495.784	33.4602
-37.2502	499.242	33.4797
-37.2494	501.314	33.4993
-37.2471	498.4292	33.5188
-37.2455	497.957	33.53833
-37.2442	503.188	33.5579
-37.242	496.559	33.5774
-37.2418	497.766	33.5969
-37.2388	502.349	33.6165
-37.2367	500.317	33.636
-37.234	492.139	33.6555
-37.2339	501.891	33.675
-37.2318	498.091	33.69458
-37.2311	495.285	33.7141
-37.2289	500.0462	33.7336
-37.2273	502.463	33.7532
-37.2257	494.0715	33.7727
-37.2241	500.837	33.7922
-37.22221	501.663	33.8118
-37.2213	495.28	33.8313
-37.2189	498.566	33.85083
-37.218	503.746	33.8704
-37.2165	494.79	33.8899
-37.2152	497.998	33.9094
-37.2114	501.03	33.929
-37.2113	498.96	33.9485
-37.20863	498.353	33.968
-37.2084	503.001	33.9875
-37.2053	497.2616	34.00708
-37.2062	497.663	34.0266
-37.2029	500.4769	34.0461
-37.2013	500.6503	34.0657
-37.1996	496.289	34.0852
-37.1985	497.942	34.1047
-37.1967	501.678	34.1243
-37.1956	496.762	34.1438
-37.1926	499.101	34.16333
-37.192	501.953	34.1829
-37.1888	499.096	34.2024
-37.1893	496.6019	34.2219
-37.1874	503.64	34.2415
-37.1855	498.77	34.261
-37.1828	496.881	34.2805
-37.1821	502.032	34.3
-37.1806	502.901	34.31958
-37.17907	493.582	34.3391
-37.1768	500.743	34.3586
-37.175	499.334	34.3782
-37.1745	496.435	34.3977
-37.1727	500.2066	34.4172
-37.1706	502.632	34.4368
-37.1699	493.992	34.4563
-37.167	502.04	34.47583
-37.1668	501.99	34.4954
-37.1636	496.592	34.5149
-37.1626	498.228	34.5344
-37.1616	503.239	34.554
-37.1577	496.255	34.5735
-37.1577	496.907	34.593
-37.1561	500.39	34.6125
-37.1551	499.009	34.63208
-37.1516	496.396	34.6516
-37.1514	500.309	34.6711
-37.1495	499.11	34.6907
-37.1473	495.424	34.7102
-37.1458	499.662	34.7297
-37.1437	500.452	34.7493
-37.1433	498.72	34.7688
-37.14064	496.205	34.78833
-37.1392	500.832	34.8079
-37.1381	497.852	34.8274
-37.136	496.947	34.8469
-37.1347	500.7146	34.8665
-37.1334	499.466	34.886
-37.1313	492.909	34.9055
-37.1294	501.902	34.925
-37.1284	498.188	34.94458
-37.1263	494.9082	34.9641
-37.1252	500.656	34.9836
-37.1226	502.19	35.0032
-37.12125	492.488	35.0227
-37.1204	498.979	35.0422
-37.1181	499.698	35.0618
-37.117	495.966	35.0813
-37.1157	498.523	35.10083
-37.1135	502.5524	35.1204
-37.1114	491.852	35.1399
-37.1093	497.395	35.1594
-37.1093	501.243	35.179
-37.106	499.315	35.1985
-37.105	496.9184	35.218
-37.1034	500.572	35.2375
-37.1023	496.8165	35.25708
-37.1005	494.43	35.2766
-37.09893	497.5787	35.2961
-37.0979	497.0752	35.3157
-37.0949	494.508	35.3352
-37.0935	497.28	35.3547
-37.0917	500.371	35.3743
-37.0914	494.846	35.3938
-37.0885	496.596	35.41333
-37.08812	501.438	35.4329
-37.0855	499.778	35.4524
-37.084	494.472	35.4719
-37.082	501.166	35.4915
-37.0808	495.517	35.511
-37.07967	496.209	35.5305
-37.0775	500.336	35.55
-37.0766	498.941	35.56958
-37.0736	492.704	35.5891
-37.0723	502.026	35.6086
-37.0708	498.432	35.6282
-37.0705	493.419	35.6477
-37.06752	499.381	35.6672
-37.0661	503.092	35.6868
-37.0646	491.485	35.7063
-37.0637	498.454	35.72583
-37.0617	499.725	35.7454
-37.0589	495.218	35.7649
-37.0583	494.925	35.7844
-37.0574	501.4444	35.804
-37.0544	494.263	35.8235
-37.05302	494.279	35.843
-37.0518	499.172	35.8625
-37.0507	496.691	35.88208
-37.04921	493.6636	35.9016
-37.04726	498.3988	35.9211
-37.0452	497.575	35.9407
-37.0428	494.528	35.9602
-37.0425	497.109	35.9797
-37.0408	497.483	35.9993
-37.0378	495.034	36.0188
-37.0374	494.522	36.03833
-37.0356	499.307	36.0579
-37.0338	493.812	36.0774
-37.0338	494.761	36.0969
-37.0307	499.119	36.1165
-37.0293	497.358	36.136
-37.0271	491.78	36.1555
-37.0256	499.0899	36.175
-37.0235	495.236	36.19458
-37.0224	492.589	36.2141
-37.0206	499.348	36.2336
-37.0195	499.426	36.2532
-37.017	491.102	36.2727
-37.01585	498.768	36.2922
-37.0142	498.888	36.3118
-37.0126	492.878	36.3313
-37.0096	496.543	36.35083
-37.01	499.593	36.3704
-37.008	492.029	36.3899
-37.0059	494.508	36.4094
-37.0048	497.579	36.429
-37.003	495.344	36.4485
-37.0014	495.328	36.468
-37.0005	499.614	36.4875
-36.9975	495.503	36.50708
-36.9965	493.409	36.5266
-36.9952	496.219	36.5461
-36.993	497.083	36.5657
-36.9911	492.587	36.5852
-36.9898	496.492	36.6047
-36.9879	497.581	36.6243
-36.987	492.629	36.6438
-36.9848	494.5502	36.66333
-36.9839	497.627	36.6829
-36.9815	493.5282	36.7024
-36.98	490.62	36.7219
-36.9783	498.218	36.7415
-36.9781	493.97	36.761
-36.9761	492.365	36.7805
-36.97369	498.721	36.8
-36.9725	498.222	36.81958
-36.9705	490.72	36.8391
-36.96954	498.5697	36.8586
-36.9667	495.3233	36.8782
-36.9653	491.917	36.8977
-36.96365	497.228	36.9172
-36.9625	500.145	36.9368
-36.9605	489.422	36.9563
-36.95858	495.318	36.97583
-36.9573	497.429	36.9954
-36.9553	492.534	37.0149
-36.9539	492.6449	37.0344
-36.9522	498.7634	37.054
-36.94976	492.22	37.0735
-36.9501	492.829	37.093
-36.9474	496.6	37.1125
-36.9457	492.855	37.13208
-36.9441	491.531	37.1516
-36.9428	498.02	37.1711
-36.9398	495.326	37.1907
-36.9389	491.827	37.2102
-36.9377	493.23	37.2297
-36.9352	496.39	37.2493
-36.9343	494.145	37.2688
-36.9315	491.692	37.28833
-36.9319	497.127	37.3079
-36.92947	492.15	37.3274
-36.9275	491.328	37.3469
-36.92675	497.257	37.3665
-36.925	493.748	37.386
-36.9222	488.908	37.4055
-36.922	497.098	37.425
-36.9193	494.058	37.44458
-36.91819	490.602	37.4641
-36.91708	494.755	37.4836
-36.915	498.34	37.5032
-36.9123	488.383	37.5227
-36.9118	496.625	37.5422
-36.9099	494.188	37.5618
-36.9081	490.78	37.5813
-36.90659	494.941	37.60083
-36.9049	497.83	37.6204
-36.9023	489.26	37.6399
-36.9021	493.002	37.6594
-36.9006	495.288	37.679
-36.8989	494.4725	37.6985
-36.8972	491.8439	37.718
-36.8955	495.901	37.7375
-36.8951	491.716	37.75708
-36.8916	491.0538	37.7766
-36.8906	493.755	37.7961
-36.8897	494.508	37.8157
-36.8863	490.318	37.8352
-36.8851	493.298	37.8547
-36.8846	493.547	37.8743
-36.8821	490.549	37.8938
-36.8805	490.585	37.91333
-36.87907	494.39	37.9329
-36.8774	493.4	37.9524
-36.8755	489.834	37.9719
-36.8748	493.84	37.9915
-36.8729	490.563	38.011
-36.8715	489.584	38.0305
-36.86956	495.277	38.05
-36.86734	494.039	38.06958
-36.8662	486.503	38.0891
-36.8641	497.108	38.1086
-36.8637	493.192	38.1282
-36.862	488.793	38.1477
-36.8597	490.7124	38.1672
-36.85791	497.13	38.1868
-36.8561	487.6286	38.2063
-36.8542	492.301	38.22583
-36.85284	492.464	38.2454
-36.85078	490.09	38.2649
-36.8501	491.13	38.2844
-36.8484	496.169	38.304
-36.8462	488.434	38.3235
-36.8455	487.73	38.343
-36.8436	492.717	38.3625
-36.8417	491.457	38.38208
-36.84116	487.8989	38.4016
-36.8389	490.759	38.4211
-36.83672	489.709	38.4407
-36.8358	487.695	38.4602
-36.8335	490.124	38.4797
-36.8324	492.975	38.4993
-36.8303	489.358	38.5188
-36.8291	488.8829	38.53833
-36.8269	493.2453	38.5579
-36.8256	487.478	38.5774
-36.8241	488.359	38.5969
-36.8228	492.1879	38.6165
-36.8203	490.67	38.636
-36.8191	484.763	38.6555
-36.8176	492.5032	38.675
-36.8161	489.275	38.69458
-36.8136	485.522	38.7141
-36.8131	491.272	38.7336
-36.8112	493.142	38.7532
-36.80904	482.194	38.7727
-36.8076	489.813	38.7922
-36.8064	490.3154	38.8118
-36.8043	488.038	38.8313
-36.8022	487.61	38.85083
-36.8007	492.983	38.8704
-36.80014	484.0787	38.8899
-36.79747	488.297	38.9094
-36.7959	490.862	38.929
-36.7953	486.8967	38.9485
-36.7935	487.3	38.968
-36.7913	492.425	38.9875
-36.79	485.134	39.00708
-36.7888	484.295	39.0266
-36.78643	488.416	39.0461
-36.7845	488.427	39.0657
-36.7835	485.359	39.0852
-36.7812	487.61	39.1047
-36.7799	486.73	39.1243
-36.7775	484.646	39.1438
-36.776	485.132	39.16333
-36.7752	488.262	39.1829
-36.7735	485.93	39.2024
-36.7719	482.729	39.2219
-36.7709	489.015	39.2415
-36.7684	484.569	39.261
-36.7669	482.397	39.2805
-36.7657	488.536	39.3
-36.7635	488.12	39.31958
-36.7625	479.964	39.3391
-36.7602	489.8082	39.3586
-36.7577	486.576	39.3782
-36.7569	482.103	39.3977
-36.7557	485.601	39.4172
-36.7542	490.1456	39.4368
-36.7522	477.544	39.4563
-36.7502	483.744	39.47583
-36.7488	486.577	39.4954
-36.74712	484.194	39.5149
-36.745	482.34	39.5344
-36.7437	487.81	39.554
-36.743	479.504	39.5735
-36.7411	479.899	39.593
-36.7391	485.07	39.6125
-36.7371	483.512	39.63208
-36.7364	478.1189	39.6516
-36.7348	481.175	39.6711
-36.7319	482.055	39.6907
-36.7304	477.776	39.7102
-36.7289	479.728	39.7297
-36.7291	482.264	39.7493
-36.7267	478.471	39.7688
-36.7247	479.077	39.78833
-36.7225	480.21	39.8079
-36.7216	476.9512	39.8274
-36.7196	477.1929	39.8469
-36.7178	480.874	39.8665
-36.7162	478.247	39.886
-36.714	473.508	39.9055
-36.7133	479.23	39.925
-36.7114	476.129	39.94458
-36.7106	471.514	39.9641
-36.7091	475.368	39.9836
-36.7068	477.4863	40.0032
-36.7053	471.458	40.0129

Data Header:			0.254_hd_uprint_typeiv_4545_r0			Time:	41.5603	s	4/13/2019 7:22:25 PM
Data Acquisition:	Timed
Station Name:	ft40.cfg
Test File Name:	monotonic_0.2540_typeiv_hd_4545_uprint.tst
Displacement	Force	Running Time
mm	N	s
-36.7039	465.677	40.0227
-36.70417	469.292	40.0325
-36.7042	473.584	40.0422
-36.7035	474.306	40.052
-36.7018	471.102	40.0618
-36.7012	463.298	40.0715
-36.6968	-71.8672	40.0813
-36.6965	-69.6114	40.0911
-36.69664	-46.8504	40.10083
-36.6957	-25.4221	40.1106
-36.6945	-36.9877	40.1204
-36.6948	-47.4104	40.1301
-36.6953	-48.5018	40.1399
-36.6943	-48.2926	40.1497
-36.693	-42.2073	40.1594
-36.6914	-40.74102	40.1692
-36.6906	-41.66626	40.179
-36.6917	-42.2885	40.1887
-36.689	-43.3517	40.1985
-36.6896	-47.0355	40.2083
-36.6886	-44.5662	40.218
-36.6869	-43.1636	40.2278
-36.6871	-40.6717	40.2375
-36.68642	-40.2616	40.2473
-36.68454	-45.8435	40.25708
-36.6844	-45.6391	40.2668
-36.683	-46.233	40.2766
-36.6822	-44.1386	40.2864
-36.6824	-42.1879	40.2961
-36.682	-41.6502	40.3059
-36.6808	-41.6918	40.3157
-36.6796	-43.24305	40.3254
-36.67831	-46.1967	40.3352
-36.6766	-46.5906	40.345
-36.6769	-43.8257	40.3547
-36.6768	-40.2895	40.3645
-36.6754	-42.1146	40.3743
-36.6747	-42.70715	40.384
-36.6738	-45.7528	40.3938
-36.6731	-46.1093	40.4036
-36.6735	-45.0081	40.41333
-36.672	-44.8203	40.4231
-36.6707	-41.1254	40.4329
-36.6684	-40.5278	40.4426
-36.6685	-44.2828	40.4524
-36.6674	-49.3576	40.4622
-36.66777	-46.1712	40.4719
-36.6667	-43.2001	40.4817
-36.6653	-41.3119	40.4915
-36.66473	-41.1787	40.5012
-36.6638	-44.405	40.511
-36.6624	-44.012	40.5208
-36.66246	-44.963	40.5305
-36.6611	-46.0176	40.5403
-36.6608	-40.7401	40.55
-36.6601	-39.3178	40.5598
-36.6598	-40.80341	40.56958
-36.6576	-46.3996	40.5793
-36.6575	-49.524	40.5891
-36.6559	-46.7626	40.5989
-36.6572	-40.6911	40.6086
-36.6547	-37.1897	40.6184
-36.6541	-41.983	40.6282
-36.6539	-45.44804	40.6379
-36.6531	-45.9204	40.6477
-36.65226	-48.5106	40.6575
-36.6513	-41.7043	40.6672
-36.65	-39.5281	40.677
-36.6495	-38.8694	40.6868
-36.64938	-44.3921	40.6965
-36.6486	-48.2487	40.7063
-36.6472	-47.1527	40.7161
-36.646	-42.7819	40.72583
-36.6449	-41.48703	40.7356
-36.6445	-42.1552	40.7454
-36.64312	-42.28915	40.7551
-36.6421	-44.6196	40.7649
-36.64241	-47.1897	40.7747
-36.6407	-46.114	40.7844
-36.6411	-42.8355	40.7942
-36.6397	-38.9377	40.804
-36.6385	-41.0819	40.8137
-36.6378	-46.4609	40.8235
-36.6373	-46.6837	40.8333
-36.6358	-46.3345	40.843
-36.6371	-41.1411	40.8528
-36.6345	-42.8431	40.8625
-36.6344	-42.7967	40.8723
-36.6327	-43.7115	40.88208
-36.6324	-45.6672	40.8918
-36.6313	-45.44252	40.9016
-36.6315	-47.1883	40.9114
-36.6301	-41.7654	40.9211
-36.6296	-39.69	40.9309
-36.6286	-43.6548	40.9407
-36.6272	-43.8713	40.9504
-36.6259	-46.1919	40.9602
-36.6254	-44.9809	40.97
-36.6249	-44.3546	40.9797
-36.6239	-43.0007	40.9895
-36.62347	-41.2558	40.9993
-36.623	-42.8274	41.009
-36.62138	-44.2687	41.0188
-36.6206	-47.16	41.0286
-36.6213	-45.8214	41.03833
-36.6195	-42.28841	41.0481
-36.6175	-41.0273	41.0579
-36.6178	-41.1852	41.0676
-36.6174	-45.135	41.0774
-36.6165	-45.7832	41.0872
-36.6162	-46.2323	41.0969
-36.61393	-44.5019	41.1067
-36.61396	-40.9883	41.1165
-36.6121	-38.59288	41.1262
-36.6121	-43.673	41.136
-36.6107	-46.58144	41.1458
-36.6104	-49.2182	41.1555
-36.6101	-44.8957	41.1653
-36.609	-39.7066	41.175
-36.60849	-39.186	41.1848
-36.6079	-44.7514	41.19458
-36.6073	-44.3215	41.2043
-36.6052	-47.5153	41.2141
-36.6053	-47.4143	41.2239
-36.6046	-42.2821	41.2336
-36.6032	-39.1713	41.2434
-36.6019	-39.9667	41.2532
-36.6022	-44.5	41.2629
-36.6006	-48.2128	41.2727
-36.5993	-46.33157	41.2825
-36.5985	-43.64872	41.2922
-36.5979	-40.878	41.302
-36.5976	-42.0411	41.3118
-36.5954	-44.8799	41.3215
-36.5963	-46.186	41.3313
-36.5949	-49.65136	41.3411
-36.5954	-43.18058	41.35083
-36.5919	-41.90691	41.3606
-36.5921	-38.3905	41.3704
-36.59219	-41.5971	41.3801
-36.5897	-49.3047	41.3899
-36.591	-45.70549	41.3997
-36.5897	-44.104	41.4094
-36.5889	-41.6368	41.4192
-36.5875	-40.7045	41.429
-36.5856	-41.92123	41.4387
-36.5853	-44.1766	41.4485
-36.5848	-46.1483	41.4583
-36.58395	-45.93502	41.468
-36.5821	-43.4546	41.4778
-36.5827	-40.2078	41.4875
-36.5822	-39.89225	41.4973
-36.5812	-45.17614	41.50708
-36.5801	-45.985	41.5168
-36.5785	-46.1632	41.5266
-36.5774	-43.071	41.5364
-36.5773	-42.5408	41.5461
-36.5771	-41.7691	41.5559