File: data/processed_data_files/tensile/0.254_hd_uprint_typei_090_r(1).dat
MTS793|BTW|ENU|1|2|.|/|:|1|0|0|A

Data Header:			0.254_hd_uprint_typei_090_r0			Time:	20.0259	s	4/15/2019 3:48:13 PM
Data Acquisition:	Timed
Station Name:	ft40.cfg
Test File Name:	monotonic_0.2540_typei_hd_090_uprint.tst
Displacement	Force	Running Time
mm	N	s
9.98011	-154.22	0.0302734
9.97995	-154.903	0.0498047
9.98069	-160.353	0.0693359
9.98031	-157.136	0.0888672
9.98082	-152.418	0.108398
9.98307	-157.866	0.12793
9.98498	-158.804	0.147461
9.98693	-152.394	0.166992
9.9881	-150.549	0.186523
9.98948	-154.3006	0.206055
9.99072	-150.284	0.225586
9.99342	-150.167	0.245117
9.99491	-153.312	0.264648
9.99706	-148.867	0.28418
9.997838	-145.336	0.303711
9.99945	-149.073	0.323242
10.0015	-151.567	0.342773
10.0033	-142.049	0.362305
10.004	-144.967	0.381836
10.0068	-146.703	0.401367
10.0079	-140.231	0.420898
10.0088	-141.374	0.44043
10.0113	-147.586	0.459961
10.0131	-137.818	0.479492
10.0138	-139.698	0.499023
10.0165	-143.432	0.518555
10.0183	-136.645	0.538086
10.0194	-131.623	0.557617
10.021	-144.824	0.577148
10.0241	-135.097	0.59668
10.0244	-131.409	0.616211
10.0252	-135.257	0.635742
10.0274	-136.153	0.655273
10.0291	-128.056	0.674805
10.0306	-136.748	0.694336
10.0315	-134.607	0.713867
10.03371	-126.166	0.733398
10.0353	-128.949	0.75293
10.0385	-132.766	0.772461
10.0389	-125.553	0.791992
10.0402	-125.771	0.811523
10.0418	-129.02	0.831055
10.04381	-124.023	0.850586
10.0446	-120.572	0.870117
10.04713	-125.263	0.889648
10.049	-123.742	0.90918
10.05	-119.76	0.928711
10.0523	-122.784	0.948242
10.0535	-122.341	0.967773
10.0552	-116.063	0.987305
10.057	-118.3159	1.00684
10.0581	-124.208	1.02637
10.0593	-114.453	1.0459
10.06081	-115.788	1.06543
10.0625	-119.104	1.08496
10.0652	-112.063	1.10449
10.0669	-109.066	1.12402
10.0682	-119.05	1.14355
10.0698	-106.354	1.16309
10.0713	-108.7602	1.18262
10.073	-113.282	1.20215
10.0753	-108.455	1.22168
10.0754	-100.7627	1.24121
10.0782	-111.834	1.26074
10.0792	-105.833	1.28027
10.0818	-101.479	1.2998
10.0831	-103.551	1.31934
10.0836	-106.002	1.33887
10.0858	-99.14637	1.3584
10.08639	-101.898	1.37793
10.0887	-103.283	1.39746
10.091	-95.9931	1.41699
10.0926	-95.0742	1.43652
10.0938	-101.434	1.45605
10.095	-95.4903	1.47559
10.0971	-93.667	1.49512
10.0995	-98.3957	1.51465
10.1002	-94.22831	1.53418
10.1026	-89.8665	1.55371
10.10394	-93.2663	1.57324
10.1061	-94.5147	1.59277
10.1063	-85.0493	1.6123
10.108	-91.1572	1.63184
10.1108	-91.81	1.65137
10.1126	-83.73822	1.6709
10.1129	-83.0687	1.69043
10.115	-94.7887	1.70996
10.1172	-80.1508	1.72949
10.1179	-83.288	1.74902
10.1197	-85.4365	1.76855
10.1221	-80.3217	1.78809
10.1239	-76.96788	1.80762
10.12444	-86.6516	1.82715
10.12661	-77.0294	1.84668
10.1283	-73.85833	1.86621
10.12959	-79.904	1.88574
10.1314	-77.7101	1.90527
10.1329	-69.616	1.9248
10.1348	-77.8406	1.94434
10.1366	-76.5838	1.96387
10.1372	-68.8222	1.9834
10.1402	-70.7881	2.00293
10.1407	-73.359	2.02246
10.1423	-64.8746	2.04199
10.144	-69.1253	2.06152
10.1465	-70.332	2.08105
10.1482	-64.3687	2.10059
10.1491	-61.86581	2.12012
10.15087	-68.3058	2.13965
10.1516	-65.8148	2.15918
10.1544	-60.09763	2.17871
10.1565	-64.08123	2.19824
10.1573	-62.64481	2.21777
10.1586	-56.0753	2.2373
10.1611	-58.1397	2.25684
10.1625	-63.4123	2.27637
10.1639	-50.8298	2.2959
10.16519	-56.9201	2.31543
10.1668	-59.5175	2.33496
10.1692	-50.7314	2.35449
10.1705	-47.9617	2.37402
10.1723	-58.5097	2.39355
10.17456	-48.4437	2.41309
10.17499	-48.0858	2.43262
10.1763	-50.8973	2.45215
10.1782	-47.726	2.47168
10.1799	-41.1365	2.49121
10.1815	-51.8994	2.51074
10.1838	-45.1983	2.53027
10.1841	-40.4276	2.5498
10.1874	-43.513	2.56934
10.1889	-45.4349	2.58887
10.19052	-36.2377	2.6084
10.1917	-39.7887	2.62793
10.1936	-41.231	2.64746
10.1943	-35.7271	2.66699
10.196	-34.9878	2.68652
10.19893	-39.6075	2.70605
10.19881	-34.1258	2.72559
10.2011	-31.30212	2.74512
10.2036	-37.3157	2.76465
10.2047	-31.683	2.78418
10.20715	-27.4586	2.80371
10.2073	-31.4194	2.82324
10.2096	-34.1059	2.84277
10.2118	-24.95513	2.8623
10.2135	-28.3712	2.88184
10.2138	-28.667	2.90137
10.2164	-23.2662	2.9209
10.2178	-22.1996	2.94043
10.2193	-31.08	2.95996
10.2201	-20.0576	2.97949
10.2225	-20.8729	2.99902
10.224	-25.3685	3.01855
10.2246	-19.9006	3.03809
10.228	-12.6224	3.05762
10.2282	-23.9049	3.07715
10.2316	-15.1763	3.09668
10.2322	-13.4631	3.11621
10.2332	-16.3206	3.13574
10.23622	-15.0067	3.15527
10.2369	-6.71758	3.1748
10.2384	-15.8269	3.19434
10.2406	-13.36861	3.21387
10.2422	-6.07391	3.2334
10.2432	-9.54392	3.25293
10.2448	-13.2062	3.27246
10.248	-7.01613	3.29199
10.24906	-4.38853	3.31152
10.2507	-8.97516	3.33105
10.2525	-4.02398	3.35059
10.2532	-1.11575	3.37012
10.2548	-4.771028	3.38965
10.2565	-3.99153	3.40918
10.2582	1.789139	3.42871
10.2602	-4.65602	3.44824
10.2624	-1.08186	3.46777
10.2642	7.59163	3.4873
10.2643	5.3918	3.50684
10.2659	-2.35463	3.52637
10.26806	9.55922	3.5459
10.2693	6.40555	3.56543
10.271	3.5302	3.58496
10.27291	11.51664	3.60449
10.2752	12.6043	3.62402
10.2772	2.77279	3.64355
10.2778	15.6927	3.66309
10.2797	15.4109	3.68262
10.2808	9.041255	3.70215
10.2828	13.8812	3.72168
10.2839	21.3633	3.74121
10.2859	11.4804	3.76074
10.2882	16.6108	3.78027
10.2884	20.7537	3.7998
10.2916	19.1585	3.81934
10.292	18.9258	3.83887
10.2942	25.9826	3.8584
10.2967	21.5493	3.87793
10.29771	20.50363	3.89746
10.2989	27.3405	3.91699
10.2996	27.1521	3.93652
10.3031	22.2317	3.95605
10.3041	26.808	3.97559
10.3056	32.1715	3.99512
10.3067	25.3551	4.01465
10.3099	29.8081	4.03418
10.3096	34.8688	4.05371
10.3122	31.1233	4.07324
10.31479	30.67449	4.09277
10.315	39.9921	4.1123
10.3164	33.2925	4.13184
10.3188	33.2609	4.15137
10.32025	41.33	4.1709
10.32163	41.7531	4.19043
10.3244	31.7156	4.20996
10.3238	44.2234	4.22949
10.3273	42.8923	4.24902
10.328	37.19664	4.26855
10.3298	44.066	4.28809
10.3317	48.6019	4.30762
10.3325	38.1901	4.32715
10.3342	46.1542	4.34668
10.3365	52.8321	4.36621
10.3377	45.3954	4.38574
10.3394	45.71056	4.40527
10.3418	55.2884	4.4248
10.3444	48.2113	4.44434
10.3442	49.86636	4.46387
10.3467	56.274	4.4834
10.3483	54.55	4.50293
10.35	52.6877	4.52246
10.3514	58.6026	4.54199
10.3517	57.3557	4.56152
10.3548	55.1782	4.58105
10.3558	61.5088	4.60059
10.3583	64.4113	4.62012
10.3592	58.2648	4.63965
10.3611	59.69128	4.65918
10.3623	67.58844	4.67871
10.3641	61.3148	4.69824
10.3662	64.4558	4.71777
10.3668	69.0801	4.7373
10.3686	67.0332	4.75684
10.3702	61.2908	4.77637
10.3724	74.9532	4.7959
10.3747	68.6669	4.81543
10.3757	66.8678	4.83496
10.3775	74.58149	4.85449
10.3784	78.2024	4.87402
10.3807	67.13768	4.89355
10.3813	76.05574	4.91309
10.3833	78.7822	4.93262
10.38519	75.0395	4.95215
10.3868	78.8395	4.97168
10.3887	83.5101	4.99121
10.391	73.9777	5.01074
10.3914	79.6401	5.03027
10.394	87.8032	5.0498
10.3943	83.5692	5.06934
10.3962	80.4587	5.08887
10.3986	88.41806	5.1084
10.3988	84.8899	5.12793
10.4014	84.6978	5.14746
10.4029	90.943	5.16699
10.4041	90.9843	5.18652
10.4066	87.5844	5.20605
10.4079	91.7527	5.22559
10.4101	94.7998	5.24512
10.4118	88.9319	5.26465
10.4133	93.1054	5.28418
10.4152	99.5606	5.30371
10.4166	96.6803	5.32324
10.418	91.3889	5.34277
10.4197	102.334	5.3623
10.4208	96.2006	5.38184
10.4226	97.5176	5.40137
10.4239	105.139	5.4209
10.4262	104.565	5.44043
10.4271	97.4449	5.45996
10.42879	108.866	5.47949
10.4306	107.025	5.49902
10.4319	102.825	5.51855
10.4337	108.687	5.53809
10.435	115.251	5.55762
10.4374	102.234	5.57715
10.4393	109.622	5.59668
10.4407	114.812	5.61621
10.4421	109.783	5.63574
10.4436	111.3143	5.65527
10.4448	119.667	5.6748
10.4474	111.205	5.69434
10.4484	113.138	5.71387
10.4507	120.969	5.7334
10.4515	119.618	5.75293
10.4534	115.539	5.77246
10.4557	121.478	5.79199
10.4556	120.24	5.81152
10.45933	118.704	5.83105
10.4617	125.605	5.85059
10.4614	126.844	5.87012
10.4637	122.374	5.88965
10.4649	124.679	5.90918
10.4664	130.656	5.92871
10.4684	125.049	5.94824
10.4702	126.652	5.96777
10.47111	134.537	5.9873
10.4733	131.023	6.00684
10.4746	124.225	6.02637
10.47603	135.469	6.0459
10.4777	133.547	6.06543
10.4787	130.653	6.08496
10.4813	138.325	6.10449
10.483	140.061	6.12402
10.4845	127.916	6.14355
10.4867	141.208	6.16309
10.4879	142.435	6.18262
10.4895	137.592	6.20215
10.48986	141.389	6.22168
10.4931	147.345	6.24121
10.4947	138.088	6.26074
10.4953	143.393	6.28027
10.498	148.527	6.2998
10.5002	145.465	6.31934
10.5006	145.157	6.33887
10.502	154.12	6.3584
10.5042	147.425	6.37793
10.5065	145.368	6.39746
10.5073	153.49	6.41699
10.5098	153.743	6.43652
10.5109	149.842	6.45605
10.5125	151.799	6.47559
10.5148	157.561	6.49512
10.5156	151.419	6.51465
10.5162	156.061	6.53418
10.5191	161.107	6.55371
10.52	155.108	6.57324
10.5228	155.085	6.59277
10.52375	163.055	6.6123
10.5249	158.47	6.63184
10.52739	156.585	6.65137
10.52871	166.01	6.6709
10.5302	164.011	6.69043
10.5322	156.235	6.70996
10.5335	168.634	6.72949
10.5347	166.963	6.74902
10.5361	161.959	6.76855
10.5379	169.135	6.78809
10.5394	173.1665	6.80762
10.54095	160.413	6.82715
10.543	170.415	6.84668
10.5446	175.576	6.86621
10.546	170.85	6.88574
10.5477	170.161	6.90527
10.5494	179.396	6.9248
10.5505	172.301	6.94434
10.5532	173.577	6.96387
10.5541	180.464	6.9834
10.5563	178.942	7.00293
10.5575	175.709	7.02246
10.5601	183.6041	7.04199
10.56113	181.862	7.06152
10.5628	175.783	7.08105
10.5646	183.155	7.10059
10.5654	185.983	7.12012
10.5684	182.722	7.13965
10.5698	181.548	7.15918
10.5702	189.915	7.17871
10.5731	184.487	7.19824
10.5741	188.569	7.21777
10.5752	193.9575	7.2373
10.5773	190.99	7.25684
10.5778	184.211	7.27637
10.5805	198.978	7.2959
10.5823	194.614	7.31543
10.5846	190.709	7.33496
10.5862	197.722	7.35449
10.5874	201.212	7.37402
10.5874	189.995	7.39355
10.5902	201.122	7.41309
10.5917	203.0952	7.43262
10.5927	196.949	7.45215
10.5946	200.676	7.47168
10.5969	207.2338	7.49121
10.5977	195.805	7.51074
10.5996	202.532	7.53027
10.6023	208.878	7.5498
10.6036	205.97	7.56934
10.6044	202.147	7.58887
10.6065	210.832	7.6084
10.6089	207.635	7.62793
10.6099	206.44	7.64746
10.6109	213.069	7.66699
10.6134	211.874	7.68652
10.6145	207.515	7.70605
10.61681	213.405	7.72559
10.619	218.608	7.74512
10.6196	211.398	7.76465
10.6214	215.5607	7.78418
10.6231	221.934	7.80371
10.62498	217.499	7.82324
10.6262	214.965	7.84277
10.6276	225.48	7.8623
10.6286	219.588	7.88184
10.6303	218.813	7.90137
10.6329	228.488	7.9209
10.6342	226.441	7.94043
10.6359	218.705	7.95996
10.6371	231.189	7.97949
10.6388	229.783	7.99902
10.6412	224.287	8.01855
10.6415	232.378	8.03809
10.6448	234.783	8.05762
10.6462	224.655	8.07715
10.6471	233.166	8.09668
10.6494	234.746	8.11621
10.6518	231.054	8.13574
10.65131	231.0276	8.15527
10.6536	239.5148	8.1748
10.6557	231.293	8.19434
10.657	234.319	8.21387
10.6581	241.792	8.2334
10.6602	240.182	8.25293
10.6619	234.697	8.27246
10.66352	242.849	8.29199
10.6649	244.208	8.31152
10.6666	239.084	8.33105
10.6684	245.062	8.35059
10.6705	248.218	8.37012
10.6708	243.726	8.38965
10.6726	243.626	8.40918
10.676	253.627	8.42871
10.676	245.888	8.44824
10.6792	245.988	8.46777
10.6798	254.827	8.4873
10.6819	253.94	8.50684
10.6817	246.407	8.52637
10.6846	260.178	8.5459
10.6866	253.693	8.56543
10.6878	251.133	8.58496
10.6894	261.529	8.60449
10.6912	260.45	8.62402
10.6912	249.979	8.64355
10.6943	261.877	8.66309
10.6965	262.9433	8.68262
10.69736	257.9386	8.70215
10.6985	261.891	8.72168
10.7004	268.093	8.74121
10.7032	258.246	8.76074
10.7049	264.411	8.78027
10.7063	271.627	8.7998
10.7075	265.354	8.81934
10.7088	265.194	8.83887
10.7104	272.736	8.8584
10.7131	270.554	8.87793
10.7138	266.842	8.89746
10.716	275.3511	8.91699
10.7173	276.694	8.93652
10.71918	271.508	8.95605
10.7208	275.072	8.97559
10.7215	277.404	8.99512
10.72361	273.237	9.01465
10.7258	278.191	9.03418
10.7273	284.087	9.05371
10.7283	279.332	9.07324
10.7294	276.526	9.09277
10.732	289.175	9.1123
10.7335	282.936	9.13184
10.7355	281.096	9.15137
10.7357	288.924	9.1709
10.7381	286.75	9.19043
10.7397	280.335	9.20996
10.7417	291.223	9.22949
10.7425	290.613	9.24902
10.7445	284.663	9.26855
10.7468	293.603	9.28809
10.74759	296.862	9.30762
10.7488	285.8663	9.32715
10.7508	294.039	9.34668
10.7535	298.762	9.36621
10.7548	292.951	9.38574
10.756	294.066	9.40527
10.75806	302.006	9.4248
10.7587	295.419	9.44434
10.761	298.105	9.46387
10.7632	304.319	9.4834
10.7642	300.126	9.50293
10.7663	297.895	9.52246
10.7673	306.04	9.54199
10.7706	306.026	9.56152
10.7707	299.045	9.58105
10.7724	306.76	9.60059
10.7744	308.62	9.62012
10.776	304.938	9.63965
10.7777	306.089	9.65918
10.7788	313.202	9.67871
10.7802	305.513	9.69824
10.7814	309.37	9.71777
10.78475	317.407	9.7373
10.7858	313.786	9.75684
10.7865	307.4845	9.77637
10.7882	320.6543	9.7959
10.79001	316.187	9.81543
10.7915	315.054	9.83496
10.7946	320.107	9.85449
10.79539	323.172	9.87402
10.797	311.3725	9.89355
10.7984	323.203	9.91309
10.8008	324.578	9.93262
10.80171	317.862	9.95215
10.8034	321.913	9.97168
10.8054	329.615	9.99121
10.8071	319.702	10.0107
10.8086	323.157	10.0303
10.8093	330.297	10.0498
10.812	327.798	10.0693
10.8125	326.374	10.0889
10.8139	334.468	10.1084
10.8168	329.887	10.12793
10.8178	328.106	10.1475
10.8194	335.919	10.167
10.8209	334.885	10.1865
10.8234	329.455	10.2061
10.8243	333.587	10.2256
10.827	340.428	10.2451
10.8279	333.6647	10.2646
10.8294	337.339	10.28418
10.8311	343.807	10.3037
10.8318	337.504	10.3232
10.8341	336.767	10.3428
10.8349	347.8613	10.3623
10.8371	339.622	10.3818
10.8383	341.0827	10.4014
10.8404	351.156	10.4209
10.8431	348.982	10.44043
10.8444	339.088	10.46
10.8457	351.925	10.4795
10.8466	352.901	10.499
10.8493	347.407	10.5186
10.8493	353.876	10.5381
10.852	356.126	10.5576
10.8535	345.33	10.5771
10.855	355.261	10.59668
10.8574	359.396	10.6162
10.8583	352.389	10.6357
10.8598	352.983	10.6553
10.8624	363.537	10.6748
10.8626	355.032	10.6943
10.8656	355.365	10.7139
10.86699	363.356	10.7334
10.8685	361.633	10.75293
10.8697	358.125	10.7725
10.8712	365.968	10.792
10.87313	365.28	10.8115
10.8753	361.626	10.8311
10.8777	366.6832	10.8506
10.8792	371.29	10.8701
10.8794	363.964	10.8896
10.8818	365.134	10.90918
10.8825	375.496	10.9287
10.885	367.5206	10.9482
10.8859	369.368	10.9678
10.888	376.449	10.9873
10.8896	372.444	11.0068
10.8907	367.374	11.0264
10.8924	381.112	11.0459
10.8939	377.444	11.06543
10.89663	372.127	11.085
10.8977	381.283	11.1045
10.8999	384.578	11.124
10.9021	369.82	11.1436
10.90289	381.916	11.1631
10.9039	384.151	11.1826
10.9056	378.88	11.2021
10.9071	383.258	11.22168
10.9092	390.136	11.2412
10.9104	377.284	11.2607
10.9122	385.445	11.2803
10.9145	393.485	11.2998
10.9152	386.63	11.3193
10.9175	385.238	11.3389
10.9188	393.648	11.3584
10.9207	389.625	11.37793
10.9228	385.139	11.3975
10.9234	394.083	11.417
10.9261	395.452	11.4365
10.9269	389.404	11.4561
10.928	394.709	11.4756
10.9308	398.911	11.4951
10.9326	391.35	11.5146
10.9353	396.6506	11.53418
10.9353	404.019	11.5537
10.9369	396.667	11.5732
10.9381	394.889	11.5928
10.9396	405.826	11.6123
10.9413	400.461	11.6318
10.9431	400.714	11.6514
10.9459	407.008	11.6709
10.9471	406.939	11.69043
10.9477	397.029	11.71
10.9499	411.023	11.7295
10.9508	410.311	11.749
10.9517	403.982	11.7686
10.9549	411.442	11.7881
10.9563	415.774	11.8076
10.95787	403.664	11.8271
10.9603	413.677	11.84668
10.96162	417.085	11.8662
10.9632	411.3699	11.8857
10.9643	412.913	11.9053
10.9655	421.02	11.9248
10.96713	412.148	11.9443
10.9697	414.522	11.9639
10.9708	423.234	11.9834
10.972	421.179	12.00293
10.9741	416.468	12.0225
10.9758	424.4039	12.042
10.9772	422.92	12.0615
10.9798	420.3873	12.0811
10.9813	426.633	12.1006
10.98228	429.865	12.1201
10.98408	422.558	12.1396
10.9861	425.323	12.15918
10.9864	433.4007	12.1787
10.989	425.475	12.1982
10.9895	427.821	12.2178
10.9924	436.925	12.2373
10.99357	432.9437	12.2568
10.9967	425.357	12.2764
10.9971	437.245	12.2959
10.9987	433.472	12.31543
11.0006	431.559	12.335
11.002	441	12.3545
11.003	441.777	12.374
11.00475	428.0141	12.3936
11.0064	442.774	12.4131
11.0072	443.9017	12.4326
11.0101	437.0885	12.4521
11.01144	440.655	12.47168
11.0136	446.316	12.4912
11.0153	437.793	12.5107
11.0161	444.829	12.5303
11.0179	449.977	12.5498
11.0196	445.797	12.5693
11.021	443.415	12.5889
11.0226	452.988	12.6084
11.0254	445.16	12.62793
11.0265	443.559	12.6475
11.0279	451.901	12.667
11.0296	455.0119	12.6865
11.0316	448.4502	12.7061
11.03319	450.341	12.7256
11.035	457.446	12.7451
11.0363	451.579	12.7646
11.0372	454.4877	12.78418
11.0402	461.806	12.8037
11.0402	456.652	12.8232
11.0433	453.001	12.8428
11.0439	465.206	12.8623
11.0459	459.224	12.8818
11.0483	456.0607	12.9014
11.0491	464.08	12.9209
11.0509	465.701	12.94043
11.0512	454.743	12.96
11.0536	466.914	12.9795
11.0555	467.254	12.999
11.0568	462.514	13.0186
11.0588	472.3269	13.0381
11.0603	473.368	13.0576
11.062	461.85	13.0771
11.06329	470.417	13.09668
11.0655	476.098	13.1162
11.0662	469.959	13.1357
11.068	469.382	13.1553
11.0695	478.424	13.1748
11.0725	471.453	13.1943
11.073	471.83	13.2139
11.075	478.554	13.2334
11.0772	476.706	13.25293
11.0785	472.642	13.2725
11.0803	480.893	13.292
11.08191	480.4	13.3115
11.0828	475.039	13.3311
11.0845	483.166	13.3506
11.086	486.461	13.3701
11.0876	480.679	13.3896
11.0889	481.358	13.40918
11.0905	491.648	13.4287
11.0942	481.216	13.4482
11.09444	485.967	13.4678
11.0961	493.421	13.4873
11.09805	486.753	13.5068
11.0995	482.541	13.5264
11.1021	496.6619	13.5459
11.1026	490.756	13.56543
11.1044	489.195	13.585
11.1055	497.072	13.6045
11.1074	498.591	13.624
11.1096	487.159	13.6436
11.1107	497.754	13.6631
11.1117	499.032	13.6826
11.1136	494.781	13.7021
11.11598	498.202	13.72168
11.1173	505.66	13.7412
11.1195	494.399	13.7607
11.1207	499.49	13.7803
11.1228	505.617	13.7998
11.1243	501.317	13.8193
11.1257	497.788	13.8389
11.1274	509.673	13.8584
11.1288	503.927	13.87793
11.1308	502.602	13.8975
11.1316	508.8067	13.917
11.1336	509.321	13.9365
11.1358	503.531	13.9561
11.1371	509.608	13.9756
11.13922	513.256	13.9951
11.14	507.332	14.0146
11.142	510.819	14.03418
11.1431	517.423	14.0537
11.1454	511.2955	14.0732
11.1459	508.271	14.0928
11.149	519.695	14.1123
11.1504	515.369	14.1318
11.151	515.471	14.1514
11.1532	524.313	14.1709
11.1553	522.358	14.19043
11.15563	510.5921	14.21
11.15863	526.436	14.2295
11.1596	525.302	14.249
11.1625	518.002	14.2686
11.1624	525.538	14.2881
11.16468	530.241	14.3076
11.1666	517.052	14.3271
11.167	526.482	14.34668
11.1696	532.1853	14.3662
11.1718	525.405	14.3857
11.1728	527.324	14.4053
11.1737	536.3714	14.4248
11.1757	525.877	14.4443
11.1774	527.661	14.4639
11.1801	538.327	14.4834
11.1814	536.33	14.50293
11.1825	529.571	14.5225
11.1838	535.747	14.542
11.1856	535.276	14.5615
11.1873	530.228	14.5811
11.1886	540.285	14.6006
11.1907	541.3866	14.6201
11.1927	534.086	14.6396
11.1941	535.919	14.65918
11.1954	544.682	14.6787
11.1977	538.401	14.6982
11.1987	539.319	14.7178
11.2009	548.5697	14.7373
11.2006	544.418	14.7568
11.2037	537.722	14.7764
11.2048	551.058	14.7959
11.2073	545.597	14.81543
11.2097	542.065	14.835
11.2097	552.319	14.8545
11.2121	552.223	14.874
11.2137	540.428	14.8936
11.2145	553.308	14.9131
11.2175	556.1828	14.9326
11.2194	549.44	14.9521
11.2203	553.42	14.97168
11.2212	558.958	14.9912
11.22261	548.077	15.0107
11.2255	554.084	15.0303
11.2264	560.8761	15.0498
11.2283	556.948	15.0693
11.2301	556.784	15.0889
11.23172	562.343	15.1084
11.23314	557.718	15.12793
11.2345	555.073	15.1475
11.237	565.2085	15.167
11.2382	564.449	15.1865
11.2398	558.65	15.2061
11.2406	563.263	15.2256
11.243	567.319	15.2451
11.2448	561.326	15.2646
11.2471	567.148	15.28418
11.2479	572.447	15.3037
11.24936	566.076	15.3232
11.2512	564.331	15.3428
11.2529	575.0484	15.3623
11.2546	570.149	15.3818
11.2548	566.34	15.4014
11.258	576.108	15.4209
11.2596	576.263	15.44043
11.2607	566.7771	15.46
11.26214	579.542	15.4795
11.2638	576.559	15.499
11.265	571.962	15.5186
11.2677	579.815	15.5381
11.2689	584.022	15.5576
11.2717	570.618	15.5771
11.2726	578.579	15.59668
11.2728	585.088	15.6162
11.2753	580.165	15.6357
11.2767	579.201	15.6553
11.2786	587.086	15.6748
11.2804	578.73	15.6943
11.2824	581.083	15.7139
11.2838	588.814	15.7334
11.28564	587.256	15.75293
11.2857	581.56	15.7725
11.2888	590.434	15.792
11.2901	589.3877	15.8115
11.2912	583.611	15.8311
11.2931	592.115	15.8506
11.2949	593.114	15.8701
11.2961	587.7934	15.8896
11.2978	589.725	15.90918
11.2998	595.317	15.9287
11.301	591.014	15.9482
11.3022	594.192	15.9678
11.3049	603.038	15.9873
11.3062	596.528	16.0068
11.30739	587.702	16.0264
11.3094	603.8421	16.0459
11.3112	601.278	16.06543
11.3126	595.401	16.085
11.3144	602.635	16.1045
11.3164	606.638	16.124
11.31758	593.321	16.1436
11.3195	608.154	16.1631
11.3213	607.651	16.1826
11.3222	597.987	16.2021
11.3247	606.737	16.22168
11.3263	612.968	16.2412
11.3279	600.5896	16.2607
11.3287	606.527	16.2803
11.3298	615.322	16.2998
11.3328	609.196	16.3193
11.33304	606.774	16.3389
11.3367	614.411	16.3584
11.337	611.151	16.37793
11.3388	608.941	16.3975
11.3401	618.58	16.417
11.3407	617.107	16.4365
11.3437	609.77	16.4561
11.3455	615.567	16.4756
11.3473	620.02	16.4951
11.3487	613.487	16.5146
11.3506	615.975	16.53418
11.3521	624.39	16.5537
11.3542	618.249	16.5732
11.3548	616.066	16.5928
11.356	626.036	16.6123
11.3592	619.12	16.6318
11.3602	620.512	16.6514
11.3616	630.1	16.6709
11.3636	627.517	16.69043
11.3647	616.4314	16.71
11.3668	631.977	16.7295
11.3677	630.041	16.749
11.3697	626.7226	16.7686
11.3708	630.892	16.7881
11.3735	634.939	16.8076
11.374	622.977	16.8271
11.3749	633.226	16.84668
11.3773	636.247	16.8662
11.3811	629.218	16.8857
11.3811	631.858	16.9053
11.3822	641.014	16.9248
11.3836	631.763	16.9443
11.3859	633.661	16.9639
11.3867	641.736	16.9834
11.3893	640.331	17.00293
11.3915	635.048	17.0225
11.3933	640.613	17.042
11.3938	640.061	17.0615
11.3958	636.7981	17.0811
11.3982	643.2005	17.1006
11.3999	645.487	17.1201
11.401	638.812	17.1396
11.4022	640.675	17.15918
11.4035	650.43	17.1787
11.4049	643.078	17.1982
11.4076	642.896	17.2178
11.4086	652.47	17.2373
11.41	647.696	17.2568
11.411	642.188	17.2764
11.4133	654.508	17.2959
11.4158	650.047	17.31543
11.4182	646.187	17.335
11.4179	655.899	17.3545
11.4195	656.893	17.374
11.4226	645.1225	17.3936
11.4237	657.632	17.4131
11.4252	658.986	17.4326
11.4272	652.77	17.4521
11.428	656.825	17.47168
11.4302	663.533	17.4912
11.432	651.259	17.5107
11.4325	658.809	17.5303
11.4349	665.422	17.5498
11.437	658.321	17.5693
11.4374	657.551	17.5889
11.4396	666.2608	17.6084
11.44182	662.854	17.62793
11.4427	657.852	17.6475
11.4448	667.843	17.667
11.4461	668.279	17.6865
11.4486	660.828	17.7061
11.4499	665.307	17.7256
11.4521	670.1582	17.7451
11.4536	663.417	17.7646
11.455	668.094	17.78418
11.4563	674.458	17.8037
11.4576	667.944	17.8232
11.4603	664.911	17.8428
11.45993	676.789	17.8623
11.4621	671.738	17.8818
11.4643	670.121	17.9014
11.4651	679.194	17.9209
11.4676	678.349	17.94043
11.4685	668.6217	17.96
11.4707	683.023	17.9795
11.47261	678.782	17.999
11.4748	674.185	18.0186
11.476	682.451	18.0381
11.4778	685.345	18.0576
11.4788	673.012	18.0771
11.4798	681.478	18.09668
11.4821	687.803	18.1162
11.4836	682.708	18.1357
11.4846	681.844	18.1553
11.4872	690.197	18.1748
11.4887	680.745	18.1943
11.49091	684.172	18.2139
11.4923	692.51	18.2334
11.49259	687.497	18.25293
11.49529	682.191	18.2725
11.4958	690.412	18.292
11.4988	690.562	18.3115
11.501	685.636	18.3311
11.5025	691.966	18.3506
11.5034	696.406	18.3701
11.5059	687.801	18.3896
11.5068	692.172	18.40918
11.5072	698.346	18.4287
11.5086	689.858	18.4482
11.51154	693.25	18.4678
11.5145	701.931	18.4873
11.5143	697.545	18.5068
11.5167	689.152	18.5264
11.518	703.34	18.5459
11.5186	698.831	18.56543
11.5213	695.988	18.585
11.52254	703.285	18.6045
11.5255	704.624	18.624
11.5266	692.064	18.6436
11.52694	706.431	18.6631
11.5287	709.4	18.6826
11.5312	700.954	18.7021
11.5336	704.667	18.72168
11.5344	714.323	18.7412
11.5357	700.265	18.7607
11.538	704.509	18.7803
11.5393	713.28	18.7998
11.5402	707.866	18.8193
11.5423	707.4101	18.8389
11.5442	714.565	18.8584
11.5444	706.3941	18.87793
11.5474	706.895	18.8975
11.5485	715.419	18.917
11.55	716.027	18.9365
11.5519	707.968	18.9561
11.5536	713.119	18.9756
11.5549	719.907	18.9951
11.5573	712.467	19.0146
11.5582	715.638	19.03418
11.5593	721.735	19.0537
11.5616	716.745	19.0732
11.563	712.165	19.0928
11.5643	725.6582	19.1123
11.5663	718.592	19.1318
11.5678	717.514	19.1514
11.5707	728.247	19.1709
11.5718	723.957	19.19043
11.5737	715.286	19.21
11.5752	727.634	19.2295
11.5757	728.237	19.249
11.5789	721.809	19.2686
11.5795	729.351	19.2881
11.5811	732.321	19.3076
11.5812	718.2627	19.3271
11.585	727.767	19.34668
11.5859	734.233	19.3662
11.5881	726.306	19.3857
11.5893	727.882	19.4053
11.5915	736.494	19.4248
11.59305	729.246	19.4443
11.5938	728.895	19.4639
11.5964	737.369	19.4834
11.598	734.872	19.50293
11.5993	729.933	19.5225
11.6	736.4751	19.542
11.6027	735.993	19.5615
11.6037	729.273	19.5811
11.6059	741.345	19.6006
11.6072	742.2265	19.6201
11.60952	735.1701	19.6396
11.6102	736.387	19.65918
11.61197	744.085	19.6787
11.61377	738.029	19.6982
11.6155	741.276	19.7178
11.6174	747.208	19.7373
11.6192	743.215	19.7568
11.6195	736.812	19.7764
11.6218	751.155	19.7959
11.6234	744.737	19.81543
11.6259	741.796	19.835
11.6256	750.515	19.8545
11.6288	752.185	19.874
11.6295	737.738	19.8936
11.6312	750.734	19.9131
11.633	752.805	19.9326
11.6344	747.691	19.9521
11.63759	750.9989	19.97168
11.6394	756.75	19.9912
11.6397	744.519	20.0107
11.6411	745.939	20.0205

Data Header:			0.254_hd_uprint_typei_090_r0			Time:	40.0259	s	4/15/2019 3:48:33 PM
Data Acquisition:	Timed
Station Name:	ft40.cfg
Test File Name:	monotonic_0.2540_typei_hd_090_uprint.tst
Displacement	Force	Running Time
mm	N	s
11.6409	751.857	20.0303
11.6436	760.3075	20.0498
11.6447	753.363	20.0693
11.6464	751.008	20.0889
11.6485	759.057	20.1084
11.6501	754.1051	20.12793
11.6511	754.054	20.1475
11.6534	760.38	20.167
11.6545	759.855	20.1865
11.6562	754.607	20.2061
11.6578	758.764	20.2256
11.6593	762.3175	20.2451
11.6616	754.726	20.2646
11.6627	761.346	20.28418
11.6638	766.712	20.3037
11.6655	760.546	20.3232
11.6668	755.392	20.3428
11.6689	768.463	20.3623
11.6713	761.381	20.3818
11.6727	762.827	20.4014
11.67327	768.483	20.4209
11.676	767.0152	20.44043
11.6769	758.921	20.46
11.6786	774.1286	20.4795
11.6803	769.863	20.499
11.6825	763.587	20.5186
11.6839	769.9248	20.5381
11.6856	775.301	20.5576
11.6869	763.335	20.5771
11.6889	771.126	20.59668
11.68992	775.681	20.6162
11.6921	768.946	20.6357
11.6936	771.4549	20.6553
11.6946	779.71	20.6748
11.696	770.511	20.6943
11.6982	771.733	20.7139
11.7005	779.9212	20.7334
11.70192	778.234	20.75293
11.7036	771.411	20.7725
11.7046	779.144	20.792
11.7067	779.899	20.8115
11.7083	773.04	20.8311
11.7104	781.139	20.8506
11.7125	784.822	20.8701
11.7139	777.092	20.8896
11.715	777.519	20.90918
11.71589	787.16	20.9287
11.7178	778.091	20.9482
11.7196	780.454	20.9678
11.72207	789.3454	20.9873
11.7223	785.086	21.0068
11.7251	775.8717	21.0264
11.7272	790.886	21.0459
11.7283	788.468	21.06543
11.7296	784.062	21.085
11.73198	793.188	21.1045
11.7324	790.805	21.124
11.7346	780.672	21.1436
11.7367	791.855	21.1631
11.737	795.064	21.1826
11.7388	786.415	21.2021
11.7415	790.399	21.22168
11.7426	797.744	21.2412
11.7442	786.348	21.2607
11.7459	790.191	21.2803
11.7478	797.702	21.2998
11.7495	792.667	21.3193
11.7511	791.18	21.3389
11.7522	798.361	21.3584
11.754	792.481	21.37793
11.7548	790.445	21.3975
11.7572	800.585	21.417
11.758	800.307	21.4365
11.7603	792.099	21.4561
11.7621	795.5556	21.4756
11.7631	800.324	21.4951
11.7653	796.853	21.5146
11.7677	801.732	21.53418
11.768	806.255	21.5537
11.77002	799.249	21.5732
11.77152	796.883	21.5928
11.7735	809.197	21.6123
11.77406	802.862	21.6318
11.7758	801.386	21.6514
11.7781	809.33	21.6709
11.7801	807.575	21.69043
11.7816	797.106	21.71
11.7836	810.839	21.7295
11.7849	808.61	21.749
11.7857	803.1228	21.7686
11.7875	810.257	21.7881
11.7898	814.15	21.8076
11.7913	800.154	21.8271
11.7929	809.982	21.84668
11.7941	815.0202	21.8662
11.7957	809.662	21.8857
11.7982	809.57	21.9053
11.799	816.761	21.9248
11.8018	809.706	21.9443
11.8027	810.3493	21.9639
11.8044	816.946	21.9834
11.8059	816.07	22.00293
11.808	809.782	22.0225
11.8089	818.2619	22.042
11.8097	815.479	22.0615
11.8116	808.731	22.0811
11.8146	818.707	22.1006
11.8156	822.646	22.1201
11.8185	814.114	22.1396
11.8195	813.887	22.15918
11.8213	824.146	22.1787
11.8226	816.274	22.1982
11.8226	820.43	22.2178
11.8259	825.6189	22.2373
11.827	820.367	22.2568
11.82917	813.625	22.2764
11.8296	827.314	22.2959
11.8322	821.065	22.31543
11.8347	817.986	22.335
11.8345	826.491	22.3545
11.8371	827.259	22.374
11.8379	816.355	22.3936
11.84	827.883	22.4131
11.841	829.7403	22.4326
11.8432	822.063	22.4521
11.8462	827.103	22.47168
11.8464	831.883	22.4912
11.8479	821.038	22.5107
11.8502	825.422	22.5303
11.8518	834.971	22.5498
11.8532	828.219	22.5693
11.855	825.555	22.5889
11.8565	832.872	22.6084
11.85801	828.774	22.62793
11.8594	827.132	22.6475
11.8614	835.78	22.667
11.86343	834.571	22.6865
11.8632	828.068	22.7061
11.8656	834.0564	22.7256
11.8675	838.283	22.7451
11.8689	828.523	22.7646
11.8713	834.256	22.78418
11.87282	840.218	22.8037
11.874	834.383	22.8232
11.8756	829.167	22.8428
11.8776	841.049	22.8623
11.8793	833.929	22.8818
11.8811	834.305	22.9014
11.882	842.318	22.9209
11.8848	839.607	22.94043
11.8848	829.009	22.96
11.8867	843.726	22.9795
11.8888	842.546	22.999
11.8909	834.5351	23.0186
11.89239	841.405	23.0381
11.8935	844.951	23.0576
11.8961	833.517	23.0771
11.8969	841.893	23.09668
11.898	845.483	23.1162
11.9013	837.866	23.1357
11.9026	839.046	23.1553
11.9039	848.302	23.1748
11.9046	840.187	23.1943
11.907	838.868	23.2139
11.9074	848.324	23.2334
11.9099	846.635	23.25293
11.9113	841.266	23.2725
11.9128	845.8194	23.292
11.9143	847.032	23.3115
11.916	841.679	23.3311
11.9171	849.3374	23.3506
11.9191	850.435	23.3701
11.9216	843.001	23.3896
11.9235	843.985	23.40918
11.925	853.0625	23.4287
11.9262	845.073	23.4482
11.9272	846.171	23.4678
11.9299	854.164	23.4873
11.932	848.879	23.5068
11.9324	842.367	23.5264
11.9344	854.68	23.5459
11.936	849.334	23.56543
11.9368	846.3	23.585
11.9395	856.674	23.6045
11.9409	854.014	23.624
11.9417	843.533	23.6436
11.94391	856.555	23.6631
11.9447	856.982	23.6826
11.9474	849.832	23.7021
11.9488	853.474	23.72168
11.9505	858.089	23.7412
11.9522	848.453	23.7607
11.954	855.014	23.7803
11.9564	859.768	23.7998
11.9578	853.934	23.8193
11.9587	851.814	23.8389
11.9607	860.13	23.8584
11.9619	854.005	23.87793
11.963	852.207	23.8975
11.96531	860.337	23.917
11.9676	859.833	23.9365
11.9674	852.287	23.9561
11.9703	855.052	23.9756
11.9718	860.993	23.9951
11.9731	853.023	24.0146
11.9754	858.157	24.03418
11.9765	862.026	24.0537
11.97887	856.4928	24.0732
11.9802	852.873	24.0928
11.98138	865.916	24.1123
11.9836	857.4281	24.1318
11.98508	855.74	24.1514
11.9868	864.249	24.1709
11.9874	860.643	24.19043
11.9902	852.916	24.21
11.9914	864.157	24.2295
11.9926	862.952	24.249
11.9939	857.252	24.2686
11.9957	863.034	24.2881
11.9979	865.583	24.3076
11.9994	852.341	24.3271
12.0009	862.069	24.34668
12.0032	866.506	24.3662
12.0052	859.37	24.3857
12.0053	857.37	24.4053
12.008	865.38	24.4248
12.0097	857.941	24.4443
12.0119	859.793	24.4639
12.0122	867.919	24.4834
12.0146	863.532	24.50293
12.0153	858.907	24.5225
12.017	864.019	24.542
12.019	863.864	24.5615
12.0215	857.103	24.5811
12.0224	866.244	24.6006
12.0239	868.442	24.6201
12.0262	860.2876	24.6396
12.0268	860.932	24.65918
12.0292	867.601	24.6787
12.03047	860.53	24.6982
12.0317	863.135	24.7178
12.034	870.791	24.7373
12.0347	863.999	24.7568
12.0367	856.315	24.7764
12.0392	871.1864	24.7959
12.0397	865.8172	24.81543
12.0418	861.037	24.835
12.0433	869.607	24.8545
12.0458	870.082	24.874
12.0468	858.44	24.8936
12.04924	868.482	24.9131
12.0497	872.096	24.9326
12.0513	863.081	24.9521
12.0542	869.259	24.97168
12.0557	871.402	24.9912
12.0566	858.387	25.0107
12.0581	863.8324	25.0303
12.0594	872.647	25.0498
12.0616	867.424	25.0693
12.0626	863.0155	25.0889
12.0649	868.952	25.1084
12.066	866.2619	25.12793
12.0666	862.846	25.1475
12.0703	872.295	25.167
12.07194	868.802	25.1865
12.0732	862.536	25.2061
12.0737	865.995	25.2256
12.07644	870.489	25.2451
12.0777	863.166	25.2646
12.0802	867.603	25.28418
12.0807	873.175	25.3037
12.08278	866.296	25.3232
12.0839	860.743	25.3428
12.0851	873.026	25.3623
12.0875	864.521	25.3818
12.0893	864.899	25.4014
12.0909	873.429	25.4209
12.0922	872.133	25.44043
12.0946	858.746	25.46
12.0958	874.333	25.4795
12.0975	871.261	25.499
12.0986	863.436	25.5186
12.1002	869.615	25.5381
12.103	873.053	25.5576
12.1042	861.259	25.5771
12.1052	869.254	25.59668
12.1066	872.52	25.6162
12.10773	864.684	25.6357
12.11049	867.359	25.6553
12.1115	874.4989	25.6748
12.1133	865.936	25.6943
12.1151	864.807	25.7139
12.1165	874.118	25.7334
12.1184	869.274	25.75293
12.11952	865.021	25.7725
12.1225	869.297	25.792
12.123	869.01	25.8115
12.1257	865.898	25.8311
12.1256	871.629	25.8506
12.1282	872.184	25.8701
12.1295	864.714	25.8896
12.1317	865.22	25.90918
12.1326	874.433	25.9287
12.1343	865.841	25.9482
12.13625	865.9884	25.9678
12.1378	872.345	25.9873
12.13918	867.635	26.0068
12.1411	859.706	26.0264
12.1437	873.278	26.0459
12.144	868.015	26.06543
12.1471	863.024	26.085
12.1469	871.798	26.1045
12.1493	872.086	26.124
12.1502	857.599	26.1436
12.1513	870.953	26.1631
12.1542	872.514	26.1826
12.1552	864.365	26.2021
12.1576	866.245	26.22168
12.15968	871.676	26.2412
12.1604	860.125	26.2607
12.1623	867.067	26.2803
12.164	873.3028	26.2998
12.1661	864.631	26.3193
12.1674	861.9201	26.3389
12.1679	870.498	26.3584
12.1703	866.977	26.37793
12.1723	861.481	26.3975
12.1728	871.1806	26.417
12.176	870.534	26.4365
12.1765	864.389	26.4561
12.1782	866.153	26.4756
12.181	869.027	26.4951
12.1814	862.855	26.5146
12.1832	870.622	26.53418
12.1855	872.975	26.5537
12.1859	865.055	26.5732
12.1879	860.351	26.5928
12.1895	873.73	26.6123
12.1914	864.725	26.6318
12.1929	864.213	26.6514
12.1946	870.179	26.6709
12.1972	868.47	26.69043
12.1976	857.407	26.71
12.2008	872.826	26.7295
12.2015	867.222	26.749
12.2031	861.189	26.7686
12.20415	868.061	26.7881
12.2058	871.393	26.8076
12.20806	857.28	26.8271
12.2094	866.642	26.84668
12.2111	869.942	26.8662
12.213	864.628	26.8857
12.2141	863.1499	26.9053
12.2158	870.35	26.9248
12.2185	862.191	26.9443
12.21893	860.377	26.9639
12.2205	868.5462	26.9834
12.2216	863.787	27.00293
12.2236	858.474	27.0225
12.2262	866.291	27.042
12.2265	867.452	27.0615
12.2286	859.967	27.0811
12.2303	866.317	27.1006
12.233	868.702	27.1201
12.2332	860.133	27.1396
12.2354	861.955	27.15918
12.236	867.644	27.1787
12.23849	858.63	27.1982
12.2399	861.225	27.2178
12.2414	870.601	27.2373
12.244	862.099	27.2568
12.2447	855.419	27.2764
12.2473	869.117	27.2959
12.2485	863.01	27.31543
12.2493	858.895	27.335
12.2522	865.919	27.3545
12.2533	864.865	27.374
12.2549	853.4	27.3936
12.25597	865.419	27.4131
12.2588	866.077	27.4326
12.2602	857.682	27.4521
12.2622	860.434	27.47168
12.26371	868.4	27.4912
12.2651	855.508	27.5107
12.2667	859.679	27.5303
12.2689	866.238	27.5498
12.2699	861.598	27.5693
12.2713	857.586	27.5889
12.2735	864.802	27.6084
12.2748	859.9187	27.62793
12.2766	855.791	27.6475
12.2782	865.909	27.667
12.2786	864.381	27.6865
12.2807	855.312	27.7061
12.2818	859.03	27.7256
12.2844	864.224	27.7451
12.2858	854.983	27.7646
12.2873	859.836	27.78418
12.2894	864.635	27.8037
12.2904	859.413	27.8232
12.2934	854.742	27.8428
12.2935	865.6322	27.8623
12.2953	856.938	27.8818
12.2984	854.777	27.9014
12.2991	864.526	27.9209
12.3007	860.747	27.94043
12.3024	850.522	27.96
12.3027	864.407	27.9795
12.3054	861.085	27.999
12.3072	854.191	28.0186
12.309	858.781	28.0381
12.3103	862.733	28.0576
12.31247	850.158	28.0771
12.3131	859.2121	28.09668
12.3151	862.452	28.1162
12.3163	853.964	28.1357
12.3187	855.11	28.1553
12.32042	863.269	28.1748
12.32285	853.95	28.1943
12.3231	851.583	28.2139
12.3253	861.219	28.2334
12.3262	858.005	28.25293
12.3283	852.878	28.2725
12.3297	856.652	28.292
12.331	856.345	28.3115
12.3337	851.397	28.3311
12.33499	858.578	28.3506
12.33602	861.144	28.3701
12.3375	852.588	28.3896
12.3408	853.561	28.40918
12.3425	859.465	28.4287
12.3436	854.182	28.4482
12.3461	853.512	28.4678
12.3465	859.135	28.4873
12.3468	853.594	28.5068
12.3497	849.236	28.5264
12.3509	862.173	28.5459
12.3522	854.463	28.56543
12.3543	850.81	28.585
12.3564	858.865	28.6045
12.3576	858.0647	28.624
12.3592	844.323	28.6436
12.3611	857.018	28.6631
12.3623	858.16	28.6826
12.3639	850.233	28.7021
12.366	852.487	28.72168
12.3673	858.987	28.7412
12.3696	846.232	28.7607
12.371	853.878	28.7803
12.373	859.768	28.7998
12.3739	852.146	28.8193
12.3754	849.208	28.8389
12.3764	856.303	28.8584
12.3785	852.465	28.87793
12.3811	848.187	28.8975
12.3827	857.184	28.917
12.38392	854.472	28.9365
12.3856	849.128	28.9561
12.3864	852.293	28.9756
12.3885	855.451	28.9951
12.3913	846.496	29.0146
12.3916	852.561	29.03418
12.3938	858.077	29.0537
12.3949	850.594	29.0732
12.3967	845.2713	29.0928
12.3986	857.539	29.1123
12.3998	850.3111	29.1318
12.40195	848.6347	29.1514
12.4029	856.9552	29.1709
12.40542	852.236	29.19043
12.4062	843.125	29.21
12.4082	856.455	29.2295
12.4096	852.909	29.249
12.4112	844.664	29.2686
12.412	853.234	29.2881
12.415	855.704	29.3076
12.4176	842.239	29.3271
12.4173	849.431	29.34668
12.4191	854.307	29.3662
12.421	847.8526	29.3857
12.4216	848.312	29.4053
12.42496	853.878	29.4248
12.4261	845.182	29.4443
12.4274	845.7804	29.4639
12.4292	855.55	29.4834
12.43041	849.745	29.50293
12.4323	845.875	29.5225
12.43468	851.129	29.542
12.4355	851.875	29.5615
12.4379	845.591	29.5811
12.4379	850.254	29.6006
12.4415	851.579	29.6201
12.4418	846.242	29.6396
12.4433	847.285	29.65918
12.4453	853.809	29.6787
12.4466	843.16	29.6982
12.4476	846.749	29.7178
12.4503	854.519	29.7373
12.4531	848.821	29.7568
12.4543	839.057	29.7764
12.4554	852.695	29.7959
12.4572	848.168	29.81543
12.45823	844.988	29.835
12.45988	850.678	29.8545
12.46182	849.931	29.874
12.4638	837.785	29.8936
12.4652	851.56	29.9131
12.4667	850.581	29.9326
12.4676	841.966	29.9521
12.47	846.137	29.97168
12.4721	852.014	29.9912
12.4732	841.786	30.0107
12.4746	845.434	30.0303
12.4766	851.691	30.0498
12.479	845.624	30.0693
12.4794	842.898	30.0889
12.4797	849.176	30.1084
12.4832	844.536	30.12793
12.4853	841.639	30.1475
12.4859	850.936	30.167
12.4873	849.299	30.1865
12.4891	841.438	30.2061
12.4915	844.886	30.2256
12.49233	848.9129	30.2451
12.4948	841.635	30.2646
12.4952	846.983	30.28418
12.4964	850.845	30.3037
12.4991	845.117	30.3232
12.501	838.867	30.3428
12.5024	851.754	30.3623
12.5043	842.172	30.3818
12.505	842.7616	30.4014
12.5071	851.963	30.4209
12.5091	848.189	30.44043
12.5103	837.335	30.46
12.5128	849.053	30.4795
12.5134	847.484	30.499
12.5154	839.9776	30.5186
12.5174	845.776	30.5381
12.51841	848.533	30.5576
12.5198	836.986	30.5771
12.5217	845.396	30.59668
12.5237	848.673	30.6162
12.5257	841.4856	30.6357
12.5268	840.567	30.6553
12.5278	848.878	30.6748
12.5312	840.569	30.6943
12.53158	840.569	30.7139
12.5323	849.878	30.7334
12.53534	842.67	30.75293
12.5375	840.105	30.7725
12.5386	845.338	30.792
12.5401	844.766	30.8115
12.5418	837.239	30.8311
12.5428	846.3	30.8506
12.5453	848.459	30.8701
12.5456	839.912	30.8896
12.5474	838.308	30.90918
12.55	848.8728	30.9287
12.5512	840.724	30.9482
12.5527	842.549	30.9678
12.5549	848.709	30.9873
12.55605	842.217	31.0068
12.5586	835.534	31.0264
12.5595	850.177	31.0459
12.5611	844.536	31.06543
12.5622	839.535	31.085
12.5644	847.69	31.1045
12.5658	847.151	31.124
12.5675	834.66	31.1436
12.569	846.271	31.1631
12.5716	845.246	31.1826
12.5718	838.068	31.2021
12.5732	842.3244	31.22168
12.576	845.417	31.2412
12.5772	836.1037	31.2607
12.5785	840.831	31.2803
12.5804	848.789	31.2998
12.5823	840.217	31.3193
12.5842	837.357	31.3389
12.5865	845.541	31.3584
12.5869	841.361	31.37793
12.588	837.131	31.3975
12.5905	846.284	31.417
12.5922	843.729	31.4365
12.5938	836.763	31.4561
12.595	841.41	31.4756
12.596	845.049	31.4951
12.59744	835.247	31.5146
12.6	839.789	31.53418
12.6022	847.5816	31.5537
12.6031	840.195	31.5732
12.605	835.147	31.5928
12.6069	847.567	31.6123
12.6085	837.955	31.6318
12.6098	840.666	31.6514
12.6115	845.339	31.6709
12.6133	840.938	31.69043
12.6144	832.748	31.71
12.6168	846.314	31.7295
12.6179	844.14	31.749
12.6202	835.135	31.7686
12.6217	842.139	31.7881
12.6226	845.7735	31.8076
12.624	834.6311	31.8271
12.6267	843.005	31.84668
12.6277	845.205	31.8662
12.6298	837.813	31.8857
12.6312	839.251	31.9053
12.6333	846.2179	31.9248
12.6341	835.807	31.9443
12.6358	836.4917	31.9639
12.638	846.778	31.9834
12.6395	841.207	32.00293
12.6404	835.36	32.0225
12.64247	841.334	32.042
12.6442	841.632	32.0615
12.6454	835.098	32.0811
12.64732	841.51	32.1006
12.6489	843.335	32.1201
12.65025	836.163	32.1396
12.65256	837.439	32.15918
12.6543	846.545	32.1787
12.6564	835.46	32.1982
12.6584	837.163	32.2178
12.6583	844.812	32.2373
12.6601	839.096	32.2568
12.6622	832.73	32.2764
12.6638	843.601	32.2959
12.6654	840.849	32.31543
12.6671	837.833	32.335
12.6678	842.8288	32.3545
12.6703	841.208	32.374
12.6708	829.611	32.3936
12.6733	841.338	32.4131
12.6747	842.5498	32.4326
12.6763	835.202	32.4521
12.6784	836.594	32.47168
12.6798	843.846	32.4912
12.68179	832.9342	32.5107
12.6843	836.536	32.5303
12.6853	843.092	32.5498
12.6849	836.55	32.5693
12.6881	833.982	32.5889
12.689	843.252	32.6084
12.6899	836.961	32.62793
12.6925	832.12	32.6475
12.6957	842.305	32.667
12.69576	841.785	32.6865
12.6979	834.239	32.7061
12.6989	837.671	32.7256
12.701	841.9057	32.7451
12.7034	833.362	32.7646
12.7039	837.713	32.78418
12.7054	842.285	32.8037
12.7075	835.328	32.8232
12.70923	831	32.8428
12.7109	843.949	32.8623
12.7122	834.589	32.8818
12.7149	834.204	32.9014
12.7157	842.5116	32.9209
12.7172	841.366	32.94043
12.7197	828.779	32.96
12.7203	841.628	32.9795
12.7214	839.1062	32.999
12.7239	833.6474	33.0186
12.7252	841.112	33.0381
12.7276	842.664	33.0576
12.7288	829.183	33.0771
12.7307	837.838	33.09668
12.73166	842.535	33.1162
12.7329	834.3728	33.1357
12.7354	832.514	33.1553
12.7364	841.673	33.1748
12.739	832.627	33.1943
12.7395	835.182	33.2139
12.74	841.777	33.2334
12.7435	837.004	33.25293
12.7449	831.814	33.2725
12.74748	838.241	33.292
12.7471	837.104	33.3115
12.7501	830.421	33.3311
12.7509	838.728	33.3506
12.7522	839.782	33.3701
12.7549	833.587	33.3896
12.75624	833.2179	33.40918
12.75779	841.152	33.4287
12.7596	832.589	33.4482
12.7622	836.041	33.4678
12.7625	841.764	33.4873
12.7641	834.71	33.5068
12.7659	828.279	33.5264
12.7677	841.9231	33.5459
12.7692	840.134	33.56543
12.7711	833.64	33.585
12.7728	840.8183	33.6045
12.7735	840.964	33.624
12.7766	827.9693	33.6436
12.7778	839.195	33.6631
12.7776	840.309	33.6826
12.78086	833.293	33.7021
12.7831	838.15	33.72168
12.7836	843.9563	33.7412
12.7849	829.519	33.7607
12.788	833.9566	33.7803
12.7884	840.97	33.7998
12.7907	836.355	33.8193
12.7918	831.9126	33.8389
12.7935	839.998	33.8584
12.7962	833.803	33.87793
12.7968	832.971	33.8975
12.7975	841.511	33.917
12.7992	837.415	33.9365
12.8018	830.646	33.9561
12.8036	837.837	33.9756
12.8051	840.263	33.9951
12.8072	830.811	34.0146
12.8092	835.672	34.03418
12.8099	839.852	34.0537
12.8117	835.501	34.0732
12.8133	831.027	34.0928
12.81424	840.953	34.1123
12.8159	833.978	34.1318
12.818	833.334	34.1514
12.8191	842.475	34.1709
12.8218	835.639	34.19043
12.8239	826.158	34.21
12.8246	839.749	34.2295
12.8265	838.463	34.249
12.82774	831.589	34.2686
12.8297	835.863	34.2881
12.8312	840.412	34.3076
12.8325	827.441	34.3271
12.8346	836.757	34.34668
12.8365	839.883	34.3662
12.8375	833.464	34.3857
12.8399	833.185	34.4053
12.8404	840.568	34.4248
12.8436	832.803	34.4443
12.844	830.204	34.4639
12.8454	839.99	34.4834
12.8481	836.399	34.50293
12.84966	830.606	34.5225
12.8502	836.639	34.542
12.8521	834.683	34.5615
12.8551	830.9809	34.5811
12.8551	837.124	34.6006
12.8571	839.604	34.6201
12.8585	830.809	34.6396
12.8605	831.687	34.65918
12.8623	839.245	34.6787
12.8633	830.774	34.6982
12.865	832.205	34.7178
12.8668	839.675	34.7373
12.869	837.693	34.7568
12.8708	827.277	34.7764
12.87086	839.65	34.7959
12.8735	833.98	34.81543
12.87596	831.451	34.835
12.8766	837.901	34.8545
12.8775	840.056	34.874
12.8805	825.071	34.8936
12.882	837.531	34.9131
12.8842	838.773	34.9326
12.8848	831.541	34.9521
12.88745	833.62	34.97168
12.888	839.701	34.9912
12.88857	828.848	35.0107
12.8912	833.506	35.0303
12.8919	839.064	35.0498
12.8952	833.268	35.0693
12.8965	830.373	35.0889
12.8974	838.021	35.1084
12.9006	833.796	35.12793
12.9005	827.389	35.1475
12.903	836.607	35.167
12.9048	836.722	35.1865
12.9059	828.899	35.2061
12.907	833.75	35.2256
12.9084	835.91	35.2451
12.9114	829.589	35.2646
12.9126	835.42	35.28418
12.9149	840.4646	35.3037
12.9155	832.298	35.3232
12.9173	827.642	35.3428
12.9186	838.864	35.3623
12.92142	833.132	35.3818
12.9216	829.656	35.4014
12.9244	838.2262	35.4209
12.9254	834.619	35.44043
12.928	824.138	35.46
12.929	837.74	35.4795
12.93072	836.3927	35.499
12.9324	827.671	35.5186
12.9331	835.932	35.5381
12.9349	840.349	35.5576
12.9368	825.071	35.5771
12.9385	834.938	35.59668
12.94103	837.935	35.6162
12.9413	831.041	35.6357
12.9435	830.787	35.6553
12.9459	837.275	35.6748
12.9469	828.468	35.6943
12.948	830.7	35.7139
12.9503	837.394	35.7334
12.9525	834.099	35.75293
12.9525	825.935	35.7725
12.9547	835.4043	35.792
12.9569	834.249	35.8115
12.9581	828.149	35.8311
12.9604	834.273	35.8506
12.961	837.641	35.8701
12.9621	829.689	35.8896
12.9641	830.0473	35.90918
12.967	835.387	35.9287
12.9677	828.315	35.9482
12.9698	832.281	35.9678
12.97	838.481	35.9873
12.9727	833.79	36.0068
12.9741	826.829	36.0264
12.9762	837.201	36.0459
12.97708	835.331	36.06543
12.9788	830.112	36.085
12.98103	837.948	36.1045
12.9821	837.76	36.124
12.9852	824.321	36.1436
12.9858	834.899	36.1631
12.9877	836.9	36.1826
12.9891	828.488	36.2021
12.9903	831.225	36.22168
12.9911	839.326	36.2412
12.9947	826.794	36.2607
12.9955	831.348	36.2803
12.9974	837.579	36.2998
12.9993	830.755	36.3193
12.9998	829.17	36.3389
13.0016	836.218	36.3584
13.0047	829.8869	36.37793
13.0055	828.397	36.3975
13.007	836.622	36.417
13.009	834.97	36.4365
13.0095	826.595	36.4561
13.0117	831.12	36.4756
13.0136	836.186	36.4951
13.0152	827.232	36.5146
13.017	830.84	36.53418
13.0188	836.0611	36.5537
13.0201	830.177	36.5732
13.0215	827.361	36.5928
13.0235	835.809	36.6123
13.0258	828.416	36.6318
13.0261	827.491	36.6514
13.0279	837.4588	36.6709
13.0296	834.889	36.69043
13.0307	821.578	36.71
13.0334	834.607	36.7295
13.035	835.52	36.749
13.03756	828.3739	36.7686
13.03754	833.767	36.7881
13.0402	835.997	36.8076
13.0412	821.863	36.8271
13.0423	831.827	36.84668
13.0449	835.101	36.8662
13.0453	828.487	36.8857
13.0464	828.7674	36.9053
13.0489	836.026	36.9248
13.0516	826.578	36.9443
13.0532	827.967	36.9639
13.0531	835.796	36.9834
13.0566	832.755	37.00293
13.0571	827.77	37.0225
13.0585	834.547	37.042
13.06048	829.801	37.0615
13.0633	825.907	37.0811
13.0638	832.82	37.1006
13.0653	836.18	37.1201
13.0675	825.56	37.1396
13.0687	827.814	37.15918
13.0715	834.812	37.1787
13.0727	828.2439	37.1982
13.0736	827.389	37.2178
13.07558	835.645	37.2373
13.0772	830.784	37.2568
13.07905	825.439	37.2764
13.0803	836.875	37.2959
13.0813	829.821	37.31543
13.0842	823.92	37.335
13.0848	833.111	37.3545
13.0869	835.795	37.374
13.08739	820.967	37.3936
13.0904	833.04	37.4131
13.0919	832.282	37.4326
13.0928	826.288	37.4521
13.0953	830.3454	37.47168
13.0962	836.839	37.4912
13.0978	822.493	37.5107
13.1004	828.97	37.5303
13.101	834.825	37.5498
13.1034	828.772	37.5693
13.1053	825.752	37.5889
13.1073	833.149	37.6084
13.1083	827.563	37.62793
13.1092	825.158	37.6475
13.111	831.927	37.667
13.1129	832.524	37.6865
13.1141	824.541	37.7061
13.1162	829.7572	37.7256
13.118	830.132	37.7451
13.1189	824.641	37.7646
13.12059	828.568	37.78418
13.1228	834.175	37.8037
13.125	826.395	37.8232
13.1254	822.496	37.8428
13.1272	831.422	37.8623
13.1308	824.022	37.8818
13.1295	824.0777	37.9014
13.13228	831.73	37.9209
13.1333	826.893	37.94043
13.134	817.3631	37.96
13.1368	830.102	37.9795
13.13795	828.521	37.999
13.1407	820.375	38.0186
13.1414	826.341	38.0381
13.1441	831.609	38.0576
13.14569	816.387	38.0771
13.1468	824.63	38.09668
13.1489	828.191	38.1162
13.15	822.4519	38.1357
13.1518	819.13	38.1553
13.1596	-54.07655	38.1748
13.16	-45.5699	38.1943
13.15793	-47.8958	38.2139
13.1599	-38.7913	38.2334
13.1607	-41.9128	38.25293
13.1633	-51.8216	38.2725
13.1639	-42.9154	38.292
13.166	-47.2054	38.3115
13.167	-49.9728	38.3311
13.16793	-45.3454	38.3506
13.1703	-42.7731	38.3701
13.1717	-49.7945	38.3896
13.1737	-47.0477	38.40918
13.176	-41.1614	38.4287
13.1763	-48.5771	38.4482
13.1791	-48.829	38.4678
13.1799	-39.26165	38.4873
13.1819	-44.5135	38.5068
13.1836	-51.2419	38.5264
13.1855	-42.8296	38.5459
13.1871	-45.7588	38.56543
13.1881	-49.3862	38.585
13.1897	-42.803	38.6045
13.19065	-40.724	38.624
13.1939	-53.8584	38.6436
13.1939	-41.735	38.6631
13.1958	-40.46357	38.6826
13.1975	-48.46806	38.7021
13.1996	-47.07547	38.72168
13.2011	-38.9509	38.7412
13.2033	-50.7895	38.7607
13.2046	-45.33276	38.7803
13.20514	-41.1766	38.7998
13.2081	-46.6059	38.8193
13.209	-49.3276	38.8389
13.2105	-38.5694	38.8584
13.21177	-46.8168	38.87793
13.214	-48.7582	38.8975
13.2156	-42.4028	38.917
13.218	-41.30608	38.9365
13.2196	-48.7022	38.9561
13.22033	-45.44696	38.9756
13.2226	-42.9995	38.9951
13.2237	-48.1281	39.0146
13.2255	-45.45129	39.03418
13.22688	-42.1322	39.0537
13.2279	-49.014	39.0732
13.2306	-51.7709	39.0928
13.23281	-41.036	39.1123
13.23277	-45.3294	39.1318
13.2352	-49.28426	39.1514
13.237	-41.5652	39.1709
13.2382	-42.957	39.19043
13.2394	-53.3833	39.21
13.2409	-43.0055	39.2295
13.2434	-44.8337	39.249
13.2454	-49.9523	39.2686
13.246	-43.0435	39.2881
13.2487	-40.0649	39.3076
13.2506	-53.0063	39.3271
13.2512	-47.2729	39.34668
13.25375	-40.2421	39.3662
13.2546	-47.0222	39.3857
13.2562	-47.5767	39.4053
13.2582	-39.36694	39.4248
13.2596	-50.42112	39.4443
13.2619	-45.9015	39.4639
13.2632	-41.7381	39.4834
13.2644	-42.9814	39.50293
13.2659	-50.4328	39.5225
13.2679	-44.068	39.542
13.2698	-45.00082	39.5615
13.2701	-49.5025	39.5811
13.2716	-44.64373	39.6006
13.2749	-40.1282	39.6201
13.275	-48.5728	39.6396
13.2771	-46.7523	39.65918
13.2793	-43.1687	39.6787
13.2811	-47.3228	39.6982
13.28223	-47.3529	39.7178
13.2837	-39.0948	39.7373
13.2855	-45.448	39.7568
13.2869	-50.7031	39.7764
13.2893	-42.973	39.7959
13.2907	-44.19706	39.81543
13.2925	-50.7305	39.835
13.2934	-43.2564	39.8545
13.2952	-41.5769	39.874
13.2963	-52.8179	39.8936
13.2991	-43.099	39.9131
13.30015	-42.3893	39.9326
13.3019	-48.1599	39.9521
13.3038	-45.8224	39.97168
13.30479	-36.5015	39.9912
13.3075	-51.7681	40.0107
13.3074	-49.7541	40.0205

Data Header:			0.254_hd_uprint_typei_090_r0			Time:	40.50415	s	4/15/2019 3:48:33 PM
Data Acquisition:	Timed
Station Name:	ft40.cfg
Test File Name:	monotonic_0.2540_typei_hd_090_uprint.tst
Displacement	Force	Running Time
mm	N	s
13.30859	-47.1492	40.0303
13.3097	-42.7898	40.04
13.31	-41.3755	40.0498
13.3112	-43.3205	40.05957
13.3118	-44.2925	40.0693
13.31339	-52.6763	40.0791
13.3134	-48.6886	40.0889
13.314	-46.2121	40.0986
13.3147	-41.5452	40.1084
13.3151	-39.2214	40.1182
13.3165	-47.5976	40.12793
13.3179	-49.7711	40.1377
13.3189	-49.7415	40.1475
13.31866	-45.4732	40.1572
13.3201	-43.3837	40.167
13.3204	-43.07465	40.1768
13.3218	-40.4096	40.1865
13.3221	-47.0425	40.1963
13.3237	-52.1845	40.2061
13.3235	-48.1822	40.21582
13.326	-43.9483	40.2256
13.326	-40.0419	40.2354
13.3268	-45.0455	40.2451
13.3266	-44.9776	40.2549
13.327	-48.9424	40.2646
13.329	-48.8129	40.2744
13.3296	-48.0433	40.28418
13.3302	-43.31731	40.2939
13.3308	-39.2592	40.3037
13.3315	-42.7486	40.3135
13.333	-47.3289	40.3232
13.3333	-50.9845	40.333
13.3344	-48.0518	40.3428
13.3358	-42.3711	40.3525
13.3361	-43.8451	40.3623
13.3368	-40.2056	40.37207
13.3374	-45.3274	40.3818
13.3383	-47.7234	40.3916
13.3387	-48.8322	40.4014
13.341	-49.4777	40.4111
13.34	-41.0917	40.4209
13.3422	-39.6931	40.4307
13.3417	-45.2942	40.44043
13.3429	-51.3532	40.4502
13.3433	-52.6019	40.46
13.34401	-46.2177	40.4697
13.3463	-44.3818	40.4795
13.3455	-39.1888	40.4893
13.3468	-41.3189	40.499