File: data/processed_data_files/tensile/0.254_hd_dimension_typeiv_4545_r(2).dat
MTS793|BTW|ENU|1|2|.|/|:|1|0|0|A

Data Header:			0.254_hd_dimension_typeiv_4545_r0			Time:	20.019	s	4/13/2019 8:14:16 PM
Data Acquisition:	Timed
Station Name:	ft40.cfg
Test File Name:	monotonic_0.2540_typeiv_hd_4545_dimension.tst
Displacement	Force	Running Time
mm	N	s
-40.0345	-204.481	0.0231934
-40.0345	-205.646	0.0427246
-40.0345	-205.538	0.0622559
-40.0334	-207.175	0.0817871
-40.0309	-205.871	0.101318
-40.0291	-200.086	0.12085
-40.0284	-200.851	0.140381
-40.0266	-206.678	0.159912
-40.0245	-195.525	0.179443
-40.0229	-197.674	0.198975
-40.02103	-200.2274	0.218506
-40.0189	-197.591	0.238037
-40.018	-194.125	0.257568
-40.0172	-201.75	0.2771
-40.01474	-192.048	0.296631
-40.0136	-192.2	0.316162
-40.0117	-195.264	0.335693
-40.0103	-193.0062	0.355225
-40.0073	-184.861	0.374756
-40.0057	-192.901	0.394287
-40.0048	-189.723	0.413818
-40.0036	-186.53	0.43335
-40.0018	-186.776	0.452881
-40.001	-188.899	0.472412
-39.9988	-184.431	0.491943
-39.99638	-185.195	0.511475
-39.9953	-184.109	0.531006
-39.9941	-180.666	0.550537
-39.9915	-180.604	0.570068
-39.9909	-183.505	0.5896
-39.9883	-181.266	0.609131
-39.987	-176.372	0.628662
-39.9864	-181.632	0.648193
-39.9849	-178.749	0.667725
-39.98114	-175.201	0.687256
-39.9812	-173.944	0.706787
-39.9797	-178.432	0.726318
-39.9783	-170.528	0.74585
-39.9759	-173.872	0.765381
-39.974	-173.666	0.784912
-39.9723	-168.408	0.804443
-39.9707	-168.067	0.823975
-39.9693	-175.504	0.843506
-39.9676	-166.3396	0.863037
-39.9665	-166.209	0.882568
-39.9652	-169.46	0.9021
-39.9628	-165.361	0.921631
-39.9603	-162.324	0.941162
-39.9594	-170.514	0.960693
-39.9577	-162.262	0.980225
-39.9557	-161.227	0.999756
-39.9558	-163.472	1.01929
-39.95285	-162.24	1.03882
-39.9521	-156.143	1.05835
-39.95	-160.869	1.07788
-39.9479	-160.464	1.09741
-39.9469	-156.1476	1.11694
-39.9454	-155.76	1.13647
-39.9433	-157.564	1.15601
-39.9412	-154.152	1.17554
-39.9399	-153.848	1.19507
-39.9382	-154.539	1.2146
-39.9372	-150.673	1.23413
-39.9341	-148.212	1.25366
-39.9331	-151.963	1.27319
-39.9317	-151.406	1.29272
-39.9301	-145.338	1.31226
-39.9288	-149.002	1.33179
-39.9282	-147.946	1.35132
-39.9252	-143.692	1.37085
-39.9243	-142.911	1.39038
-39.92189	-147.632	1.40991
-39.9201	-140.017	1.42944
-39.9188	-142.013	1.44897
-39.91872	-143.295	1.46851
-39.9159	-138.994	1.48804
-39.9134	-134.957	1.50757
-39.91317	-145.678	1.5271
-39.91	-136.331	1.54663
-39.9097	-134.614	1.56616
-39.907	-137.644	1.58569
-39.9061	-135.281	1.60522
-39.905	-130.736	1.62476
-39.9032	-136.567	1.64429
-39.9011	-133.772	1.66382
-39.8989	-127.272	1.68335
-39.8969	-129.811	1.70288
-39.896	-132.2558	1.72241
-39.8947	-126.0085	1.74194
-39.8933	-127.908	1.76147
-39.8918	-128.033	1.78101
-39.8895	-125.484	1.80054
-39.887	-123.858	1.82007
-39.88578	-125.809	1.8396
-39.8841	-123.418	1.85913
-39.8834	-121.656	1.87866
-39.8816	-124.109	1.89819
-39.8801	-121.382	1.91772
-39.8773	-116.59	1.93726
-39.8766	-118.4	1.95679
-39.8747	-121.9901	1.97632
-39.8731	-113.438	1.99585
-39.8714	-115.683	2.01538
-39.87	-118.0115	2.03491
-39.8686	-112.0654	2.05444
-39.8662	-111.786	2.07397
-39.8648	-116.379	2.09351
-39.8641	-108.361	2.11304
-39.8614	-109.96	2.13257
-39.8599	-112.176	2.1521
-39.85854	-108.848	2.17163
-39.8574	-102.039	2.19116
-39.8548	-112.188	2.21069
-39.8539	-106.3681	2.23022
-39.8522	-103.676	2.24976
-39.8517	-104.931	2.26929
-39.8481	-103.954	2.28882
-39.8485	-99.1047	2.30835
-39.84576	-104.594	2.32788
-39.8434	-102.016	2.34741
-39.8427	-96.4214	2.36694
-39.841	-97.29126	2.38647
-39.839	-99.7188	2.40601
-39.8372	-95.9097	2.42554
-39.8354	-95.7453	2.44507
-39.8335	-96.1489	2.4646
-39.8329	-94.0333	2.48413
-39.8305	-92.15519	2.50366
-39.8291	-93.1907	2.52319
-39.8282	-93.7865	2.54272
-39.826	-88.1954	2.56226
-39.8244	-92.5816	2.58179
-39.823	-92.0389	2.60132
-39.821	-84.9554	2.62085
-39.82	-84.5208	2.64038
-39.8181	-91.9897	2.65991
-39.8161	-81.90136	2.67944
-39.8147	-84.4511	2.69897
-39.8131	-84.4333	2.71851
-39.811	-80.4818	2.73804
-39.80986	-78.11869	2.75757
-39.8082	-86.9768	2.7771
-39.8075	-77.5933	2.79663
-39.8043	-77.4212	2.81616
-39.8028	-80.80304	2.83569
-39.8009	-77.4336	2.85522
-39.8004	-71.1312	2.87476
-39.7993	-78.7023	2.89429
-39.7971	-74.9519	2.91382
-39.795	-72.9638	2.93335
-39.7938	-70.9015	2.95288
-39.7916	-73.7612	2.97241
-39.7909	-68.1052	2.99194
-39.7887	-71.3502	3.01147
-39.7866	-71.077	3.03101
-39.7865	-67.1504	3.05054
-39.7836	-64.75486	3.07007
-39.7817	-68.2255	3.0896
-39.7807	-65.515	3.10913
-39.77927	-63.2953	3.12866
-39.7775	-65.2914	3.14819
-39.7762	-63.4659	3.16772
-39.7747	-59.5134	3.18726
-39.7722	-60.04303	3.20679
-39.7705	-62.3873	3.22632
-39.76973	-55.638	3.24585
-39.7665	-58.6296	3.26538
-39.7664	-60.6034	3.28491
-39.7651	-53.7216	3.30444
-39.7632	-51.015	3.32397
-39.7615	-59.96806	3.34351
-39.75988	-53.021	3.36304
-39.757	-51.9955	3.38257
-39.7556	-54.26173	3.4021
-39.755	-49.783	3.42163
-39.7525	-46.6858	3.44116
-39.7518	-54.8898	3.46069
-39.7498	-48.7678	3.48022
-39.749	-44.3259	3.49976
-39.7464	-45.775	3.51929
-39.7449	-47.46294	3.53882
-39.74279	-41.6889	3.55835
-39.7425	-46.0398	3.57788
-39.7405	-45.51189	3.59741
-39.7379	-41.3369	3.61694
-39.7366	-40.9295	3.63647
-39.7349	-41.9034	3.65601
-39.73336	-37.9663	3.67554
-39.7304	-38.2992	3.69507
-39.7297	-41.5096	3.7146
-39.7298	-36.786	3.73413
-39.7274	-32.6895	3.75366
-39.7252	-35.4003	3.77319
-39.7237	-37.9261	3.79272
-39.72245	-31.1408	3.81226
-39.7208	-32.2551	3.83179
-39.7188	-31.1354	3.85132
-39.7168	-29.3216	3.87085
-39.7151	-28.14	3.89038
-39.7149	-34.269	3.90991
-39.7116	-24.3889	3.92944
-39.7107	-26.9083	3.94897
-39.7089	-29.1721	3.96851
-39.7072	-24.4914	3.98804
-39.7044	-20.5969	4.00757
-39.7037	-28.0727	4.0271
-39.7023	-21.4076	4.04663
-39.7006	-21.0076	4.06616
-39.6995	-21.1392	4.08569
-39.6981	-19.8523	4.10522
-39.6955	-14.7301	4.12476
-39.694	-22.2144	4.14429
-39.6916	-16.8611	4.16382
-39.6914	-13.5314	4.18335
-39.6892	-14.2284	4.20288
-39.6877	-17.0657	4.22241
-39.6864	-12.1141	4.24194
-39.6846	-13.2416	4.26147
-39.6828	-12.1685	4.28101
-39.6812	-9.99742	4.30054
-39.679	-10.338	4.32007
-39.6778	-12.5785	4.3396
-39.6774	-9.02629	4.35913
-39.6746	-7.03888	4.37866
-39.674	-9.30416	4.39819
-39.671	-7.41675	4.41772
-39.6693	-1.33609	4.43726
-39.6689	-1.36548	4.45679
-39.6659	-7.75237	4.47632
-39.6648	-0.0404559	4.49585
-39.663	-1.23525	4.51538
-39.6616	-2.712775	4.53491
-39.6611	2.494045	4.55444
-39.6577	4.35899	4.57397
-39.657	-2.879178	4.59351
-39.6553	6.04333	4.61304
-39.6535	7.03735	4.63257
-39.6522	4.69683	4.6521
-39.651	5.93301	4.67163
-39.6495	12.0119	4.69116
-39.6462	3.33163	4.71069
-39.6453	9.72085	4.73022
-39.64389	11.6158	4.74976
-39.6419	10.2268	4.76929
-39.6405	10.605	4.78882
-39.6399	18.2562	4.80835
-39.637	11.6193	4.82788
-39.6345	11.6303	4.84741
-39.6344	15.9502	4.86694
-39.63353	18.8482	4.88647
-39.6296	14.4279	4.90601
-39.6291	18.7784	4.92554
-39.627	19.9858	4.94507
-39.6256	19.29336	4.9646
-39.6246	21.3176	4.98413
-39.6229	22.5486	5.00366
-39.6199	20.4411	5.02319
-39.6194	20.9149	5.04272
-39.6174	28.1882	5.06226
-39.6152	24.0602	5.08179
-39.615	24.801	5.10132
-39.6122	29.4208	5.12085
-39.612	31.28887	5.14038
-39.6087	24.1822	5.15991
-39.6076	32.613	5.17944
-39.6064	31.4176	5.19897
-39.6048	28.864	5.21851
-39.6037	34.3477	5.23804
-39.6011	37.2415	5.25757
-39.6	28.0955	5.2771
-39.5979	37.1944	5.29663
-39.597	37.8012	5.31616
-39.59428	35.3288	5.33569
-39.5934	37.1356	5.35522
-39.5909	42.6498	5.37476
-39.5904	37.171	5.39429
-39.588	40.39959	5.41382
-39.5877	43.3889	5.43335
-39.5843	42.4683	5.45288
-39.5835	41.2101	5.47241
-39.5818	46.3885	5.49194
-39.5806	45.1993	5.51147
-39.579	44.5457	5.53101
-39.5774	46.8702	5.55054
-39.5765	51.2102	5.57007
-39.5739	46.6618	5.5896
-39.5733	49.3308	5.60913
-39.5712	51.4934	5.62866
-39.56905	50.2205	5.64819
-39.56728	51.8969	5.66772
-39.5645	55.3315	5.68726
-39.5647	53.5464	5.70679
-39.5624	52.3959	5.72632
-39.5619	57.7322	5.74585
-39.5582	56.43512	5.76538
-39.5584	54.6187	5.78491
-39.5557	60.4097	5.80444
-39.5539	62.7161	5.82397
-39.552	57.2582	5.84351
-39.5508	63.5427	5.86304
-39.54887	64.2648	5.88257
-39.54789	61.8122	5.9021
-39.5465	65.812	5.92163
-39.5448	69.7295	5.94116
-39.5436	61.0225	5.96069
-39.5408	67.87413	5.98022
-39.5394	70.9977	5.99976
-39.5388	70.165	6.01929
-39.5379	68.8447	6.03882
-39.5353	75.0709	6.05835
-39.5328	69.1222	6.07788
-39.5313	73.1956	6.09741
-39.5301	74.4225	6.11694
-39.5281	76.21962	6.13647
-39.5275	72.8672	6.15601
-39.5244	78.2906	6.17554
-39.5236	77.125	6.19507
-39.5213	76.9759	6.2146
-39.5204	78.5502	6.23413
-39.5193	82.9047	6.25366
-39.5174	80.9446	6.27319
-39.5149	79.8201	6.29272
-39.51363	84.2923	6.31226
-39.5123	82.37999	6.33179
-39.5098	82.1278	6.35132
-39.5082	88.2853	6.37085
-39.5071	88.9244	6.39038
-39.50486	80.2821	6.40991
-39.5043	90.3158	6.42944
-39.5023	88.7136	6.44897
-39.5007	86.5702	6.46851
-39.4992	91.6807	6.48804
-39.4975	94.4997	6.50757
-39.4955	88.157	6.5271
-39.4944	95.0278	6.54663
-39.4931	97.7131	6.56616
-39.4906	92.4863	6.58569
-39.4904	95.0328	6.60522
-39.4881	100.524	6.62476
-39.4862	93.3913	6.64429
-39.4849	96.6378	6.66382
-39.4827	101.875	6.68335
-39.4814	102.285	6.70288
-39.4793	99.2725	6.72241
-39.4779	105.924	6.74194
-39.476	101.638	6.76147
-39.475	102.942	6.78101
-39.4737	104.756	6.80054
-39.4721	109.923	6.82007
-39.4696	104.176	6.8396
-39.4667	107.475	6.85913
-39.4666	110.879	6.87866
-39.4658	108.517	6.89819
-39.4625	108.711	6.91772
-39.4614	112.789	6.93726
-39.4596	112.057	6.95679
-39.4591	109.943	6.97632
-39.4558	116.997	6.99585
-39.4552	113.625	7.01538
-39.4537	114.799	7.03491
-39.45134	118.619	7.05444
-39.4495	121.183	7.07397
-39.44838	113.172	7.09351
-39.4465	120.581	7.11304
-39.445	121.762	7.13257
-39.44421	119.149	7.1521
-39.4425	123.54	7.17163
-39.4406	128.356	7.19116
-39.439	118.582	7.21069
-39.4384	125.7637	7.23022
-39.4347	130.082	7.24976
-39.4342	126.243	7.26929
-39.43185	125.4131	7.28882
-39.4307	132.422	7.30835
-39.4289	126.48	7.32788
-39.4272	127.82	7.34741
-39.4263	131.077	7.36694
-39.4244	135.748	7.38647
-39.4225	131.642	7.40601
-39.42112	135.814	7.42554
-39.4193	134.418	7.44507
-39.4184	133.871	7.4646
-39.4168	136.936	7.48413
-39.4163	139.395	7.50366
-39.4119	135.86	7.52319
-39.4118	137.14	7.54272
-39.4098	142.1893	7.56226
-39.4078	140.149	7.58179
-39.4064	140.108	7.60132
-39.4056	144.618	7.62085
-39.4023	143.458	7.64038
-39.4013	138.667	7.65991
-39.3999	147.737	7.67944
-39.399	147.552	7.69897
-39.3967	144.166	7.71851
-39.39481	147.494	7.73804
-39.39333	153.115	7.75757
-39.39201	143.225	7.7771
-39.3898	151.223	7.79663
-39.3882	152.439	7.81616
-39.3872	150.726	7.83569
-39.3843	151.365	7.85522
-39.3842	158.679	7.87476
-39.3821	148.1676	7.89429
-39.3813	154.983	7.91382
-39.3797	159.295	7.93335
-39.376	158.462	7.95288
-39.3752	154.2944	7.97241
-39.3738	161.963	7.99194
-39.3722	158.974	8.01147
-39.371	159.081	8.03101
-39.3679	160.653	8.05054
-39.367	163.831	8.07007
-39.36652	161.251	8.0896
-39.3641	164.226	8.10913
-39.3633	164.764	8.12866
-39.3614	163.425	8.14819
-39.3598	164.732	8.16772
-39.3573	170.481	8.18726
-39.3563	169.179	8.20679
-39.3536	163.913	8.22632
-39.3532	170.617	8.24585
-39.3509	171.423	8.26538
-39.3501	170.463	8.28491
-39.3477	173.242	8.30444
-39.3466	175.338	8.32397
-39.34473	169.841	8.34351
-39.3431	176.391	8.36304
-39.34087	178.343	8.38257
-39.3391	173.5	8.4021
-39.3373	176.335	8.42163
-39.3361	184.91	8.44116
-39.3348	174.9575	8.46069
-39.3338	180.249	8.48022
-39.3329	182.784	8.49976
-39.32848	181.441	8.51929
-39.3274	181.376	8.53882
-39.3272	186.702	8.55835
-39.32534	181.77	8.57788
-39.3234	184.501	8.59741
-39.3222	189.047	8.61694
-39.3209	190.604	8.63647
-39.3183	185.35	8.65601
-39.3171	189.669	8.67554
-39.3158	190.167	8.69507
-39.3137	188.133	8.7146
-39.3116	190.927	8.73413
-39.3093	194.0898	8.75366
-39.3083	190.916	8.77319
-39.3071	193.33	8.79272
-39.3056	195.485	8.81226
-39.304	194.641	8.83179
-39.3027	193.2336	8.85132
-39.3011	199.397	8.87085
-39.2976	200.4586	8.89038
-39.299	194.211	8.90991
-39.2957	202.122	8.92944
-39.2942	202.064	8.94897
-39.2917	199.762	8.96851
-39.291	204.681	8.98804
-39.2898	207.0936	9.00757
-39.2879	199.244	9.0271
-39.2864	206.633	9.04663
-39.2843	208.746	9.06616
-39.2835	204.594	9.08569
-39.281	206.138	9.10522
-39.2802	213.896	9.12476
-39.2784	205.339	9.14429
-39.2766	210.781	9.16382
-39.2741	213.0806	9.18335
-39.2737	213.066	9.20288
-39.2706	210.796	9.22241
-39.2696	216.937	9.24194
-39.2684	213.442	9.26147
-39.2671	212.785	9.28101
-39.2648	216.171	9.30054
-39.2638	219.612	9.32007
-39.2612	215.788	9.3396
-39.2591	218.579	9.35913
-39.2587	218.828	9.37866
-39.2564	220.6664	9.39819
-39.2546	220.838	9.41772
-39.2533	224.772	9.43726
-39.25211	222.417	9.45679
-39.2506	221.512	9.47632
-39.24921	228.709	9.49585
-39.2469	227.7764	9.51538
-39.2442	222.305	9.53491
-39.2436	228.572	9.55444
-39.2425	230.899	9.57397
-39.2396	224.529	9.59351
-39.2386	231.447	9.61304
-39.238	232.373	9.63257
-39.2345	228.763	9.6521
-39.23415	233.417	9.67163
-39.2329	238.681	9.69116
-39.231	228.635	9.71069
-39.2287	233.92	9.73022
-39.2275	237.553	9.74976
-39.2252	236.529	9.76929
-39.2238	236.7948	9.78882
-39.22282	241.867	9.80835
-39.2213	235.627	9.82788
-39.2197	239.487	9.84741
-39.2177	242.3398	9.86694
-39.2154	244.045	9.88647
-39.214	240.182	9.90601
-39.21254	246.538	9.92554
-39.2116	244.6757	9.94507
-39.2085	243.487	9.9646
-39.2081	244.9792	9.98413
-39.2072	250.825	10.0037
-39.2045	248.471	10.0232
-39.2037	247.769	10.0427
-39.202	249.902	10.0623
-39.1994	249.802	10.0818
-39.1998	248.312	10.1013
-39.1968	254.383	10.12085
-39.195	252.973	10.1404
-39.193	248.301	10.1599
-39.19117	257.101	10.1794
-39.18948	257.846	10.199
-39.1884	253.014	10.2185
-39.1868	254.795	10.238
-39.1856	263.043	10.2576
-39.1842	253.129	10.2771
-39.1828	258.954	10.2966
-39.1806	262.462	10.3162
-39.1789	257.504	10.3357
-39.1774	261.518	10.3552
-39.1754	267.212	10.3748
-39.1731	259.658	10.3943
-39.17255	264.625	10.4138
-39.1703	267.347	10.43335
-39.1688	267.108	10.4529
-39.1671	264.378	10.4724
-39.166	271.483	10.4919
-39.16433	267.396	10.5115
-39.1629	267.049	10.531
-39.1599	271.578	10.5505
-39.1596	274.341	10.5701
-39.1583	268.384	10.5896
-39.1557	273.209	10.6091
-39.1554	275.711	10.6287
-39.1517	274	10.6482
-39.1523	273.201	10.6677
-39.1487	278.304	10.6873
-39.1479	277.784	10.7068
-39.1458	275.873	10.7263
-39.14529	279.411	10.74585
-39.1423	279.513	10.7654
-39.1411	276.246	10.7849
-39.14	282.945	10.8044
-39.1378	283.963	10.824
-39.136	276.906	10.8435
-39.1351	283.467	10.863
-39.1316	286.745	10.8826
-39.1318	281.842	10.9021
-39.1303	283.847	10.9216
-39.1276	290.666	10.9412
-39.1264	281.471	10.9607
-39.1254	289.284	10.9802
-39.1239	290.23	10.9998
-39.1233	287.08	11.0193
-39.1203	287.724	11.0388
-39.1181	297.445	11.05835
-39.1163	289.69	11.0779
-39.1157	289.76	11.0974
-39.1142	293.5148	11.1169
-39.1123	296.792	11.1365
-39.1109	292.582	11.156
-39.1094	298.576	11.1755
-39.10854	295.496	11.1951
-39.1061	296.117	11.2146
-39.1046	298.203	11.2341
-39.10183	304.29	11.2537
-39.1023	298.17	11.2732
-39.0988	298.568	11.2927
-39.0964	303.842	11.3123
-39.095	302.541	11.3318
-39.094	300.742	11.3513
-39.0928	305.595	11.37085
-39.0904	306.714	11.3904
-39.089	302.432	11.4099
-39.0875	308.8399	11.4294
-39.0851	307.892	11.449
-39.08466	304.43	11.4685
-39.083	309.2352	11.488
-39.081	313.2493	11.5076
-39.0788	305.6543	11.5271
-39.077	310.809	11.5466
-39.0771	313.872	11.5662
-39.0741	310.88	11.5857
-39.0736	311.476	11.6052
-39.0706	318.225	11.6248
-39.0702	309.7395	11.6443
-39.0687	316.05	11.6638
-39.0664	319.563	11.68335
-39.0653	317.699	11.7029
-39.0642	315.1897	11.7224
-39.0625	323.08	11.7419
-39.0599	317.495	11.7615
-39.0581	318.174	11.781
-39.0562	319.708	11.8005
-39.0556	323.753	11.8201
-39.05402	320.557	11.8396
-39.0522	324.61	11.8591
-39.0505	323.638	11.8787
-39.0479	322.638	11.8982
-39.0457	324.329	11.9177
-39.0452	330.415	11.9373
-39.04356	326.893	11.9568
-39.0419	323.889	11.9763
-39.04	329.046	11.99585
-39.039	329.743	12.0154
-39.0372	327.801	12.0349
-39.03521	333.186	12.0544
-39.0331	334.445	12.074
-39.033	328.286	12.0935
-39.0306	335.495	12.113
-39.0285	335.7919	12.1326
-39.0267	329.988	12.1521
-39.0263	334.314	12.1716
-39.02375	340.79	12.1912
-39.0229	333.069	12.2107
-39.0212	337.223	12.2302
-39.019	341.802	12.2498
-39.0174	338.436	12.2693
-39.0162	337.86	12.2888
-39.0146	344.109	12.30835
-39.0131	337.873	12.3279
-39.0116	340.066	12.3474
-39.0096	345.126	12.3669
-39.0079	345.519	12.3865
-39.0056	340.717	12.406
-39.005	346.845	12.4255
-39.00272	345.466	12.4451
-39.0005	346.76	12.4646
-38.9992	346.691	12.4841
-38.9981	351.172	12.5037
-38.9959	347.106	12.5232
-38.9949	348.966	12.5427
-38.9935	352.9061	12.5623
-38.9929	350.893	12.5818
-38.9901	348.634	12.6013
-38.9879	356.167	12.62085
-38.9873	355.237	12.6404
-38.9855	349.71	12.6599
-38.9833	353.919	12.6794
-38.9811	360.536	12.699
-38.9794	353.847	12.7185
-38.978	357.876	12.738
-38.9768	360.57	12.7576
-38.9756	354.014	12.7771
-38.9732	359.428	12.7966
-38.9713	363.7338	12.8162
-38.9689	357.9241	12.8357
-38.9682	359.165	12.8552
-38.9672	367.02	12.8748
-38.9665	360.788	12.8943
-38.9635	361.976	12.9138
-38.9611	364.668	12.93335
-38.9597	366.3493	12.9529
-38.959	362.132	12.9724
-38.958	369.585	12.9919
-38.9561	364.818	13.0115
-38.9553	365.328	13.031
-38.9523	369.696	13.0505
-38.9507	372.775	13.0701
-38.94949	366.8356	13.0896
-38.9483	370.403	13.1091
-38.9454	372.014	13.1287
-38.94426	372.696	13.1482
-38.9421	370.325	13.1677
-38.9413	376.248	13.1873
-38.9393	372.451	13.2068
-38.9375	372.796	13.2263
-38.935	378.041	13.24585
-38.9342	378.599	13.2654
-38.9332	373.567	13.2849
-38.9311	379.917	13.3044
-38.9302	382.165	13.324
-38.9278	374.597	13.3435
-38.9268	378.821	13.363
-38.9245	381.077	13.3826
-38.9235	378.612	13.4021
-38.9216	381.6283	13.4216
-38.9201	386.997	13.4412
-38.9185	379.542	13.4607
-38.9164	382.2272	13.4802
-38.9157	388.386	13.4998
-38.9128	384.684	13.5193
-38.9112	383.9379	13.5388
-38.91	391.124	13.55835
-38.9092	385.131	13.5779
-38.90712	386.638	13.5974
-38.9052	389.669	13.6169
-38.904	390.604	13.6365
-38.9018	386.433	13.656
-38.9004	392.917	13.6755
-38.9001	391.915	13.6951
-38.89711	389.2482	13.7146
-38.8953	391.085	13.7341
-38.8934	397.991	13.7537
-38.89138	393.418	13.7732
-38.8907	394.5932	13.7927
-38.8894	395.306	13.8123
-38.8871	397.9931	13.8318
-38.8858	395.334	13.8513
-38.8832	401.758	13.87085
-38.8816	397.991	13.8904
-38.8808	394.876	13.9099
-38.8793	399.908	13.9294
-38.8777	403.6095	13.949
-38.8766	397.4346	13.9685
-38.8745	402.779	13.988
-38.8727	404.2616	14.0076
-38.8715	397.6	14.0271
-38.8702	402.983	14.0466
-38.8678	406.468	14.0662
-38.866	402.235	14.0857
-38.8647	404.4007	14.1052
-38.8638	411.823	14.1248
-38.8614	401.741	14.1443
-38.8606	404.355	14.1638
-38.8591	409.428	14.18335
-38.856	410.143	14.2029
-38.8547	403.81	14.2224
-38.85355	411.486	14.2419
-38.8512	409.125	14.2615
-38.8499	409.403	14.281
-38.849	411.599	14.3005
-38.8468	415.699	14.3201
-38.8456	408.452	14.3396
-38.8444	415.185	14.3591
-38.84182	414.566	14.3787
-38.8403	413.366	14.3982
-38.8392	411.371	14.4177
-38.8373	417.585	14.4373
-38.83633	414.757	14.4568
-38.8346	414.0401	14.4763
-38.8327	416.685	14.49585
-38.8306	418.261	14.5154
-38.8286	416.219	14.5349
-38.8273	421.166	14.5544
-38.8257	421.706	14.574
-38.8235	415.176	14.5935
-38.8219	421.252	14.613
-38.8205	426.065	14.6326
-38.8192	419.824	14.6521
-38.8178	420.93	14.6716
-38.8152	426.6127	14.6912
-38.8147	420.82	14.7107
-38.8129	422.565	14.7302
-38.8106	427.893	14.7498
-38.81	423.067	14.7693
-38.8069	423.829	14.7888
-38.8063	432.188	14.80835
-38.8042	425.434	14.8279
-38.8032	426.019	14.8474
-38.8019	430.96	14.8669
-38.7999	431.9278	14.8865
-38.7981	426.508	14.906
-38.796	432.524	14.9255
-38.7947	429.472	14.9451
-38.7937	430.995	14.9646
-38.7915	430.67	14.9841
-38.7895	437.217	15.0037
-38.7887	430.979	15.0232
-38.7872	434.1	15.0427
-38.7841	435.099	15.0623
-38.7832	435.189	15.0818
-38.7818	432.88	15.1013
-38.7803	438.978	15.12085
-38.7786	436.773	15.1404
-38.7758	434.665	15.1599
-38.7756	437.815	15.1794
-38.77309	439.966	15.199
-38.7718	435.655	15.2185
-38.7703	439.801	15.238
-38.7692	443.59	15.2576
-38.7666	435.665	15.2771
-38.7654	438.278	15.2966
-38.7626	445.302	15.3162
-38.7632	440.5603	15.3357
-38.7599	439.23	15.3552
-38.75843	446.822	15.3748
-38.7577	438.525	15.3943
-38.7552	440.496	15.4138
-38.7539	447.387	15.43335
-38.7534	444.0448	15.4529
-38.7502	441.362	15.4724
-38.7497	450.003	15.4919
-38.7471	445.29	15.5115
-38.7453	444.333	15.531
-38.7454	446.147	15.5505
-38.7431	450.134	15.5701
-38.741	445.758	15.5896
-38.73856	449.1908	15.6091
-38.7376	449.4407	15.6287
-38.7365	449.84	15.6482
-38.7354	448.008	15.6677
-38.7323	455.848	15.6873
-38.7314	450.785	15.7068
-38.7297	447.799	15.7263
-38.7274	452.804	15.74585
-38.7279	455.4884	15.7654
-38.7245	450.499	15.7849
-38.7228	454.909	15.8044
-38.7217	455.872	15.824
-38.72052	452.881	15.8435
-38.7184	454.744	15.863
-38.7171	458.195	15.8826
-38.7133	452.6868	15.9021
-38.7139	455.3092	15.9216
-38.71204	461.0257	15.9412
-38.7111	453.029	15.9607
-38.7093	453.718	15.9802
-38.7067	460.752	15.9998
-38.70607	458.0614	16.0193
-38.7042	454.844	16.0388
-38.7015	463.186	16.05835
-38.7004	454.983	16.0779
-38.6979	457.303	16.0974
-38.6974	460.826	16.1169
-38.6957	462.063	16.1365
-38.694	456.498	16.156
-38.69252	463.553	16.1755
-38.6912	460.774	16.1951
-38.688	460.723	16.2146
-38.6881	461.184	16.2341
-38.6857	463.6	16.2537
-38.68462	461.454	16.2732
-38.6827	464.319	16.2927
-38.6799	464.445	16.3123
-38.6792	464.464	16.3318
-38.6775	460.937	16.3513
-38.6764	469.9664	16.37085
-38.6734	465.714	16.3904
-38.67141	463.086	16.4099
-38.671	465.036	16.4294
-38.66922	470.316	16.449
-38.6671	464.851	16.4685
-38.666	466.723	16.488
-38.6639	469.117	16.5076
-38.6629	463.212	16.5271
-38.6624	465.958	16.5466
-38.6599	471.582	16.5662
-38.65707	466.398	16.5857
-38.656	464.727	16.6052
-38.6547	475.403	16.6248
-38.6525	468.261	16.6443
-38.6513	466.613	16.6638
-38.65	472.869	16.68335
-38.6483	470.605	16.7029
-38.6467	467.256	16.7224
-38.64455	474.077	16.7419
-38.6442	468.389	16.7615
-38.6411	467.469	16.781
-38.6403	471.808	16.8005
-38.6391	475.807	16.8201
-38.63612	468.583	16.8396
-38.6357	474.5405	16.8591
-38.6345	473.088	16.8787
-38.6317	472.495	16.8982
-38.6301	471.173	16.9177
-38.6287	476.859	16.9373
-38.62727	471.998	16.9568
-38.6256	471.692	16.9763
-38.6242	474.815	16.99585
-38.6223	475.01	17.0154
-38.6211	471.197	17.0349
-38.6193	478.118	17.0544
-38.6167	478.41	17.074
-38.6155	471.726	17.0935
-38.6145	474.063	17.113
-38.6126	479.076	17.1326
-38.6107	472.934	17.1521
-38.6097	476.163	17.1716
-38.608	480.29	17.1912
-38.60424	470.973	17.2107
-38.6039	473.826	17.2302
-38.6022	481.392	17.2498
-38.6005	475.707	17.2693
-38.5993	471.7886	17.2888
-38.59864	481.72	17.30835
-38.5967	475.208	17.3279
-38.5947	474.803	17.3474
-38.5932	478.547	17.3669
-38.5903	478.777	17.3865
-38.5897	474.915	17.406
-38.5874	481.272	17.4255
-38.5856	477.3	17.4451
-38.58448	475.646	17.4646
-38.58231	477.126	17.4841
-38.5811	481.96	17.5037
-38.5799	478.229	17.5232
-38.5787	478.18	17.5427
-38.5772	479.299	17.5623
-38.5745	479.372	17.5818
-38.5727	475.929	17.6013
-38.5722	482.651	17.62085
-38.5689	479.303	17.6404
-38.5678	476.913	17.6599
-38.5659	480.776	17.6794
-38.5654	483.142	17.699
-38.5634	474.808	17.7185
-38.562	480.585	17.738
-38.5601	484.463	17.7576
-38.5582	478.014	17.7771
-38.5568	477.4249	17.7966
-38.5541	483.323	17.8162
-38.5542	478.827	17.8357
-38.5525	478.9	17.8552
-38.5502	486.983	17.8748
-38.5482	477.762	17.8943
-38.5478	477.516	17.9138
-38.5459	484.107	17.93335
-38.54557	482.339	17.9529
-38.54174	477.8598	17.9724
-38.5406	484.549	17.9919
-38.5393	480.382	18.0115
-38.5376	478.933	18.031
-38.535	481.8461	18.0505
-38.5347	483.3912	18.0701
-38.5333	477.363	18.0896
-38.53138	482.855	18.1091
-38.5297	481.488	18.1287
-38.527	479.794	18.1482
-38.5269	477.8595	18.1677
-38.524	486.744	18.1873
-38.5226	481.71	18.2068
-38.5213	479.665	18.2263
-38.5191	481.2114	18.24585
-38.5181	482.137	18.2654
-38.51656	477.225	18.2849
-38.51458	485.031	18.3044
-38.5135	483.506	18.324
-38.5121	477.349	18.3435
-38.5091	480.874	18.363
-38.5081	484.854	18.3826
-38.507	478.315	18.4021
-38.5044	479.985	18.4216
-38.5037	486.537	18.4412
-38.5016	479.931	18.4607
-38.5006	480.384	18.4802
-38.4987	485.595	18.4998
-38.4968	481.2128	18.5193
-38.4958	479.617	18.5388
-38.4934	486.162	18.55835
-38.4916	482.16	18.5779
-38.4901	478.692	18.5974
-38.489	483.9895	18.6169
-38.4873	483.913	18.6365
-38.4852	480.173	18.656
-38.4835	485.055	18.6755
-38.4825	480.696	18.6951
-38.47924	481.739	18.7146
-38.4783	481.5791	18.7341
-38.4778	483.854	18.7537
-38.4762	478.649	18.7732
-38.4748	482.912	18.7927
-38.473	482.69	18.8123
-38.4705	482.127	18.8318
-38.4682	478.681	18.8513
-38.4677	486.075	18.87085
-38.4659	483.72	18.8904
-38.4644	479.837	18.9099
-38.4621	482.7	18.9294
-38.45919	483.614	18.949
-38.4586	479.877	18.9685
-38.4577	484.159	18.988
-38.4563	486.251	19.0076
-38.4547	478.281	19.0271
-38.4535	481.18	19.0466
-38.4507	487.253	19.0662
-38.4493	480.945	19.0857
-38.4485	481.625	19.1052
-38.4469	485.693	19.1248
-38.4449	480.7691	19.1443
-38.4429	480.508	19.1638
-38.4417	485.396	19.18335
-38.4392	482.1322	19.2029
-38.4373	478.016	19.2224
-38.4364	486.977	19.2419
-38.4349	481.988	19.2615
-38.4326	479.172	19.281
-38.4312	481.6705	19.3005
-38.4301	485.92	19.3201
-38.42836	481.193	19.3396
-38.4275	483.155	19.3591
-38.4249	483.372	19.3787
-38.4229	481.47	19.3982
-38.4212	480.562	19.4177
-38.4209	486.865	19.4373
-38.4184	480.992	19.4568
-38.41721	481.464	19.4763
-38.4154	483.418	19.49585
-38.4135	484.296	19.5154
-38.4121	478.38	19.5349
-38.4105	484.228	19.5544
-38.4067	482.918	19.574
-38.4059	479.413	19.5935
-38.4059	482.2876	19.613
-38.4043	486.043	19.6326
-38.4019	477.841	19.6521
-38.40094	481.258	19.6716
-38.3985	487.93	19.6912
-38.397	479.732	19.7107
-38.3953	478.061	19.7302
-38.39452	486.522	19.7498
-38.3927	481.47	19.7693
-38.3909	478.6817	19.7888
-38.3894	486.216	19.80835
-38.388	480.641	19.8279
-38.3863	478.767	19.8474
-38.3836	485.3869	19.8669
-38.3818	484.317	19.8865
-38.381	477.48	19.906
-38.37883	484.217	19.9255
-38.37751	483.37	19.9451
-38.3766	479.491	19.9646
-38.3757	479.709	19.9841
-38.3724	485.776	20.0037
-38.3714	481.178	20.0134

Data Header:			0.254_hd_dimension_typeiv_4545_r0			Time:	40.0181	s	4/13/2019 8:14:36 PM
Data Acquisition:	Timed
Station Name:	ft40.cfg
Test File Name:	monotonic_0.2540_typeiv_hd_4545_dimension.tst
Displacement	Force	Running Time
mm	N	s
-38.3707	480.507	20.0232
-38.3705	482.339	20.0427
-38.3681	483.262	20.0623
-38.3668	481.7663	20.0818
-38.3654	477.984	20.1013
-38.3624	487.385	20.12085
-38.3618	483.744	20.1404
-38.3601	478.876	20.1599
-38.3582	481.671	20.1794
-38.3554	484.871	20.199
-38.3549	477.827	20.2185
-38.3525	483.294	20.238
-38.3526	484.79	20.2576
-38.3494	479.232	20.2771
-38.34874	479.979	20.2966
-38.3474	486.496	20.3162
-38.3451	477.622	20.3357
-38.34433	480.012	20.3552
-38.3429	486.255	20.3748
-38.34082	480.053	20.3943
-38.3399	477.509	20.4138
-38.3363	484.107	20.43335
-38.3359	483.5127	20.4529
-38.3343	477.994	20.4724
-38.3317	485.8685	20.4919
-38.3301	482.132	20.5115
-38.3291	477.927	20.531
-38.3269	483.36	20.5505
-38.3246	485.074	20.5701
-38.3249	476.733	20.5896
-38.3228	483.163	20.6091
-38.32045	481.988	20.6287
-38.3184	480.621	20.6482
-38.318	477.072	20.6677
-38.3151	485.525	20.6873
-38.3137	482.173	20.7068
-38.3127	481.959	20.7263
-38.3118	481.808	20.74585
-38.3096	483.821	20.7654
-38.3083	478.199	20.7849
-38.3074	486.588	20.8044
-38.3043	485.803	20.824
-38.3027	479.472	20.8435
-38.3009	481.025	20.863
-38.2997	485.509	20.8826
-38.2976	479.2561	20.9021
-38.2964	481.723	20.9216
-38.2955	484.594	20.9412
-38.2938	478.66	20.9607
-38.2918	478.137	20.9802
-38.2905	485.62	20.9998
-38.2877	480.188	21.0193
-38.2871	476.774	21.0388
-38.2865	485.699	21.05835
-38.2841	482.314	21.0779
-38.2813	477.4425	21.0974
-38.2806	483.154	21.1169
-38.2781	482.1662	21.1365
-38.2771	478.21	21.156
-38.2755	483.886	21.1755
-38.2744	481.532	21.1951
-38.2726	477.465	21.2146
-38.2712	481.23	21.2341
-38.2695	485.021	21.2537
-38.2679	478.971	21.2732
-38.2655	481.426	21.2927
-38.2646	482.491	21.3123
-38.2622	483.41	21.3318
-38.2613	478.191	21.3513
-38.2594	484.225	21.37085
-38.2587	481.672	21.3904
-38.2569	479.509	21.4099
-38.2539	481.781	21.4294
-38.2513	484.449	21.449
-38.251	475.257	21.4685
-38.2487	482.233	21.488
-38.2469	485.049	21.5076
-38.2461	478.602	21.5271
-38.2447	477.834	21.5466
-38.2423	484.213	21.5662
-38.2435	476.886	21.5857
-38.2392	479.31	21.6052
-38.2381	485.514	21.6248
-38.2366	477.174	21.6443
-38.2349	475.29	21.6638
-38.233	484.9856	21.68335
-38.2312	481.467	21.7029
-38.2297	477.573	21.7224
-38.2285	484.257	21.7419
-38.2272	479.774	21.7615
-38.2254	478.554	21.781
-38.2233	481.702	21.8005
-38.2209	482.369	21.8201
-38.22	478.55	21.8396
-38.2183	483.109	21.8591
-38.2179	480.348	21.8787
-38.21616	478.828	21.8982
-38.21307	478.167	21.9177
-38.2117	484.337	21.9373
-38.2106	480.142	21.9568
-38.2082	478.931	21.9763
-38.2062	479.6441	21.99585
-38.20504	481.894	22.0154
-38.2036	477.929	22.0349
-38.2026	483.631	22.0544
-38.201	482.439	22.074
-38.1995	478.118	22.0935
-38.197	479.452	22.113
-38.1963	484.734	22.1326
-38.194	477.026	22.1521
-38.1922	480.3595	22.1716
-38.1904	483.6196	22.1912
-38.189	479.397	22.2107
-38.187	477.245	22.2302
-38.1864	484.158	22.2498
-38.1845	479.066	22.2693
-38.18298	477.771	22.2888
-38.1803	485.1517	22.30835
-38.1791	478.804	22.3279
-38.1774	475.3187	22.3474
-38.1757	482.934	22.3669
-38.1746	482.553	22.3865
-38.1723	475.1	22.406
-38.1701	482.1955	22.4255
-38.1705	479.117	22.4451
-38.1682	477.621	22.4646
-38.1674	479.886	22.4841
-38.1652	481.895	22.5037
-38.1637	477.342	22.5232
-38.1619	481.146	22.5427
-38.1602	481.346	22.5623
-38.158	481.264	22.5818
-38.1572	476.705	22.6013
-38.1539	484.153	22.62085
-38.1538	481.516	22.6404
-38.1508	477.983	22.6599
-38.1499	479.221	22.6794
-38.1488	483.4808	22.699
-38.1467	477.451	22.7185
-38.1451	481.625	22.738
-38.1438	482.847	22.7576
-38.1416	477.105	22.7771
-38.1407	478.614	22.7966
-38.1385	484.984	22.8162
-38.13636	478.338	22.8357
-38.1354	476.681	22.8552
-38.1347	483.4	22.8748
-38.1316	479.4906	22.8943
-38.1306	476.825	22.9138
-38.1288	483.1134	22.93335
-38.1272	479.6889	22.9529
-38.1257	476.953	22.9724
-38.12426	484.2	22.9919
-38.12265	481.239	23.0115
-38.1204	474.835	23.031
-38.1194	479.976	23.0505
-38.1187	483.812	23.0701
-38.11504	477.201	23.0896
-38.1146	478.849	23.1091
-38.1115	481.243	23.1287
-38.1105	479.5116	23.1482
-38.1097	477.9	23.1677
-38.1081	485.1373	23.1873
-38.1049	479.998	23.2068
-38.1031	478.783	23.2263
-38.1022	481.911	23.24585
-38.1017	482.658	23.2654
-38.1001	475.792	23.2849
-38.0976	482.7262	23.3044
-38.09713	483.574	23.324
-38.0948	479.642	23.3435
-38.0931	479.111	23.363
-38.0907	483.311	23.3826
-38.0896	476.7739	23.4021
-38.087	481.255	23.4216
-38.0867	485.685	23.4412
-38.0857	477.642	23.4607
-38.0829	476.855	23.4802
-38.08149	484.33	23.4998
-38.0796	479.4823	23.5193
-38.0783	477.605	23.5388
-38.0761	484.0119	23.55835
-38.0744	479.086	23.5779
-38.0734	475.837	23.5974
-38.0724	483.738	23.6169
-38.0705	480.58	23.6365
-38.0697	475.286	23.656
-38.0668	481.071	23.6755
-38.0661	480.23	23.6951
-38.0632	475.6366	23.7146
-38.0625	477.339	23.7341
-38.0611	483.411	23.7537
-38.0592	477.039	23.7732
-38.0573	479.773	23.7927
-38.0566	479.814	23.8123
-38.0547	480.052	23.8318
-38.05209	478.804	23.8513
-38.0514	483.738	23.87085
-38.048	481.402	23.8904
-38.0484	478.619	23.9099
-38.046	478.749	23.9294
-38.0432	483.027	23.949
-38.0426	476.152	23.9685
-38.0407	481.1759	23.988
-38.0397	482.385	24.0076
-38.0383	477.2543	24.0271
-38.0366	476.966	24.0466
-38.0348	482.964	24.0662
-38.032	474.931	24.0857
-38.0308	478.383	24.1052
-38.0291	485.289	24.1248
-38.0282	477.272	24.1443
-38.0263	474.378	24.1638
-38.0252	482.612	24.18335
-38.0224	479.8378	24.2029
-38.021	476.959	24.2224
-38.0194	481.383	24.2419
-38.0172	478.253	24.2615
-38.01704	474.996	24.281
-38.0153	481.8714	24.3005
-38.0122	481.64	24.3201
-38.0105	475.316	24.3396
-38.0107	480.469	24.3591
-38.0076	480.69	24.3787
-38.0072	479.797	24.3982
-38.0061	474.924	24.4177
-38.0038	483.268	24.4373
-38.0014	479.416	24.4568
-38.0008	478.4	24.4763
-37.9982	480	24.49585
-37.9964	479.052	24.5154
-37.99551	474.427	24.5349
-37.9946	484.057	24.5544
-37.9917	480.338	24.574
-37.9909	475.389	24.5935
-37.98806	477.73	24.613
-37.9873	485.17	24.6326
-37.9857	475.452	24.6521
-37.9844	479.411	24.6716
-37.982	482.214	24.6912
-37.9803	477.6387	24.7107
-37.9785	474.79	24.7302
-37.9782	485.013	24.7498
-37.9751	478.194	24.7693
-37.97366	475.001	24.7888
-37.9727	483.173	24.80835
-37.9706	480.035	24.8279
-37.9702	473.889	24.8474
-37.9668	480.001	24.8669
-37.9663	482.494	24.8865
-37.9652	476.156	24.906
-37.9622	482.08	24.9255
-37.9615	479.6185	24.9451
-37.9596	476.212	24.9646
-37.9573	477.885	24.9841
-37.9557	482.233	25.0037
-37.9539	475.829	25.0232
-37.9542	478.615	25.0427
-37.9514	481.108	25.0623
-37.949	479.7106	25.0818
-37.9475	475.856	25.1013
-37.9462	482.201	25.12085
-37.9444	478.3299	25.1404
-37.9436	478.487	25.1599
-37.9422	479.521	25.1794
-37.9394	481.666	25.199
-37.9385	474.6813	25.2185
-37.9376	480.76	25.238
-37.9351	482.569	25.2576
-37.9328	476.223	25.2771
-37.931	475.328	25.2966
-37.9293	483.37	25.3162
-37.9282	476.986	25.3357
-37.9268	478.303	25.3552
-37.9256	484.107	25.3748
-37.9237	477.232	25.3943
-37.9219	474.33	25.4138
-37.92054	483.925	25.43335
-37.9189	478.266	25.4529
-37.9168	473.2796	25.4724
-37.9155	481.768	25.4919
-37.9138	479.036	25.5115
-37.9125	474.247	25.531
-37.9109	478.467	25.5505
-37.9087	481.889	25.5701
-37.908	475.1571	25.5896
-37.9046	480.52	25.6091
-37.9044	479.903	25.6287
-37.90321	475.978	25.6482
-37.9005	477.59	25.6677
-37.8991	483.468	25.6873
-37.8983	479.381	25.7068
-37.89584	476.306	25.7263
-37.8945	479.408	25.74585
-37.8932	481.007	25.7654
-37.8911	475.864	25.7849
-37.88887	482.507	25.8044
-37.888	480.335	25.824
-37.8868	476.6243	25.8435
-37.884	479.2149	25.863
-37.8825	483.754	25.8826
-37.8826	474.088	25.9021
-37.8797	478.866	25.9216
-37.8789	482.23	25.9412
-37.8767	475.576	25.9607
-37.8749	475.341	25.9802
-37.8728	481.846	25.9998
-37.8712	478.295	26.0193
-37.8698	477.18	26.0388
-37.8681	481.882	26.05835
-37.867	476.427	26.0779
-37.8642	473.249	26.0974
-37.8641	480.956	26.1169
-37.8617	482.353	26.1365
-37.8605	472.892	26.156
-37.8582	479.2738	26.1755
-37.858	480.385	26.1951
-37.8556	474.488	26.2146
-37.8539	478.324	26.2341
-37.85334	482.189	26.2537
-37.8506	477.8988	26.2732
-37.8492	479.28	26.2927
-37.8471	479.3793	26.3123
-37.8461	477.616	26.3318
-37.8436	473.562	26.3513
-37.8421	482.812	26.37085
-37.8401	478.429	26.3904
-37.8387	476.291	26.4099
-37.8362	476.377	26.4294
-37.8367	480.431	26.449
-37.8343	473.979	26.4685
-37.8331	479.7739	26.488
-37.831	479.152	26.5076
-37.8298	476.15	26.5271
-37.8276	475.107	26.5466
-37.8263	483.6853	26.5662
-37.824	475.752	26.5857
-37.8227	476.479	26.6052
-37.8227	483.234	26.6248
-37.8192	475.3555	26.6443
-37.8181	473.1297	26.6638
-37.8165	482.234	26.68335
-37.8138	478.163	26.7029
-37.8125	474.066	26.7224
-37.812	482.082	26.7419
-37.81	477.643	26.7615
-37.8082	471.823	26.781
-37.8073	480.475	26.8005
-37.805	483.086	26.8201
-37.8028	473.081	26.8396
-37.8023	478.292	26.8591
-37.8014	478.412	26.8787
-37.7988	475.859	26.8982
-37.7973	476.662	26.9177
-37.7963	481.491	26.9373
-37.7933	476.544	26.9568
-37.7916	477.275	26.9763
-37.7894	477.299	26.99585
-37.7888	478.615	27.0154
-37.7869	473.302	27.0349
-37.7857	481.057	27.0544
-37.7836	481.002	27.074
-37.7823	476.044	27.0935
-37.7807	474.898	27.113
-37.7777	481.425	27.1326
-37.7779	474.254	27.1521
-37.7757	479.62	27.1716
-37.7729	483.085	27.1912
-37.773	474.755	27.2107
-37.7702	474.251	27.2302
-37.7684	482.282	27.2498
-37.767	476.278	27.2693
-37.767	475.304	27.2888
-37.7644	480.917	27.30835
-37.7627	478.493	27.3279
-37.7615	473.377	27.3474
-37.7588	481.163	27.3669
-37.7568	479.599	27.3865
-37.7564	474.537	27.406
-37.755	479.804	27.4255
-37.7523	478.004	27.4451
-37.7511	473.85	27.4646
-37.7491	476.955	27.4841
-37.7479	482.6412	27.5037
-37.7466	475.731	27.5232
-37.7451	478.2243	27.5427
-37.7432	477.271	27.5623
-37.7422	477.314	27.5818
-37.7397	474.932	27.6013
-37.7394	481.527	27.62085
-37.7364	477.113	27.6404
-37.73584	474.825	27.6599
-37.7332	477.615	27.6794
-37.73175	481.577	27.699
-37.729	473.783	27.7185
-37.7273	479.895	27.738
-37.72633	481.396	27.7576
-37.72551	475.069	27.7771
-37.7239	476.479	27.7966
-37.722	482.839	27.8162
-37.7199	474.58	27.8357
-37.71883	477.682	27.8552
-37.7173	482.952	27.8748
-37.7161	475.547	27.8943
-37.7139	472.156	27.9138
-37.7127	482.583	27.93335
-37.7106	478.658	27.9529
-37.7087	473.613	27.9724
-37.7075	481.27	27.9919
-37.7061	477.077	28.0115
-37.7035	473.37	28.031
-37.7018	479.394	28.0505
-37.7017	481.503	28.0701
-37.6978	474.393	28.0896
-37.69696	479.716	28.1091
-37.6956	477.655	28.1287
-37.693	475.549	28.1482
-37.693	473.8446	28.1677
-37.6912	481.427	28.1873
-37.6894	476.918	28.2068
-37.6882	476.446	28.2263
-37.6861	476.423	28.24585
-37.6845	477.493	28.2654
-37.684	474.708	28.2849
-37.6811	481.604	28.3044
-37.6804	479.632	28.324
-37.6782	474.996	28.3435
-37.6766	475.863	28.363
-37.6744	482.1152	28.3826
-37.6735	473.245	28.4021
-37.6711	476.971	28.4216
-37.6697	480.718	28.4412
-37.668	474.97	28.4607
-37.6667	472.639	28.4802
-37.6644	482.884	28.4998
-37.6637	473.931	28.5193
-37.6626	474.762	28.5388
-37.6613	481.979	28.55835
-37.659	477.917	28.5779
-37.6565	470.949	28.5974
-37.6544	479.835	28.6169
-37.6529	480.598	28.6365
-37.652	474.085	28.656
-37.65073	478.327	28.6755
-37.6479	478.18	28.6951
-37.6471	474.799	28.7146
-37.6458	477.316	28.7341
-37.64349	480.702	28.7537
-37.6425	474.276	28.7732
-37.6414	476.338	28.7927
-37.6392	478.347	28.8123
-37.6365	475.887	28.8318
-37.63596	473.827	28.8513
-37.63467	479.754	28.87085
-37.6334	478.379	28.8904
-37.6313	476.6842	28.9099
-37.6296	476.695	28.9294
-37.6283	478.84	28.949
-37.6261	472.506	28.9685
-37.6235	479.1116	28.988
-37.6222	480.516	29.0076
-37.6212	472.541	29.0271
-37.61903	472.922	29.0466
-37.6176	481.714	29.0662
-37.6155	474.817	29.0857
-37.6138	476.2778	29.1052
-37.6138	479.542	29.1248
-37.6113	475.529	29.1443
-37.609	472.345	29.1638
-37.6078	480.7605	29.18335
-37.6074	476.936	29.2029
-37.6038	474.078	29.2224
-37.6035	480.4328	29.2419
-37.6022	477.493	29.2615
-37.601	470.238	29.281
-37.5987	477.788	29.3005
-37.5962	479.393	29.3201
-37.5944	473.691	29.3396
-37.5941	476.834	29.3591
-37.592	477.551	29.3787
-37.5901	474.566	29.3982
-37.5873	476.038	29.4177
-37.5868	482.396	29.4373
-37.5848	475.7049	29.4568
-37.5831	475.939	29.4763
-37.5824	476.733	29.49585
-37.5806	480.16	29.5154
-37.5777	472.647	29.5349
-37.5766	478.859	29.5544
-37.5758	477.736	29.574
-37.57428	476.294	29.5935
-37.5718	475.551	29.613
-37.5711	481.02	29.6326
-37.5695	472.304	29.6521
-37.5673	477.785	29.6716
-37.5655	480.458	29.6912
-37.5637	474.002	29.7107
-37.5633	471.91	29.7302
-37.5613	482.198	29.7498
-37.5596	477.269	29.7693
-37.5572	475.788	29.7888
-37.5559	480.458	29.80835
-37.5551	476.1503	29.8279
-37.5528	471.843	29.8474
-37.5508	481.427	29.8669
-37.5498	478.12	29.8865
-37.5477	472.376	29.906
-37.5465	478.693	29.9255
-37.5444	478.283	29.9451
-37.5432	473.091	29.9646
-37.5412	476.421	29.9841
-37.5409	480.859	30.0037
-37.5377	474.688	30.0232
-37.53632	475.1	30.0427
-37.5335	478.18	30.0623
-37.5331	474.897	30.0818
-37.5312	474.24	30.1013
-37.5289	480.832	30.12085
-37.5286	477.529	30.1404
-37.526	474.175	30.1599
-37.5249	474.739	30.1794
-37.5231	480.3075	30.199
-37.5213	474.708	30.2185
-37.5213	477.592	30.238
-37.5186	480.139	30.2576
-37.5166	474.869	30.2771
-37.5149	474.563	30.2966
-37.5144	481.151	30.3162
-37.5122	472.143	30.3357
-37.5101	474.16	30.3552
-37.50845	480.945	30.3748
-37.5062	475.3269	30.3943
-37.5042	470.296	30.4138
-37.5039	479.311	30.43335
-37.5029	476.296	30.4529
-37.501	472.548	30.4724
-37.49894	478.622	30.4919
-37.4973	476.233	30.5115
-37.4961	471.1767	30.531
-37.4942	477.524	30.5505
-37.4933	481.413	30.5701
-37.4902	471.906	30.5896
-37.4892	475.054	30.6091
-37.488	477.0972	30.6287
-37.486	474.824	30.6482
-37.485	475.015	30.6677
-37.48143	480.759	30.6873
[...]
-36.576	476.093	41.5662
-36.575	473.121	41.5759
-36.5745	470.28	41.5857
-36.5734	468.402	41.5955
-36.57375	473.449	41.6052
-36.5723	470.621	41.61499
-36.5714	476.16	41.6248
-36.5706	475.882	41.6345
-36.569	471.2226	41.6443
-36.569	469.876	41.6541
-36.5673	466.513	41.6638
-36.5676	473.3399	41.6736
-36.5672	478.193	41.68335
-36.5655	474.469	41.6931
-36.5647	472.445	41.7029
-36.5645	467.951	41.7126
-36.5635	469.3096	41.7224
-36.5622	469.859	41.7322
-36.5615	475.161	41.7419
-36.5594	476.159	41.7517
-36.56007	473.687	41.7615
-36.5601	470.017	41.77124
-36.5592	465.747	41.781
-36.5578	469.613	41.7908
-36.5564	474.358	41.8005
-36.55592	476.6955	41.8103
-36.5556	473.502	41.8201
-36.5544	469.0849	41.8298
-36.5535	468.769	41.8396
-36.5521	468.888	41.8494
-36.5521	472.842	41.8591
-36.5513	474.3187	41.8689
-36.5501	475.739	41.8787
-36.5501	473.7641	41.8884
-36.54784	465.705	41.8982
-36.5478	469.505	41.908
-36.5465	470.319	41.9177
-36.5455	474.5834	41.92749
-36.5449	474.3208	41.9373
-36.544	470.0766	41.947
-36.5444	471.145	41.9568
-36.5421	471.8598	41.9666
-36.5417	471.2124	41.9763
-36.5401	472.28	41.9861
-36.541	474.229	41.99585
-36.5391	476.714	42.0056
-36.5391	469.943	42.0154
-36.5377	470.369	42.0251
-36.53722	469.098	42.0349
-36.536	472.295	42.0447
-36.5353	474.3811	42.0544
-36.534	473.097	42.0642
-36.5342	470.757	42.074
-36.5324	473.25	42.08374
-36.5319	471.2157	42.0935
-36.5312	469.344	42.1033
-36.5307	470.039	42.113
-36.5293	477.151	42.1228
-36.5288	474.573	42.1326
-36.5269	473.461	42.1423
-36.5279	468.425	42.1521
-36.5259	469.592	42.1619
-36.5269	472.991	42.1716
-36.5249	471.372	42.1814
-36.5242	476.878	42.1912
-36.5229	473.345	42.2009
-36.5225	471.906	42.2107
-36.5227	467.085	42.2205
-36.5214	467.749	42.2302
-36.5198	473.603	42.23999
-36.5182	475.288	42.2498
-36.5183	474.599	42.2595
-36.518	468.887	42.2693
-36.5169	466.856	42.2791
-36.51664	471.0217	42.2888
-36.5146	468.9689	42.2986
-36.5145	477.9248	42.30835
-36.5135	476.084	42.3181
-36.51302	471.562	42.3279
-36.5109	469.911	42.3376
-36.5112	465.907	42.3474
-36.5104	470.382	42.3572
-36.5098	476.187	42.3669
-36.509	474.5401	42.3767
-36.5085	474.539	42.3865
-36.5072	468.355	42.39624
-36.506	470.281	42.406
-36.5048	470.18	42.4158
-36.5042	472.939	42.4255
-36.50338	474.707	42.4353
-36.5029	473.986	42.4451
-36.5025	471.706	42.4548
-36.50153	466.237	42.4646
-36.49995	467.59	42.4744
-36.5006	472.043	42.4841
-36.49844	475.643	42.4939
-36.4991	474.561	42.5037
-36.4981	471.192	42.5134
-36.495	468.845	42.5232
-36.4958	470.614	42.533
-36.4948	470.823	42.5427
-36.4939	472.5459	42.55249
-36.4942	473.975	42.5623
-36.4928	475.478	42.572
-36.49263	466.487	42.5818
-36.49131	469.636	42.5916
-36.4907	468.681	42.6013
-36.4886	474.395	42.6111
-36.4884	474.859	42.62085
-36.4889	469.385	42.6306
-36.4869	473.32	42.6404
-36.4866	470.707	42.6501
-36.4856	469.762	42.6599
-36.4842	470.566	42.6697
-36.48304	470.386	42.6794
-36.4828	475.752	42.6892
-36.4808	471.693	42.699
-36.4808	469.274	42.70874
-36.4805	467.845	42.7185
-36.4784	468.141	42.7283
-36.4782	472.375	42.738
-36.4781	471.321	42.7478
-36.47673	473.305	42.7576
-36.476	472.395	42.7673
-36.4751	468.093	42.7771
-36.4742	468.449	42.7869
-36.474	467.5217	42.7966
-36.472	474.71	42.8064
-36.4723	477.135	42.8162
-36.472	473.361	42.8259
-36.4714	471.222	42.8357
-36.46941	468.088	42.8455
-36.4687	470.0054	42.8552
-36.4679	471.902	42.86499
-36.4667	474.513	42.8748
-36.4667	473.547	42.8845
-36.4645	472.83	42.8943
-36.4646	467.5249	42.9041
-36.4644	466.478	42.9138
-36.4641	471.609	42.9236
-36.4626	477.14	42.93335
-36.4618	476.855	42.9431
-36.4605	472.635	42.9529
-36.46	468.495	42.9626
-36.4574	469.79	42.9724
-36.4579	467.397	42.9822
-36.457	474.669	42.9919
-36.4564	473.225	43.0017
-36.45586	473.839	43.0115
-36.4555	470.6347	43.02124
-36.4547	463.209	43.031
-36.4548	469.7514	43.0408
-36.4533	473.998	43.0505
-36.4523	475.778	43.0603
-36.4506	473.227	43.0701
-36.4503	466.118	43.0798
-36.4499	468.178	43.0896
-36.4481	468.702	43.0994
-36.4485	469.742	43.1091
-36.447	473.544	43.1189
-36.447	474.693	43.1287
-36.4446	473.369	43.1384
-36.4438	467.185	43.1482
-36.4444	467.9183	43.158
-36.4421	471.333	43.1677
-36.442	473.646	43.17749
-36.4419	474.5607	43.1873
-36.4405	469.876	43.197
-36.4397	469.196	43.2068
-36.4373	469.2442	43.2166
-36.4373	469.684	43.2263
-36.4366	470.006	43.2361
-36.43581	473.366	43.24585
-36.4352	475.053	43.2556
-36.4347	470.448	43.2654
-36.43417	469.283	43.2751
-36.4331	467.995	43.2849
-36.4318	472.735	43.2947
-36.4318	472.832	43.3044
-36.43095	472.584	43.3142
-36.42955	472.349	43.324
-36.4292	468.628	43.33374
-36.4277	469.794	43.3435
-36.4276	468.885	43.3533
-36.4276	469.178	43.363
-36.4254	474.619	43.3728
-36.4251	473.0611	43.3826
-36.4235	472.529	43.3923
-36.42337	467.257	43.4021
-36.4226	467.74	43.4119
-36.422	472.88	43.4216
-36.42	470.066	43.4314
-36.4199	474.798	43.4412
-36.4195	473.966	43.4509
-36.4181	469.499	43.4607
-36.418	468.216	43.4705
-36.4176	465.713	43.4802
-36.41568	472.227	43.48999
-36.4156	475.903	43.4998
-36.4144	472.742	43.5095
-36.4145	469.291	43.5193
-36.4122	466.05	43.5291
-36.4124	470.038	43.5388
-36.4111	471.5405	43.5486
-36.4106	474.282	43.55835
-36.4096	476.0802	43.5681
-36.4079	472.326	43.5779
-36.4084	468.55	43.5876
-36.4069	464.966	43.5974
-36.40538	468.681	43.6072
-36.4061	475.314	43.6169
-36.4048	475.938	43.6267
-36.403	473.774	43.6365
-36.4015	468.416	43.64624
-36.403	468.252	43.656
-36.4005	467.571	43.6658
-36.3996	474.2489	43.6755
-36.3999	472.616	43.6853
-36.3993	475.185	43.6951
-36.3972	472.068	43.7048
-36.39716	464.287	43.7146
-36.3967	468.711	43.7244
-36.3959	472.4415	43.7341
-36.3943	476.359	43.7439
-36.393	475.0907	43.7537
-36.3923	467.43	43.7634
-36.3921	470.458	43.7732
-36.3919	468.569	43.783
-36.391	471.053	43.7927
-36.3902	473.807	43.80249
-36.3896	473.679	43.8123
-36.3883	474.675	43.822
-36.3879	468.461	43.8318
-36.38575	468.188	43.8416
-36.3866	469.207	43.8513
-36.38488	471.344	43.8611
-36.384	474.686	43.87085
-36.3839	471.585	43.8806
-36.3827	470.917	43.8904
-36.38076	469.973	43.9001
-36.38203	470.0047	43.9099
-36.3799	468.709	43.9197
-36.3792	472.385	43.9294
-36.3777	474.423	43.9392
-36.3779	472.248	43.949
-36.3773	469.969	43.95874
-36.376	467.621	43.9685
-36.3762	471.757	43.9783
-36.3741	470.8996	43.988
-36.3724	472.594	43.9978
-36.372	472.892	44.0076
-36.3728	471.945	44.0173
-36.3705	471.1546	44.0271
-36.3696	466.786	44.0369
-36.3709	470.272	44.0466
-36.3685	475.162	44.0564
-36.3674	474.474	44.0662
-36.3668	473.602	44.0759
-36.3654	467.494	44.0857
-36.3651	467.259	44.0955
-36.3658	471.77	44.1052
-36.3632	468.394	44.11499
-36.3636	476.4	44.1248
-36.3622	474.996	44.1345
-36.36105	470.978	44.1443
-36.36079	469.623	44.1541
-36.3595	465.765	44.1638
-36.3599	471.132	44.1736
-36.3587	476.263	44.18335
-36.356	474.098	44.1931
-36.3557	470.524	44.2029
-36.3557	466.4726	44.2126
-36.3541	467.595	44.2224
-36.3542	468.399	44.2322
-36.35305	472.498	44.2419
-36.3522	474.058	44.2517
-36.3518	474.678	44.2615
-36.3514	468.95	44.27124
-36.3512	463.094	44.281
-36.3482	468.585	44.2908
-36.3484	475.491	44.3005
-36.3479	476.499	44.3103
-36.3468	473.4248	44.3201
-36.3466	469.152	44.3298
-36.3467	467.721	44.3396
-36.3443	467.158	44.3494
-36.3436	470.8205	44.3591
-36.3434	473.196	44.3689
-36.341	474.5	44.3787
-36.342	471.732	44.3884
-36.3407	466.126	44.3982
-36.3397	468.451	44.408
-36.3396	469.298	44.4177
-36.3378	474.862	44.42749
-36.3371	473.1622	44.4373
-36.3358	470.084	44.447
-36.3356	470.033	44.4568
-36.3343	468.144	44.4666
-36.3343	469.556	44.4763
-36.3332	470.678	44.4861
-36.3322	472.103	44.49585
-36.3303	474.713	44.5056
-36.3314	467.411	44.5154
-36.3304	467.566	44.5251
-36.3278	467.002	44.5349
-36.3286	468.803	44.5447
-36.3268	473.339	44.5544
-36.3256	470.011	44.5642
-36.3261	471.05	44.574
-36.3243	470.459	44.58374
-36.3236	469.45	44.5935
-36.3231	469.7392	44.6033
-36.3233	468.858	44.613
-36.3223	475.638	44.6228
-36.32103	473.81	44.6326
-36.3202	469.0589	44.6423
-36.3188	467.111	44.6521
-36.3192	467.624	44.6619
-36.3175	470.364	44.6716
-36.3168	471.2522	44.6814
-36.3159	474.13	44.6912
-36.3146	473.731	44.7009
-36.3144	469.642	44.7107
-36.31427	465.9494	44.7205
-36.3132	466.994	44.7302
-36.3118	472.293	44.73999
-36.3108	475.407	44.7498
-36.3099	471.727	44.7595
-36.3102	468.8472	44.7693
-36.3091	465.335	44.7791
-36.3084	468.837	44.7888
-36.3073	467.916	44.7986
-36.3058	476.612	44.80835
-36.30442	473.086	44.8181
-36.3045	471.285	44.8279
-36.3023	468.549	44.8376
-36.303	464.435	44.8474
-36.3018	469.678	44.8572
-36.3012	473.392	44.8669
-36.3003	474.512	44.8767
-36.3001	472.462	44.8865
-36.2989	465.51	44.89624
-36.299	468.292	44.906
-36.2963	468.4425	44.9158
-36.2963	471.9899	44.9255
-36.29594	474.081	44.9353
-36.29496	472.616	44.9451
-36.2946	471.419	44.9548
-36.2942	462.831	44.9646
-36.293	466.095	44.9744
-36.2915	472.291	44.9841
-36.2904	473.516	44.9939
-36.2897	472.364	45.0037
-36.2879	470.485	45.0134
-36.2882	467.3381	45.0232
-36.2868	468.49	45.033
-36.287	468.723	45.0427
-36.286	472.052	45.05249
-36.2848	474.0477	45.0623
-36.2838	472.171	45.072
-36.2826	467.765	45.0818
-36.2829	466.811	45.0916
-36.28299	467.0788	45.1013
-36.2805	472.136	45.1111
-36.2803	472.663	45.12085
-36.2803	469.9061	45.1306
-36.2773	468.233	45.1404
-36.2778	470.485	45.1501
-36.2763	468.49	45.1599
-36.2761	468.201	45.1697
-36.27557	470.354	45.1794
-36.2747	474.991	45.1892
-36.2746	467.908	45.199
-36.2725	469.286	45.20874
-36.2726	466.103	45.2185
-36.2709	467.684	45.2283
-36.2704	472.0394	45.238
-36.2698	469.899	45.2478
-36.2687	473.547	45.2576
-36.2687	470.658	45.2673
-36.2668	468.342	45.2771
-36.2657	465.919	45.2869
-36.2637	464.628	45.2966
-36.2635	473.016	45.3064
-36.2633	473.798	45.3162
-36.263	470.499	45.3259
-36.2619	467.845	45.3357
-36.2609	464.772	45.3455
-36.2611	469.75	45.3552
-36.2593	468.945	45.36499
-36.2585	473.798	45.3748
-36.2576	473.388	45.3845
-36.2574	468.041	45.3943
-36.2568	465.0914	45.4041
-36.2553	463.951	45.4138
-36.2554	468.91	45.4236
-36.2534	473.935	45.43335
-36.25312	474.794	45.4431
-36.2521	468.545	45.4529
-36.2515	465.519	45.4626
-36.2503	466.394	45.4724
-36.2503	469.044	45.4822
-36.24852	472.895	45.4919
-36.2486	471.227	45.5017
-36.24789	471.346	45.5115
-36.2461	467.913	45.52124
-36.2465	462.03	45.531
-36.2452	467.2446	45.5408
-36.2442	470.703	45.5505
-36.2433	475.199	45.5603
-36.2418	470.842	45.5701
-36.2418	465.501	45.5798
-36.2408	467.791	45.5896
-36.2407	464.944	45.5994
-36.2402	470.154	45.6091
-36.2378	471.698	45.6189
-36.2375	471.2027	45.6287
-36.2377	471.499	45.6384
-36.2355	464.212	45.6482
-36.2362	467.251	45.658
-36.2354	469.065	45.6677
-36.2326	472.569	45.67749
-36.2324	473.571	45.6873
-36.2333	468.198	45.697
-36.2311	468.719	45.7068
-36.23056	468.035	45.7166
-36.2278	466.141	45.7263
-36.22995	470.711	45.7361
-36.2284	471.091	45.74585
-36.2259	473.307	45.7556
-36.2264	468.327	45.7654
-36.226	467.415	45.7751
-36.2243	466.973	45.7849
-36.2229	469.78	45.7947
-36.2237	471.574	45.8044
-36.2224	469.658	45.8142
-36.2227	471.816	45.824
-36.2201	468.393	45.83374
-36.2198	466.512	45.8435
-36.2192	465.599	45.8533
-36.2186	466.3508	45.863
-36.21719	473.3913	45.8728
-36.2174	471.794	45.8826
-36.2163	470.741	45.8923
-36.215	465.376	45.9021
-36.21381	468.279	45.9119
-36.21233	470.238	45.9216
-36.2119	469.103	45.9314
-36.2117	474.189	45.9412
-36.2108	471.282	45.9509
-36.2102	469.523	45.9607
-36.2098	466.702	45.9705
-36.2084	462.668	45.9802
-36.2066	471.269	45.98999
-36.2074	473.714	45.9998
-36.2057	472.836	46.0095
-36.2049	468.8042	46.0193
-36.2046	464.5325	46.0291
-36.2021	467.508	46.0388
-36.2027	467.9306	46.0486
-36.2014	471.67	46.05835
-36.2	472.8338	46.0681
-36.19986	470.264	46.0779
-36.1986	468.63	46.0876
-36.1984	462.9509	46.0974
-36.1968	467.189	46.1072
-36.1963	472.672	46.1169
-36.196	473.0033	46.1267
-36.1956	470.261	46.1365
-36.1942	465.656	46.14624
-36.1926	465.483	46.156
-36.19199	467.276	46.1658
-36.1922	470.1575	46.1755
-36.191	472.334	46.1853
-36.1899	472.094	46.1951
-36.1908	469.544	46.2048
-36.18829	464.26	46.2146
-36.1881	466.444	46.2244
-36.1876	469.585	46.2341
-36.1844	474.861	46.2439
-36.1852	471.689	46.2537
-36.184	467.028	46.2634
-36.1827	467.94	46.2732
-36.1828	466.024	46.283
-36.1821	467.997	46.2927
-36.1816	470.118	46.30249
-36.1792	471.028	46.3123
-36.1801	472.398	46.322
-36.1797	464.175	46.3318
-36.1778	466.745	46.3416
-36.1772	466.071	46.3513
-36.176	469.86	46.3611
-36.1768	472.33	46.37085
-36.1768	466.577	46.3806
-36.1741	469.132	46.3904
-36.1731	467.39	46.4001
-36.1728	464.979	46.4099
-36.1723	467.923	46.4197
-36.17123	468.051	46.4294
-36.1697	473.628	46.4392
-36.1692	467.659	46.449
-36.1679	465.4017	46.45874
-36.1675	465.963	46.4685
-36.1667	467.967	46.4783
-36.1656	471.118	46.488
-36.16552	470.409	46.4978
-36.1643	468.78	46.5076
-36.1639	469.937	46.5173
-36.1625	466.768	46.5271
-36.1611	464.163	46.5369
-36.1609	467.1329	46.5466
-36.1596	471.184	46.5564
-36.159	472.677	46.5662
-36.1584	468.832	46.5759
-36.1573	465.0593	46.5857
-36.1567	465.083	46.5955
-36.1561	467.253	46.6052
-36.1556	468.083	46.61499
-36.1547	472.471	46.6248
-36.1533	469.94	46.6345
-36.1521	468.166	46.6443
-36.1519	463.085	46.6541
-36.1528	461.381	46.6638
-36.1502	467.347	46.6736
-36.15	473.754	46.68335
-36.1491	473.55	46.6931
-36.148	468.14	46.7029
-36.1471	463.05	46.7126
-36.147	466.158	46.7224
-36.1461	464.969	46.7322
-36.1451	471.0444	46.7419
-36.1439	471.677	46.7517
-36.1435	468.613	46.7615
-36.1422	469.101	46.77124
-36.1415	461.301	46.781
-36.1408	466.443	46.7908
-36.1395	471.72	46.8005
-36.14	472.3588	46.8103
-36.13937	470.536	46.8201
-36.1388	465.608	46.8298
-36.1382	463.18	46.8396
-36.135	465.86	46.8494
-36.1352	467.234	46.8591
-36.13406	470.532	46.8689
-36.1338	470.837	46.8787
-36.13242	469.9169	46.8884
-36.1321	463.027	46.8982
-36.1307	464.544	46.908
-36.1296	468.489	46.9177
-36.1291	470.267	46.92749
-36.12812	470.129	46.9373
-36.1269	466.406	46.947
-36.127	465.161	46.9568
-36.1266	463.77	46.9666
-36.1252	466.473	46.9763
-36.12381	466.892	46.9861
-36.1241	469.177	46.99585
-36.1225	471.802	47.0056
-36.1215	466.452	47.0154
-36.12109	466.082	47.0251
-36.1213	464.624	47.0349
-36.1203	467.921	47.0447
-36.1181	470.3588	47.0544
-36.1178	466.544	47.0642
-36.117	469.179	47.074
-36.1173	466.335	47.08374
-36.1162	463.071	47.0935
-36.1147	465.853	47.1033
-36.113	465.278	47.113
-36.1132	471.17	47.1228
-36.11237	470.627	47.1326
-36.1119	466.34	47.1423
-36.1113	464.917	47.1521
-36.1099	462.793	47.1619
-36.109	468.551	47.1716
-36.1083	467.22	47.1814
-36.1078	469.274	47.1912
-36.1069	470.587	47.2009
-36.1063	466.018	47.2107
-36.1055	464.119	47.2205
-36.1045	462.651	47.2302
-36.1038	468.76	47.23999
-36.1028	472.078	47.2498
-36.1022	468.279	47.2595
-36.1006	465.429	47.2693
-36.1006	463.214	47.2791
-36.1016	464.291	47.2888
-36.0992	465.635	47.2986
-36.09811	472.31	47.30835
-36.0973	470.138	47.3181
-36.09594	467.1	47.3279
-36.0952	463.618	47.3376
-36.0932	460.959	47.3474
-36.0935	465.867	47.3572
-36.0932	469.4256	47.3669
-36.0925	471.348	47.3767
-36.091	468.2442	47.3865
-36.0904	462.379	47.39624
-36.0887	464.3739	47.406
-36.089	463.977	47.4158
-36.0868	468.803	47.4255
-36.0865	469.562	47.4353
-36.0857	467.1376	47.4451
-36.08482	467.446	47.4548
-36.0849	459.848	47.4646
-36.0842	462.0816	47.4744
-36.0832	467.725	47.4841
-36.0823	468.838	47.4939
-36.081	469.877	47.5037
-36.08036	462.411	47.5134
-36.0801	462.561	47.5232
-36.0779	465.132	47.533
-36.0774	465.3584	47.5427
-36.0768	467.447	47.55249
-36.0771	467.873	47.5623
-36.0748	469.085	47.572
-36.0746	462.923	47.5818
-36.0739	462.077	47.5916
-36.0731	462.719	47.6013
-36.0729	467.574	47.6111
-36.0713	468.683	47.62085
-36.0714	465.886	47.6306
-36.07	464.11	47.6404
-36.069	463.823	47.6501
-36.0691	464.706	47.6599
-36.0673	462.268	47.6697
-36.0677	465.171	47.6794
-36.06665	469.214	47.6892
-36.0665	464.592	47.699
-36.0632	464.984	47.70874
-36.0632	461.637	47.7185
-36.0626	464.663	47.7283
-36.0614	466.935	47.738
-36.0613	465.532	47.7478
-36.0599	467.578	47.7576
-36.0599	466.127	47.7673
-36.0592	463.463	47.7771
-36.0575	461.922	47.7869
-36.0568	461.451	47.7966
-36.05555	467.974	47.8064
-36.0556	468.26	47.8162
-36.0543	464.193	47.8259
-36.0538	461.358	47.8357
-36.0521	459.361	47.8455
-36.05294	465.76	47.8552
-36.0507	463.013	47.86499
-36.0504	466	47.8748
-36.0497	467.605	47.8845
-36.0481	463.488	47.8943
-36.048	460.4371	47.9041
-36.0466	459.004	47.9138
-36.0473	462.615	47.9236
-36.04517	467.789	47.93335
-36.0442	466.78	47.9431
-36.0444	463.3689	47.9529
-36.0433	459.13	47.9626
-36.0423	459.966	47.9724
-36.0413	461.213	47.9822
-36.0403	465.737	47.9919
-36.04031	463.8877	48.0017
-36.0394	464.502	48.0115
-36.0379	460.136	48.02124
-36.0378	456.171	48.031
-36.03759	458.583	48.0408
-36.0356	462.615	48.0505
-36.0357	464.544	48.0603
-36.0354	462.076	48.0701
-36.0324	455.4722	48.0798
-36.0331	455.139	48.0896
-36.03159	454.419	48.0994
-36.0301	457.404	48.1091
-36.0307	457.328	48.1189
-36.0299	455.863	48.1287
-36.029	454.896	48.1384
-36.027	442.843	48.1482
-36.02454	-82.3923	48.158
-36.0235	-62.6601	48.1677
-36.0226	-43.1947	48.17749
-36.0222	-25.1188	48.1873
-36.0223	-45.1463	48.197
-36.0214	-46.9601	48.2068
-36.02	-44.4482	48.2166
-36.02092	-42.48774	48.2263
-36.0201	-40.4932	48.2361
-36.01836	-41.3988	48.24585
-36.0188	-38.53	48.2556
-36.017	-42.0398	48.2654
-36.0167	-44.9819	48.2751
-36.0145	-45.0002	48.2849
-36.0145	-43.7084	48.2947
-36.0136	-38.8296	48.3044
-36.0139	-41.0404	48.3142
-36.0125	-40.8636	48.324
-36.01162	-40.5431	48.33374
-36.0112	-44.1101	48.3435
-36.0097	-44.6497	48.3533
-36.0094	-43.22612	48.363
-36.00861	-38.7655	48.3728
-36.0074	-38.7807	48.3826
-36.0073	-42.3925	48.3923
-36.00515	-45.9126	48.4021
-36.0048	-44.457	48.4119
-36.0034	-41.1995	48.4216
-36.0043	-40.0876	48.4314
-36.0021	-36.59034	48.4412
-36.0025	-41.588	48.4509
-36.0007	-42.3372	48.4607
-36.0001	-45.136	48.4705
-36	-48.5975	48.4802
-35.9989	-40.155	48.48999
-35.9994	-37.4417	48.4998
-35.9969	-37.8663	48.5095
-35.9959	-43.0896	48.5193
-35.9955	-46.1753	48.5291
-35.9955	-42.3416	48.5388
-35.9949	-43.8704	48.5486
-35.99332	-38.6192	48.55835
-35.9926	-37.0828	48.5681
-35.9924	-41.8278	48.5779
-35.9911	-42.707	48.5876
-35.9912	-49.50425	48.5974
-35.9886	-43.3144	48.6072
-35.9881	-37.7114	48.6169
-35.9869	-37.9569	48.6267
-35.9877	-40.0885	48.6365
-35.98539	-44.68327	48.64624
-35.9854	-43.2947	48.656
-35.9846	-43.8755	48.6658
-35.9843	-41.2054	48.6755
-35.9821	-38.4317	48.6853
-35.9829	-39.05637	48.6951
-35.9802	-40.6251	48.7048
-35.9804	-46.36692	48.7146
-35.9796	-45.344	48.7244
-35.9778	-40.3102	48.7341
-35.9784	-37.2774	48.7439
-35.9775	-39.6838	48.7537
-35.9761	-43.7378	48.7634
-35.9747	-44.33252	48.7732
-35.975	-44.0113	48.783
-35.9743	-41.2901	48.7927
-35.9725	-42.2886	48.80249
-35.97332	-40.1005	48.8123
-35.97097	-37.9296	48.822
-35.9698	-44.61478	48.8318
-35.96907	-45.2563	48.8416
-35.9687	-44.0512	48.8513
-35.9682	-40.367	48.8611
-35.967	-38.1098	48.87085
-35.9663	-43.3457	48.8806
-35.9668	-42.7175	48.8904
-35.96497	-43.477	48.9001
-35.9643	-43.7963	48.9099
-35.9628	-43.0644	48.9197
-35.96151	-42.8643	48.9294
-35.96109	-37.0025	48.9392
-35.9616	-40.8703	48.949
-35.9604	-43.0391	48.95874
-35.9595	-45.4847	48.9685
-35.9579	-44.32798	48.9783
-35.9583	-39.54232	48.988
-35.9567	-41.609	48.9978
-35.9556	-40.1428	49.0076
-35.9553	-40.3126	49.0173
-35.9542	-44.3542	49.0271
-35.9537	-45.101	49.0369
-35.9528	-44.518	49.0466
-35.9515	-38.9259	49.0564
-35.9516	-38.3823	49.0662
-35.9508	-40.8621	49.0759
-35.9493	-44.2841	49.0857
-35.9482	-46.83252	49.0955
-35.9469	-43.6675	49.1052
-35.9473	-42.8319	49.11499
-35.9455	-37.5574	49.1248
-35.9452	-40.787	49.1345
-35.944	-41.9204	49.1443
-35.944	-46.4452	49.1541
-35.9413	-47.5756	49.1638
-35.9417	-42.3417	49.1736
-35.9408	-37.4838	49.18335
-35.9398	-37.0941	49.1931
-35.94	-42.9075	49.2029
-35.9389	-46.22123	49.2126
-35.93829	-42.4532	49.2224
-35.9375	-44.3406	49.2322
-35.9367	-38.4714	49.2419
-35.9362	-39.5757	49.2517
-35.9338	-39.5559	49.2615
-35.9347	-41.3489	49.27124
-35.93367	-47.621	49.281
-35.9324	-43.8624	49.2908
-35.9313	-39.6355	49.3005
-35.931	-38.3208	49.3103