File: data/processed_data_files/tensile/0.254_hd_dimension_typei_4545_r(1).dat
MTS793|BTW|ENU|1|2|.|/|:|1|0|0|A

Data Header:			0.254_hd_dimension_typei_4545_r0			Time:	20.0271	s	4/15/2019 3:07:19 PM
Data Acquisition:	Timed
Station Name:	ft40.cfg
Test File Name:	monotonic_0.2540_typei_hd_4545_dimension.tst
Displacement	Force	Running Time
mm	N	s
9.98148	-117.271	0.0305176
9.98197	-129.0471	0.0500488
9.98233	-121.462	0.0695801
9.98134	-117.864	0.0891113
9.9829	-122.44	0.108643
9.98382	-122.435	0.128174
9.98532	-115.667	0.147705
9.98767	-120.049	0.167236
9.98968	-119.742	0.186768
9.99138	-113.568	0.206299
9.99181	-114.197	0.22583
9.994297	-117.435	0.245361
9.9959	-113.676	0.264893
9.99718	-109.153	0.284424
9.99916	-116.148	0.303955
10.0011	-112.158	0.323486
10.00336	-104.855	0.343018
10.0041	-108.507	0.362549
10.0054	-113.903	0.38208
10.0067	-101.942	0.401611
10.0087	-107.085	0.421143
10.01152	-108.3789	0.440674
10.0115	-99.8368	0.460205
10.0138	-100.881	0.479736
10.0151	-110.963	0.499268
10.0161	-96.7966	0.518799
10.0187	-99.0327	0.53833
10.021	-102.932	0.557861
10.021	-98.3014	0.577393
10.0235	-91.6296	0.596924
10.0241	-102.977	0.616455
10.0272	-95.3168	0.635986
10.0285	-92.0113	0.655518
10.031	-96.2894	0.675049
10.0313	-95.3529	0.69458
10.0323	-85.84343	0.714111
10.035	-94.9599	0.733643
10.0356	-92.68956	0.753174
10.0374	-86.6675	0.772705
10.0394	-86.6577	0.792236
10.0411	-91.3186	0.811768
10.0431	-85.2205	0.831299
10.0443	-84.5103	0.85083
10.046	-87.2013	0.870361
10.048	-82.2506	0.889893
10.0485	-78.7159	0.909424
10.051	-84.0298	0.928955
10.0524	-83.5357	0.948486
10.0541	-74.127	0.968018
10.0571	-80.367	0.987549
10.0568	-80.5766	1.00708
10.0594	-72.8257	1.02661
10.0604	-75.6847	1.04614
10.0631	-79.6825	1.06567
10.0632	-71.2225	1.08521
10.0655	-74.0991	1.10474
10.068	-75.9361	1.12427
10.06828	-66.9186	1.1438
10.0699	-65.1843	1.16333
10.0724	-78.1966	1.18286
10.0742	-67.2502	1.20239
10.0749	-62.8915	1.22192
10.0775	-69.1952	1.24146
10.0786	-65.7525	1.26099
10.0807	-59.0641	1.28052
10.0814	-69.8353	1.30005
10.0833	-64.0994	1.31958
10.0847	-57.3359	1.33911
10.0873	-60.9069	1.35864
10.088	-65.0332	1.37817
10.09077	-53.3313	1.39771
10.0912	-58.1428	1.41724
10.0943	-60.78373	1.43677
10.0954	-54.7946	1.4563
10.0959	-50.33968	1.47583
10.0978	-56.66048	1.49536
10.0998	-53.383	1.51489
10.1013	-51.4715	1.53442
10.1044	-55.1721	1.55396
10.1051	-50.6164	1.57349
10.1078	-44.3769	1.59302
10.108	-49.7087	1.61255
10.1092	-53.7846	1.63208
10.1104	-44.0637	1.65161
10.11363	-45.1127	1.67114
10.1146	-48.3956	1.69067
10.116	-41.2621	1.71021
10.1177	-41.0784	1.72974
10.1194	-47.6982	1.74927
10.1212	-35.4876	1.7688
10.1237	-35.34956	1.78833
10.1242	-41.8274	1.80786
10.1257	-38.2748	1.82739
10.1262	-31.2013	1.84692
10.13	-41.6009	1.86646
10.1299	-37.1528	1.88599
10.1324	-32.5835	1.90552
10.1352	-35.7058	1.92505
10.1355	-33.5673	1.94458
10.1378	-24.7948	1.96411
10.1392	-33.6664	1.98364
10.1416	-33.2248	2.00317
10.1428	-23.7474	2.02271
10.1433	-26.4543	2.04224
10.1458	-30.4948	2.06177
10.1469	-23.0198	2.0813
10.1485	-23.3571	2.10083
10.1503	-26.9402	2.12036
10.1516	-24.0097	2.13989
10.1534	-17.3613	2.15942
10.1548	-23.3645	2.17896
10.15711	-20.5923	2.19849
10.15876	-17.5821	2.21802
10.1609	-20.826	2.23755
10.1616	-20.7153	2.25708
10.1638	-11.3533	2.27661
10.1656	-14.8543	2.29614
10.167	-20.7937	2.31567
10.1688	-12.152	2.33521
10.1688	-12.1898	2.35474
10.1708	-15.536	2.37427
10.1723	-8.38305	2.3938
10.1745	-5.60844	2.41333
10.1774	-16.011	2.43286
10.1779	-8.215107	2.45239
10.17966	-2.638206	2.47192
10.18113	-10.0123	2.49146
10.18334	-7.814815	2.51099
10.184	2.83523	2.53052
10.1853	-5.56852	2.55005
10.1877	-3.19491	2.56958
10.1894	1.9851	2.58911
10.1919	-0.5399965	2.60864
10.1934	-1.73888	2.62817
10.1938	8.06746	2.64771
10.1966	0.80929	2.66724
10.1984	-0.23678	2.68677
10.199	5.63484	2.7063
10.201	10.0452	2.72583
10.20287	2.52105	2.74536
10.2043	7.243187	2.76489
10.2052	10.7883	2.78442
10.2077	7.36017	2.80396
10.2087	8.79281	2.82349
10.2106	16.0246	2.84302
10.2129	9.24892	2.86255
10.2139	11.4916	2.88208
10.2145	17.7437	2.90161
10.2165	17.1949	2.92114
10.2194	10.02532	2.94067
10.22022	20.0233	2.96021
10.2222	20.2919	2.97974
10.2231	14.47719	2.99927
10.225	21.3747	3.0188
10.2265	23.0678	3.03833
10.22884	18.9843	3.05786
10.2299	23.2786	3.07739
10.2321	30.3255	3.09692
10.2322	18.39344	3.11646
10.2356	23.7401	3.13599
10.2362	32.342	3.15552
10.2384	26.4811	3.17505
10.2392	24.9753	3.19458
10.2408	36.6623	3.21411
10.24213	28.041	3.23364
10.24579	30.2498	3.25317
10.2466	34.8615	3.27271
10.2489	35.176	3.29224
10.2491	28.5316	3.31177
10.252	40.4813	3.3313
10.2525	37.3511	3.35083
10.2547	33.84993	3.37036
10.2555	38.43232	3.38989
10.25714	44.6384	3.40942
10.2596	37.5657	3.42896
10.2615	39.7116	3.44849
10.26356	43.3298	3.46802
10.2639	42.2452	3.48755
10.2659	42.929	3.50708
10.2678	50.8871	3.52661
10.2689	46.2574	3.54614
10.271	41.80444	3.56567
10.2726	49.87674	3.58521
10.2738	53.0641	3.60474
10.2752	42.8343	3.62427
10.2769	51.8784	3.6438
10.2788	55.638	3.66333
10.28	48.34874	3.68286
10.2822	52.1428	3.70239
10.2837	59.0734	3.72192
10.2862	51.555	3.74146
10.28647	54.8715	3.76099
10.2884	63.4639	3.78052
10.2901	54.9035	3.80005
10.2916	55.7394	3.81958
10.29328	65.7011	3.83911
10.2949	61.2984	3.85864
10.2971	58.4163	3.87817
10.2982	68.7491	3.89771
10.2994	62.6523	3.91724
10.3016	61.743	3.93677
10.3038	67.9303	3.9563
10.3048	70.9258	3.97583
10.3066	61.2885	3.99536
10.3083	69.3071	4.01489
10.3107	72.6676	4.03442
10.311	69.0541	4.05396
10.3134	68.8705	4.07349
10.3143	78.7917	4.09302
10.3163	71.5861	4.11255
10.3176	72.7838	4.13208
10.3208	76.1252	4.15161
10.32146	76.6385	4.17114
10.3234	72.5868	4.19067
10.3243	84.7431	4.21021
10.3265	80.5521	4.22974
10.3274	76.766	4.24927
10.3289	79.711	4.2688
10.33147	88.9153	4.28833
10.3328	78.9372	4.30786
10.33392	83.5758	4.32739
10.336	89.0367	4.34692
10.33757	81.4052	4.36646
10.3397	82.5207	4.38599
10.3401	94.1178	4.40552
10.3426	85.80838	4.42505
10.3442	85.6111	4.44458
10.3461	97.2804	4.46411
10.3478	90.4438	4.48364
10.3487	85.7873	4.50317
10.3503	97.0984	4.52271
10.3523	97.8227	4.54224
10.3549	90.5288	4.56177
10.3555	100.87	4.5813
10.3561	98.4341	4.60083
10.3592	94.4618	4.62036
10.3608	100.225	4.63989
10.3603	105.648	4.65942
10.3643	97.8804	4.67896
10.3644	101.945	4.69849
10.368	104.156	4.71802
10.3676	104.323	4.73755
10.3705	102.527	4.75708
10.3719	110.552	4.77661
10.3741	107.122	4.79614
10.3756	104.308	4.81567
10.3754	109.401	4.83521
10.3781	111.852	4.85474
10.3793	105.299	4.87427
10.3817	115.213	4.8938
10.3841	117.4408	4.91333
10.3845	111.084	4.93286
10.3868	111.708	4.95239
10.388	122.262	4.97192
10.3904	114.045	4.99146
10.3912	117.695	5.01099
10.39218	123.82	5.03052
10.3943	116.245	5.05005
10.3957	116.575	5.06958
10.3974	128.53	5.08911
10.3987	123.337	5.10864
10.402	118.1647	5.12817
10.4024	129.66	5.14771
10.4048	124.538	5.16724
10.4056	120.69	5.18677
10.407	128.208	5.2063
10.4094	130.653	5.22583
10.4105	124.097	5.24536
10.4123	133.173	5.26489
10.41481	132.741	5.28442
10.4162	126.996	5.30396
10.4172	128.894	5.32349
10.41976	139.016	5.34302
10.421	131.659	5.36255
10.4229	133.151	5.38208
10.4238	138.042	5.40161
10.4256	139.487	5.42114
10.4261	134.545	5.44067
10.4288	143.7253	5.46021
10.4306	140.785	5.47974
10.4315	137.2989	5.49927
10.4344	141.284	5.5188
10.4344	147.909	5.53833
10.4373	138.417	5.55786
10.4383	144.355	5.57739
10.4401	152.311	5.59692
10.4416	144.631	5.61646
10.44331	142.99	5.63599
10.4454	154.294	5.65552
10.4457	146.274	5.67505
10.4482	148.68	5.69458
10.4498	158.221	5.71411
10.4515	150.8873	5.73364
10.4532	146.664	5.75317
10.4542	159.0455	5.77271
10.4566	157.848	5.79224
10.4583	151.5986	5.81177
10.4591	160.259	5.8313
10.4619	157.659	5.85083
10.4628	153.637	5.87036
10.4645	160.8423	5.88989
10.4657	164.807	5.90942
10.4675	157.981	5.92896
10.4688	162.453	5.94849
10.4709	167.25	5.96802
10.4721	162.565	5.98755
10.4737	161.512	6.00708
10.4754	170.92	6.02661
10.4775	167.578	6.04614
10.4789	167.923	6.06567
10.4819	170.045	6.08521
10.4821	172.86	6.10474
10.4841	166.767	6.12427
10.4852	176.38	6.1438
10.4874	176.16	6.16333
10.48939	170.38	6.18286
10.4897	173.66	6.20239
10.4914	183.281	6.22192
10.4949	172.732	6.24146
10.4966	177.323	6.26099
10.4969	184.473	6.28052
10.4985	178.913	6.30005
10.5	175.791	6.31958
10.5031	186.788	6.33911
10.5042	181.609	6.35864
10.5047	179.739	6.37817
10.5068	189.194	6.39771
10.5082	186.195	6.41724
10.5102	178.458	6.43677
10.5111	190.42	6.4563
10.5133	192.335	6.47583
10.514	184.126	6.49536
10.5173	190.728	6.51489
10.5178	193.539	6.53442
10.5199	186.659	6.55396
10.5212	192.113	6.57349
10.5226	200.308	6.59302
10.5244	192.1329	6.61255
10.5261	194.768	6.63208
10.5279	199.54	6.65161
10.5288	198.285	6.67114
10.5312	194.729	6.69067
10.5326	202.617	6.71021
10.5336	201.573	6.72974
10.5354	199.306	6.74927
10.5372	201.996	6.7688
10.5398	208.191	6.78833
10.5411	198.528	6.80786
10.5424	207.728	6.82739
10.5445	211.178	6.84692
10.5456	206.217	6.86646
10.54634	204.009	6.88599
10.5488	215.935	6.90552
10.5507	207.825	6.92505
10.5521	209.225	6.94458
10.5544	215.018	6.96411
10.5552	213.015	6.98364
10.557	207.527	7.00317
10.5581	219.933	7.02271
10.5612	216.004	7.04224
10.5606	211.734	7.06177
10.5644	220.087	7.0813
10.5645	223.239	7.10083
10.5667	212.646	7.12036
10.5685	221.192	7.13989
10.5698	224.5457	7.15942
10.5714	218.097	7.17896
10.5728	223.37	7.19849
10.5745	226.224	7.21802
10.5765	220.457	7.23755
10.57822	224.914	7.25708
10.5798	233.1541	7.27661
10.5817	227.651	7.29614
10.5832	225.008	7.31567
10.5844	232.109	7.33521
10.5858	233.766	7.35474
10.589	227.055	7.37427
10.5902	235.1235	7.3938
10.5912	236.7265	7.41333
10.5932	232.453	7.43286
10.5944	234.384	7.45239
10.596	243.592	7.47192
10.5987	230.837	7.49146
10.5994	236.775	7.51099
10.6017	245.381	7.53052
10.6021	241.662	7.55005
10.6043	236.299	7.56958
10.6054	247.065	7.58911
10.6085	241.155	7.60864
10.6093	241.728	7.62817
10.61195	248.211	7.64771
10.6122	248.81	7.66724
10.6151	238.7081	7.68677
10.6159	252.371	7.7063
10.6177	251.498	7.72583
10.6199	244.452	7.74536
10.6205	249.936	7.76489
10.622	254.967	7.78442
10.6247	246.754	7.80396
10.6251	254.076	7.82349
10.6268	259.352	7.84302
10.6286	252.6524	7.86255
10.6314	255.641	7.88208
10.6316	260.23	7.90161
10.6332	255.1057	7.92114
10.6354	254.285	7.94067
10.6373	263.488	7.96021
10.6384	263.542	7.97974
10.6396	258.7326	7.99927
10.6411	262.562	8.0188
10.6426	266.265	8.03833
10.64574	258.785	8.05786
10.647	268.961	8.07739
10.6476	269.4487	8.09692
10.6501	263.899	8.11646
10.65199	264.679	8.13599
10.6524	274.6348	8.15552
10.6547	267.113	8.17505
10.6559	267.169	8.19458
10.6582	276.972	8.21411
10.6593	275.015	8.23364
10.6611	265.185	8.25317
10.663	279.646	8.27271
10.6638	275.458	8.29224
10.6651	272.518	8.31177
10.6677	280.712	8.3313
10.669	281.516	8.35083
10.6712	269.821	8.37036
10.6721	281.022	8.38989
10.6739	285.442	8.40942
10.6757	278.159	8.42896
10.6775	281.017	8.44849
10.6792	288.858	8.46802
10.68	280.541	8.48755
10.6822	284.433	8.50708
10.6846	290.623	8.52661
10.6862	285.079	8.54614
10.6876	283.864	8.56567
10.6887	293.131	8.58521
10.69036	291.067	8.60474
10.6929	286.066	8.62427
10.6946	293.8829	8.6438
10.6953	297.518	8.66333
10.6973	290.971	8.68286
10.6995	292.267	8.70239
10.7003	298.804	8.72192
10.7015	292.272	8.74146
10.7038	297.183	8.76099
10.706	303.495	8.78052
10.707	298.9585	8.80005
10.70841	293.4946	8.81958
10.7095	308.732	8.83911
10.71213	302.412	8.85864
10.7133	302.303	8.87817
10.7156	308.667	8.89771
10.7169	307.956	8.91724
10.7185	299.516	8.93677
10.721	311.5401	8.9563
10.72122	310.825	8.97583
10.7232	304.367	8.99536
10.7246	312.035	9.01489
10.7264	316.763	9.03442
10.7266	304.731	9.05396
10.7304	312.834	9.07349
10.7307	318.795	9.09302
10.7332	312.059	9.11255
10.7339	312.323	9.13208
10.7361	320.229	9.15161
10.7378	313.231	9.17114
10.7395	316.658	9.19067
10.741	324.585	9.21021
10.7423	320.896	9.22974
10.7433	316.367	9.24927
10.7458	324.35	9.2688
10.7481	324.4942	9.28833
10.7486	319.31	9.30786
10.7504	323.805	9.32739
10.752	329.528	9.34692
10.7535	321.671	9.36646
10.7554	325.61	9.38599
10.7575	331.871	9.40552
10.7589	326.979	9.42505
10.7611	328.136	9.44458
10.7617	335.405	9.46411
10.76336	333.093	9.48364
10.7653	323.637	9.50317
10.767	337.939	9.52271
10.7686	335.3493	9.54224
10.7698	332.071	9.56177
10.7719	340.31	9.5813
10.7738	342.534	9.60083
10.7754	331.061	9.62036
10.7761	342.438	9.63989
10.7782	342.879	9.65942
10.7798	337.152	9.67896
10.7811	339.6922	9.69849
10.7822	350.633	9.71802
10.7852	338.15	9.73755
10.7858	342.4895	9.75708
10.7877	350.437	9.77661
10.7892	346.578	9.79614
10.7909	342.478	9.81567
10.7928	352.765	9.83521
10.7938	347.525	9.85474
10.7964	346.179	9.87427
10.7981	352.176	9.8938
10.8	355.687	9.91333
10.8013	346.9292	9.93286
10.8032	351.912	9.95239
10.8039	356.468	9.97192
10.806	352.384	9.99146
10.8069	354.127	10.011
10.8085	360.829	10.0305
10.8103	354.812	10.05
10.8121	353.679	10.06958
10.8148	363.586	10.0891
10.8159	358.315	10.1086
10.8179	357.155	10.1282
10.8179	366.302	10.1477
10.8213	367.967	10.1672
10.8232	356.44	10.1868
10.8238	367.188	10.2063
10.8256	369.093	10.22583
10.8268	362.599	10.2454
10.8289	368.8674	10.2649
10.8301	373.937	10.2844
10.8327	360.504	10.304
10.8339	371.195	10.3235
10.8351	377.155	10.343
10.8369	370.572	10.3625
10.8384	368.268	10.38208
10.84006	380.447	10.4016
10.8423	371.0051	10.4211
10.8432	373.132	10.4407
10.846	378.95	10.4602
10.8458	378.968	10.4797
10.848	374.1337	10.4993
10.8506	382.871	10.5188
10.853	380.863	10.53833
10.854	376.8082	10.5579
10.8555	381.537	10.5774
10.8564	389.352	10.5969
10.8583	381.708	10.6165
10.8598	381.969	10.636
10.8611	389.792	10.6555
10.8636	385.777	10.675
10.8652	384.497	10.69458
10.8656	393.093	10.7141
10.8685	388.599	10.7336
10.86945	383.591	10.7532
10.87154	394.226	10.7727
10.8726	394.116	10.7922
10.8741	387.202	10.8118
10.8766	396.673	10.8313
10.8777	400.418	10.85083
10.8789	386.918	10.8704
10.8821	396.998	10.8899
10.8823	400.9	10.9094
10.8847	394.735	10.929
10.8864	397.733	10.9485
10.8881	409.463	10.968
10.8882	394.932	10.9875
10.8906	399.714	11.00708
10.8921	407.255	11.0266
10.8934	404.755	11.0461
10.8964	400.09	11.0657
10.8979	410.443	11.0852
10.8989	404.493	11.1047
10.9001	401.999	11.1243
10.9018	408.7529	11.1438
10.9032	412.321	11.16333
10.9058	404.049	11.1829
10.906	412.743	11.2024
10.9095	415.006	11.2219
10.9107	408.15	11.2415
10.9124	409.841	11.261
10.9118	420.383	11.2805
10.9155	414.199	11.3
10.9174	412.116	11.31958
10.9187	419.128	11.3391
10.9203	417.565	11.3586
10.9216	412.854	11.3782
10.9229	424.217	11.3977
10.9246	422.136	11.4172
10.9268	413.443	11.4368
10.9284	423.262	11.4563
10.9299	426.836	11.47583
10.9319	418.321	11.4954
10.9329	423.771	11.5149
10.9342	432.346	11.5344
10.9363	421	11.554
10.93751	427.153	11.5735
10.93857	431.8215	11.593
10.9411	427.9068	11.6125
10.94288	427.682	11.63208
10.94443	436.8374	11.6516
10.9467	429.133	11.6711
10.948	428.726	11.6907
10.9497	436.663	11.7102
10.9508	438.476	11.7297
10.9528	430.526	11.7493
10.9544	440.831	11.7688
10.9563	437.986	11.78833
10.9575	434.205	11.8079
10.9601	438.294	11.8274
10.9613	446.292	11.8469
10.962	436.487	11.8665
10.9641	441.146	11.886
10.9658	445.201	11.9055
10.9674	441.566	11.925
10.96839	438.512	11.94458
10.97	450.079	11.9641
10.9717	445.5719	11.9836
10.97384	440.822	12.0032
10.9745	450.206	12.0227
10.9769	451.521	12.0422
10.9787	442.702	12.0618
10.98	452.67	12.0813
10.9819	456.444	12.10083
10.9822	444.16	12.1204
10.9852	452.254	12.1399
10.9862	458.5043	12.1594
10.9886	451.099	12.179
10.9903	451.23	12.1985
10.9912	462.556	12.218
10.9926	451.83	12.2375
10.9952	454.953	12.25708
10.9974	464.945	12.2766
10.9987	459.336	12.2961
10.999	455.062	12.3157
11.0017	467.19	12.3352
11.0039	461.986	12.3547
11.0046	458.478	12.3743
11.0059	464.6756	12.3938
11.0074	468.028	12.41333
11.0096	462.133	12.4329
11.0104	469.345	12.4524
11.0121	470.106	12.4719
11.0141	464.4	12.4915
11.0172	466.995	12.511
11.0172	477.48	12.5305
11.0199	468.288	12.55
11.0211	468.142	12.56958
11.02208	474.769	12.5891
11.0237	475.4967	12.6086
11.026	468.732	12.6282
11.0276	480.041	12.6477
11.0295	477.963	12.6672
11.0307	472.3414	12.6868
11.0322	478.5	12.7063
11.0348	482.049	12.72583
11.03642	471.642	12.7454
11.037	478.778	12.7649
11.03918	487.836	12.7844
11.0406	477.135	12.804
11.0422	477.544	12.8235
11.0432	489.016	12.843
11.0447	483.266	12.8625
11.0461	482.574	12.88208
11.048	492.443	12.9016
11.04962	484.16	12.9211
11.0522	480.052	12.9407
11.0539	493.014	12.9602
11.0552	493.362	12.9797
11.05724	483.728	12.9993
11.0586	495.1413	13.0188
11.0601	493.933	13.03833
11.0623	488.997	13.0579
11.0624	494.087	13.0774
11.0654	499.386	13.0969
11.0675	491.1225	13.1165
11.068	497.897	13.136
11.0704	501.215	13.1555
11.0714	496.77	13.175
11.0729	494.066	13.19458
11.075	507.232	13.2141
11.076	501.986	13.2336
11.07778	498.373	13.2532
11.0789	503.312	13.2727
11.0812	506.387	13.2922
11.08274	498.298	13.3118
11.0846	507.06	13.3313
11.0864	509.738	13.35083
11.0882	500.996	13.3704
11.089	505.99	13.3899
11.092	515.136	13.4094
11.0924	504.406	13.429
11.0945	507.154	13.4485
11.0957	516.284	13.468
11.0978	509.144	13.4875
11.1	506.8161	13.50708
11.1008	517.75	13.5266
11.102	512.143	13.5461
11.1038	510.124	13.5657
11.1052	521.223	13.5852
11.107	516.3985	13.6047
11.1087	510.211	13.6243
11.1099	520.7699	13.6438
11.1124	524.149	13.66333
11.1139	513.927	13.6829
11.1142	521.474	13.7024
11.1171	522.885	13.7219
11.11832	519.779	13.7415
11.11952	520.945	13.761
11.1212	530.922	13.7805
11.1236	521.2215	13.8
11.1252	524.15	13.81958
11.1262	530.456	13.8391
11.1291	529.655	13.8586
11.1304	520.404	13.8782
11.1309	534.731	13.8977
11.1337	531.535	13.9172
11.134	525.694	13.9368
11.13532	530.266	13.9563
11.1377	536.483	13.97583
11.1402	527.011	13.9954
11.1418	535.2066	14.0149
11.1429	541.045	14.0344
11.14516	530.162	14.054
11.1456	532.395	14.0735
11.1495	545.552	14.093
11.1483	537.052	14.1125
11.1517	536.078	14.13208
11.153	545.918	14.1516
11.15438	539.011	14.1711
11.15554	534.424	14.1907
11.1576	546.654	14.2102
11.1592	544.462	14.2297
11.1607	537.04	14.2493
11.1626	549.483	14.2688
11.1641	547.01	14.28833
11.16595	539.168	14.3079
11.1671	547.6532	14.3274
11.1695	552.3371	14.3469
11.1705	543.452	14.3665
11.1731	549.061	14.386
11.1735	553.297	14.4055
11.1756	547.8537	14.425
11.1772	548.4552	14.44458
11.179	558.576	14.4641
11.1805	552.239	14.4836
11.18183	549.701	14.5032
11.1834	556.915	14.5227
11.1849	560.14	14.5422
11.1877	550.719	14.5618
11.1888	560.238	14.5813
11.1902	560.994	14.60083
11.1911	556.872	14.6204
11.1931	558.844	14.6399
11.1952	566.511	14.6594
11.1966	555.141	14.679
11.1986	562.775	14.6985
11.2003	570.008	14.718
11.2023	560.92	14.7375
11.20394	557.911	14.75708
11.206	571.292	14.7766
11.2063	565.389	14.7961
11.20814	562.439	14.8157
11.2094	572.285	14.8352
11.2116	569.146	14.8547
11.21288	561.653	14.8743
11.215	573.22	14.8938
11.2164	574.247	14.91333
11.2179	565.317	14.9329
11.2194	575.445	14.9524
11.2212	576.805	14.9719
11.2223	569.34	14.9915
11.2249	573.222	15.011
11.2268	581.847	15.0305
11.2278	574.0506	15.05
11.2296	576.341	15.06958
11.2311	580.721	15.0891
11.2326	577.071	15.1086
11.234	572.286	15.1282
11.2358	587.734	15.1477
11.23801	583.865	15.1672
11.2395	577.567	15.1868
11.2415	582.612	15.2063
11.2425	589.507	15.22583
11.2439	578.526	15.2454
11.2457	585.187	15.2649
11.2465	590.821	15.2844
11.24936	583.373	15.304
11.2512	583.4649	15.3235
11.2513	595.025	15.343
11.2532	584.245	15.3625
11.2542	587.4892	15.38208
11.257	598.345	15.4016
11.2594	591.766	15.4211
11.2609	584.974	15.4407
11.2616	598.177	15.4602
11.2642	594.869	15.4797
11.26575	588.788	15.4993
11.2666	598.184	15.5188
11.2691	597.989	15.53833
11.26977	588.946	15.5579
11.2723	599.442	15.5774
11.2733	604.659	15.5969
11.2751	594.195	15.6165
11.2769	598.905	15.636
11.2778	604.97	15.6555
11.279	598.523	15.675
11.2822	597.766	15.69458
11.2834	608.1554	15.7141
11.2847	602.255	15.7336
11.2871	599.7428	15.7532
11.2881	609.016	15.7727
11.2894	609.037	15.7922
11.291	599.187	15.8118
11.2925	610.663	15.8313
11.2946	613.315	15.85083
11.2966	605.71	15.8704
11.2972	606.504	15.8899
11.2996	617.507	15.9094
11.30055	608.0213	15.929
11.30205	611.3407	15.9485
11.30399	618.119	15.968
11.3052	610.887	15.9875
11.306	608.817	16.00708
11.3087	623.2959	16.0266
11.3093	613.475	16.0461
11.3119	611.804	16.0657
11.3145	622.1073	16.0852
11.3164	621.705	16.1047
11.3178	610.537	16.1243
11.319	622.679	16.1438
11.32091	623.241	16.16333
11.3232	616.239	16.1829
11.3241	623.278	16.2024
11.3257	627.928	16.2219
11.3272	616.448	16.2415
11.3288	623.352	16.261
11.3298	632.26	16.2805
11.3328	623.501	16.3
11.3338	624.968	16.31958
11.3353	631.238	16.3391
11.3379	626.881	16.3586
11.3394	623.649	16.3782
11.3395	635.705	16.3977
11.3422	630.362	16.4172
11.3435	626.848	16.4368
11.3456	633.836	16.4563
11.346	636.514	16.47583
11.3482	628.23	16.4954
11.3504	636.37	16.5149
11.3516	639.686	16.5344
11.3533	634.051	16.554
11.3529	631.117	16.5735
11.3553	644.719	16.593
11.3578	636.045	16.6125
11.3589	635.842	16.63208
11.3609	647.032	16.6516
11.36257	638.983	16.6711
11.36454	633.466	16.6907
11.3662	649.725	16.7102
11.3681	645.344	16.7297
11.37	638.197	16.7493
11.3707	645.978	16.7688
11.3722	649.516	16.78833
11.3745	639.245	16.8079
11.3751	649.116	16.8274
11.37664	651.225	16.8469
11.3792	644.345	16.8665
11.3809	647.709	16.886
11.3816	655.0614	16.9055
11.3833	646.306	16.925
11.3861	647.991	16.94458
11.388	657.8894	16.9641
11.3884	651.493	16.9836
11.3908	649.624	17.0032
11.3923	654.913	17.0227
11.3932	653.763	17.0422
11.3957	647.387	17.0618
11.3979	658.165	17.0813
11.39939	659.3598	17.10083
11.3997	650.728	17.1204
11.4027	654.65	17.1399
11.4027	663.7597	17.1594
11.4054	652.971	17.179
11.4058	656.055	17.1985
11.4098	665.776	17.218
11.4102	658.207	17.2375
11.41165	655.415	17.25708
11.4125	668.364	17.2766
11.4148	661.133	17.2961
11.4169	660.857	17.3157
11.4188	669.308	17.3352
11.4194	666.817	17.3547
11.4213	656.618	17.3743
11.4236	671.925	17.3938
11.4239	671.009	17.41333
11.4248	662.761	17.4329
11.4285	669.409	17.4524
11.4302	673.31	17.4719
11.4314	661.913	17.4915
11.4319	671.694	17.511
11.4348	676.581	17.5305
11.4366	669.8443	17.55
11.4376	669.4411	17.56958
11.4384	679.335	17.5891
11.4415	672.517	17.6086
11.4425	670.345	17.6282
11.4443	679.417	17.6477
11.4468	676.289	17.6672
11.4477	672.937	17.6868
11.44951	678.97	17.7063
11.4498	680.172	17.72583
11.45206	673.396	17.7454
11.45328	681.646	17.7649
11.456	686.559	17.7844
11.4564	679.739	17.804
11.4593	679.655	17.8235
11.4604	690.27	17.843
11.4628	682.098	17.8625
11.463	682.251	17.88208
11.4654	690.648	17.9016
11.4679	686.449	17.9211
11.4687	677.978	17.9407
11.4715	695.486	17.9602
11.47071	687.37	17.9797
11.4733	684.076	17.9993
11.4749	692.074	18.0188
11.4765	695.547	18.03833
11.4785	681.649	18.0579
11.4796	693.275	18.0774
11.481	697.597	18.0969
11.4838	691.633	18.1165
11.4831	694.069	18.136
11.4857	700.486	18.1555
11.4883	689.128	18.175
11.4889	695.358	18.19458
11.4915	703.016	18.2141
11.493	696.44	18.2336
11.4945	693.725	18.2532
11.49649	703.552	18.2727
11.4977	700.862	18.2922
11.4995	696.697	18.3118
11.5009	703.054	18.3313
11.503	704.679	18.35083
11.5045	697.876	18.3704
11.5058	703.444	18.3899
11.5062	708.037	18.4094
11.51013	698.9339	18.429
11.5103	704.292	18.4485
11.5128	712.3927	18.468
11.5144	706.234	18.4875
11.5161	700.397	18.50708
11.5169	713.598	18.5266
11.5188	707.943	18.5461
11.521	706.759	18.5657
11.5229	713.387	18.5852
11.5241	714.957	18.6047
11.5244	702.612	18.6243
11.527	717.215	18.6438
11.5288	716.644	18.66333
11.5302	708.498	18.6829
11.53186	715.395	18.7024
11.5336	722.453	18.7219
11.5344	708.922	18.7415
11.5365	716.477	18.761
11.5387	720.756	18.7805
11.5408	716.2901	18.8
11.5427	715.753	18.81958
11.5432	725.3089	18.8391
11.5439	716.965	18.8586
11.5461	717.325	18.8782
11.5481	725.931	18.8977
11.5501	722.382	18.9172
11.5519	717.4198	18.9368
11.5534	725.7417	18.9563
11.5541	724.966	18.97583
11.5563	721.669	18.9954
11.5582	726.579	19.0149
11.55923	730.75	19.0344
11.5616	723.157	19.054
11.5636	722.791	19.0735
11.5636	732.409	19.093
11.5665	725.742	19.1125
11.5677	725.074	19.13208
11.5695	735.257	19.1516
11.57114	732.466	19.1711
11.572	725.658	19.1907
11.5746	736.36	19.2102
11.5754	732.584	19.2297
11.5773	729.0683	19.2493
11.579	738.594	19.2688
11.5813	739.38	19.28833
11.5832	725.8	19.3079
11.584	739.275	19.3274
11.5853	742.379	19.3469
11.5877	734.2774	19.3665
11.5892	735.4201	19.386
11.5912	745.295	19.4055
11.5924	734.267	19.425
11.5936	739.479	19.44458
11.5947	746.328	19.4641
11.5968	741.541	19.4836
11.5999	738.201	19.5032
11.6002	749.703	19.5227
11.6025	742.02	19.5422
11.6039	739.83	19.5618
11.6049	747.375	19.5813
11.6061	749.631	19.60083
11.6093	742.878	19.6204
11.6104	745.4317	19.6399
11.6116	749.591	19.6594
11.6132	744.66	19.679
11.614	749.003	19.6985
11.6159	754.173	19.718
11.6187	748.178	19.7375
11.6194	744.5755	19.75708
11.6215	756.215	19.7766
11.6226	751.82	19.7961
11.62428	747.846	19.8157
11.6271	757.968	19.8352
11.628	756.906	19.8547
11.6292	747.267	19.8743
11.6313	759.995	19.8938
11.6321	757.293	19.91333
11.6345	751.787	19.9329
11.636	759.5141	19.9524
11.63753	765.553	19.9719
11.63916	750.769	19.9915
11.641	757.416	20.011
11.64178	766.68	20.0208

Data Header:			0.254_hd_dimension_typei_4545_r0			Time:	40.0254	s	4/15/2019 3:07:39 PM
Data Acquisition:	Timed
Station Name:	ft40.cfg
Test File Name:	monotonic_0.2540_typei_hd_4545_dimension.tst
Displacement	Force	Running Time
mm	N	s
11.6432	765.514	20.0305
11.644	759.365	20.05
11.6458	757.26	20.06958
11.6472	766.942	20.0891
11.64939	759.02	20.1086
11.6507	761.072	20.1282
11.653	769.579	20.1477
11.65396	766.918	20.1672
11.6566	759.169	20.1868
11.657	769.7558	20.2063
11.6593	768.893	20.22583
11.6592	764.454	20.2454
11.662	767.074	20.2649
11.6642	773.199	20.2844
11.6653	765.313	20.304
11.6674	768.643	20.3235
11.66919	772.979	20.343
11.6708	769.6123	20.3625
11.67266	768.922	20.38208
11.674	777.328	20.4016
11.6745	771.867	20.4211
11.6766	766.156	20.4407
11.6782	776.386	20.4602
11.6794	776.7326	20.4797
11.6815	769.3	20.4993
11.6826	777.501	20.5188
11.6846	780.336	20.53833
11.6862	770.17	20.5579
11.6874	779.105	20.5774
11.6894	782.622	20.5969
11.6911	774.963	20.6165
11.6929	776.885	20.636
11.69464	788.45	20.6555
11.6957	774.269	20.675
11.6987	780.126	20.69458
11.7002	784.364	20.7141
11.7012	783.075	20.7336
11.703	779.86	20.7532
11.7058	788.809	20.7727
11.7062	782.753	20.7922
11.7069	781.143	20.8118
11.7091	788.865	20.8313
11.7112	791.255	20.85083
11.7123	779.924	20.8704
11.7144	788.063	20.8899
11.716	789.978	20.9094
11.7175	786.34	20.929
11.7185	787.453	20.9485
11.7211	794.367	20.968
11.7223	788.124	20.9875
11.7241	787.99	21.00708
11.7257	794.5473	21.0266
11.727	792.096	21.0461
11.72822	788.319	21.0657
11.7302	796.1347	21.0852
11.7328	798.528	21.1047
11.733	786.8	21.1243
11.7358	796.3075	21.1438
11.7371	800.272	21.16333
11.7387	792.1604	21.1829
11.74057	796.341	21.2024
11.7423	802.563	21.2219
11.7433	789.932	21.2415
11.7455	798.883	21.261
11.7464	803.84	21.2805
11.747	797.342	21.3
11.7497	797.528	21.31958
11.7513	806.445	21.3391
11.7536	798.517	21.3586
11.7539	799.857	21.3782
11.7562	805.948	21.3977
11.7583	804.527	21.4172
11.7607	798.813	21.4368
11.7609	808.681	21.4563
11.763	804.558	21.47583
11.7645	801.985	21.4954
11.76657	806.301	21.5149
11.7673	812.372	21.5344
11.7685	803.81	21.554
11.771	806.715	21.5735
11.7721	810.7843	21.593
11.7735	809.197	21.6125
11.776	806.024	21.63208
11.7788	815.194	21.6516
11.7793	809.272	21.6711
11.781	807.221	21.6907
11.7822	813.5647	21.7102
11.7838	816.335	21.7297
11.7854	808.342	21.7493
11.7871	815.728	21.7688
11.7888	820.492	21.78833
11.7911	807.987	21.8079
11.7925	815.229	21.8274
11.7943	820.078	21.8469
11.7947	813.113	21.8665
11.7971	815.953	21.886
11.7991	825.021	21.9055
11.8005	811.45	21.925
11.80233	817.013	21.94458
11.8038	825.148	21.9641
11.80636	819.909	21.9836
11.8067	815.554	22.0032
11.8092	824.955	22.0227
11.8111	819.739	22.0422
11.8107	817.767	22.0618
11.8134	825.599	22.0813
11.8147	827.579	22.10083
11.8171	816.825	22.1204
11.8188	825.754	22.1399
11.8197	827.825	22.1594
11.8218	822.78	22.179
11.8237	823.601	22.1985
11.825	832.0058	22.218
11.8268	824.753	22.2375
11.8272	823.981	22.25708
11.8303	829.3042	22.2766
11.8304	831.3493	22.2961
11.8332	822.245	22.3157
11.8351	833.077	22.3352
11.8367	832.951	22.3547
11.8373	822.934	22.3743
11.84	832.181	22.3938
11.8403	835.731	22.41333
11.8433	824.945	22.4329
11.8448	832.185	22.4524
11.8451	838.609	22.4719
11.848	827.76	22.4915
11.8499	833.056	22.511
11.8517	839.9162	22.5305
11.8527	832.505	22.55
11.85393	829.9837	22.56958
11.85641	842.84	22.5891
11.8573	834.173	22.6086
11.8588	830.437	22.6282
11.8609	841.651	22.6477
11.8632	840.639	22.6672
11.8637	832.225	22.6868
11.8651	842.865	22.7063
11.8669	839.037	22.72583
11.8692	835.559	22.7454
11.8708	841.0387	22.7649
11.8726	846.409	22.7844
11.8731	836.955	22.804
11.8751	842.326	22.8235
11.8773	844.695	22.843
11.8792	842.975	22.8625
11.8798	837.533	22.88208
11.882	849.567	22.9016
11.8831	843.716	22.9211
11.8848	841.123	22.9407
11.8873	846.397	22.9602
11.8866	848.784	22.9797
11.8893	840.753	22.9993
11.8918	850.306	23.0188
11.8923	853.1897	23.03833
11.8951	840.521	23.0579
11.8966	848.248	23.0774
11.8989	855.54	23.0969
11.8994	847.266	23.1165
11.901	846.941	23.136
11.9029	855.697	23.1555
11.9042	846.775	23.175
11.90689	847.72	23.19458
11.908	856.34	23.2141
11.9092	851.657	23.2336
11.9117	848.636	23.2532
11.9123	859.6181	23.2727
11.9148	854.288	23.2922
11.9153	847.691	23.3118
11.917	856.696	23.3313
11.9191	860.639	23.35083
11.921	850.754	23.3704
11.9232	858.874	23.3899
11.9244	858.324	23.4094
11.9252	854.413	23.429
11.9261	855.155	23.4485
11.92882	865.2771	23.468
11.9307	855.067	23.4875
11.9319	856.378	23.50708
11.9327	862.456	23.5266
11.935	862.606	23.5461
11.93678	854.795	23.5657
11.9391	865.9809	23.5852
11.94	863.132	23.6047
11.943	856.522	23.6243
11.9429	861.654	23.6438
11.9457	867.27	23.66333
11.9472	855.565	23.6829
11.947	863.79	23.7024
11.9509	869.106	23.7219
11.9523	860.174	23.7415
11.9537	860.194	23.761
11.9552	871.255	23.7805
11.9572	863.637	23.8
11.9579	860.521	23.81958
11.96	871.605	23.8391
11.9618	863.112	23.8586
11.963	862.1264	23.8782
11.9649	873.463	23.8977
11.9659	869.333	23.9172
11.9677	860.723	23.9368
11.9691	873.932	23.9563
11.9713	871.27	23.97583
11.9722	864.392	23.9954
11.9743	869.862	24.0149
11.976	876.047	24.0344
11.9779	868.385	24.054
11.9792	871.104	24.0735
11.9825	873.8548	24.093
11.9819	870.676	24.1125
11.9857	869.18	24.13208
11.9871	880.663	24.1516
11.9865	872.679	24.1711
11.9887	868.515	24.1907
11.9892	875.403	24.2102
11.9932	877.608	24.2297
11.994	870.5943	24.2493
11.9954	879.069	24.2688
11.9979	878.97	24.28833
11.999	871.5611	24.3079
12.0013	876.872	24.3274
12.0018	883.589	24.3469
12.0037	873.175	24.3665
12.0056	876.3728	24.386
12.0074	883.805	24.4055
12.00954	875.326	24.425
12.01119	871.86	24.44458
12.0119	885.312	24.4641
12.0127	879.937	24.4836
12.0155	876.154	24.5032
12.0166	885.595	24.5227
12.0181	880.808	24.5422
12.0204	875.473	24.5618
12.0216	884.1969	24.5813
12.0247	886.36	24.60083
12.0254	874.992	24.6204
12.0269	884.177	24.6399
12.0278	885.818	24.6594
12.0289	881.2644	24.679
12.03107	882.525	24.6985
12.0342	891.179	24.718
12.0357	881.046	24.7375
12.0363	883.752	24.75708
12.0379	888.248	24.7766
12.0395	886.718	24.7961
12.041	878.32	24.8157
12.0426	891.962	24.8352
12.0445	888.761	24.8547
12.04572	880.841	24.8743
12.0484	885.998	24.8938
12.0492	893.16	24.91333
12.0509	884.2	24.9329
12.0521	890.123	24.9524
12.0546	893.495	24.9719
12.056	884.0517	24.9915
12.0567	885.341	25.011
12.05893	899.153	25.0305
12.0614	886.502	25.05
12.0623	884.565	25.06958
12.0643	896.001	25.0891
12.0664	890.9231	25.1086
12.0664	884.112	25.1282
12.0687	896.966	25.1477
12.0702	893.875	25.1672
12.0716	887.37	25.1868
12.0736	898.389	25.2063
12.07624	893.002	25.22583
12.078	887.5329	25.2454
12.0788	895.667	25.2649
12.0796	900.126	25.2844
12.0822	890.063	25.304
12.0841	894.576	25.3235
12.0856	897.757	25.343
12.087	894.383	25.3625
12.0891	892.097	25.38208
12.0896	900.056	25.4016
12.0922	895.394	25.4211
12.0927	894.188	25.4407
12.0954	900.026	25.4602
12.0963	900.827	25.4797
12.0989	891.967	25.4993
12.0995	901.851	25.5188
12.1012	902.754	25.53833
12.1035	894.558	25.5579
12.1036	898.446	25.5774
12.1056	906.32	25.5969
12.1082	895.434	25.6165
12.1097	901.009	25.636
12.1113	905.284	25.6555
12.1128	896.545	25.675
12.1143	895.392	25.69458
12.1168	908.865	25.7141
12.1178	900.551	25.7336
12.1197	897.168	25.7532
12.1203	906.522	25.7727
12.1221	902.471	25.7922
12.1238	896.954	25.8118
12.1251	906.57	25.8313
12.1274	906.88	25.85083
12.1294	896.459	25.8704
12.1308	905.173	25.8899
12.1327	908.133	25.9094
12.133	899.731	25.929
12.1355	901.551	25.9485
12.1367	912.52	25.968
12.1394	903.372	25.9875
12.1413	904.25	26.00708
12.1422	906.7887	26.0266
12.1435	905.4765	26.0461
12.1454	901.109	26.0657
12.1474	911.555	26.0852
12.1484	906.353	26.1047
12.1505	903.152	26.1243
12.1518	907.2608	26.1438
12.1535	914.384	26.16333
12.1548	902.087	26.1829
12.157	908.967	26.2024
12.159	913.481	26.2219
12.1603	905.416	26.2415
12.1623	905.9588	26.261
12.163	917.078	26.2805
12.1651	906.202	26.3
12.1666	907.419	26.31958
12.1684	916.233	26.3391
12.1703	909.6037	26.3586
12.1713	902.997	26.3782
12.1725	918.254	26.3977
12.1747	913.493	26.4172
12.1767	905.677	26.4368
12.1778	913.376	26.4563
12.1796	913.14	26.47583
12.1814	905.132	26.4954
12.1832	912.96	26.5149
12.1841	917.903	26.5344
12.1853	906.116	26.554
12.1876	913.238	26.5735
12.1899	918.237	26.593
12.1913	910.6192	26.6125
12.1926	911.1095	26.63208
12.1943	918.97	26.6516
12.1967	912.313	26.6711
12.1973	911.244	26.6907
12.1995	915.937	26.7102
12.20034	916.3075	26.7297
12.2032	910.385	26.7493
12.2034	920.079	26.7688
12.2059	920.708	26.78833
12.2089	910.855	26.8079
12.2092	913.198	26.8274
12.211	923.887	26.8469
12.21173	912.118	26.8665
12.213	915.603	26.886
12.2156	921.833	26.9055
12.2168	914.261	26.925
12.2183	911.379	26.94458
12.2205	923.837	26.9641
12.222	916.157	26.9836
12.2238	911.565	27.0032
12.2254	923.464	27.0227
12.2272	921.981	27.0422
12.22866	910.839	27.0618
12.2299	920.7937	27.0813
12.23184	920.835	27.10083
12.2326	912.353	27.1204
12.235	920.165	27.1399
12.23672	921.657	27.1594
12.2392	913.558	27.179
12.23982	920.069	27.1985
12.2425	926.137	27.218
12.2437	915.319	27.2375
12.2456	917.0191	27.25708
12.2467	924.856	27.2766
12.2473	921.883	27.2961
12.2487	914.766	27.3157
12.2515	925.0072	27.3352
12.2535	922.47	27.3547
12.2552	918.288	27.3743
12.2565	922.746	27.3938
12.2569	925.706	27.41333
12.2598	915.44	27.4329
12.26183	923.016	27.4524
12.2632	926.981	27.4719
12.2641	919.654	27.4915
12.2661	917.047	27.511
12.267	930.92	27.5305
12.26946	920.148	27.55
12.2716	920.685	27.56958
12.2724	930.158	27.5891
12.2745	923.625	27.6086
12.2754	916.509	27.6282
12.27669	930.9325	27.6477
12.2791	926.231	27.6672
12.2814	917.619	27.6868
12.282	926.647	27.7063
12.2841	929.025	27.72583
12.2865	918.431	27.7454
12.2865	926.184	27.7649
12.2886	930.046	27.7844
12.2904	920.856	27.804
12.2921	925.116	27.8235
12.2935	929.996	27.843
12.2947	921.528	27.8625
12.2969	921.852	27.88208
12.29874	932.514	27.9016
12.2992	924.066	27.9211
12.30172	920.719	27.9407
12.3029	927.7887	27.9602
12.3054	927.842	27.9797
12.3067	922.013	27.9993
12.3079	931.561	28.0188
12.3093	928.343	28.03833
12.31192	923.687	28.0579
12.3144	927.916	28.0774
12.31414	935.648	28.0969
12.3164	923.422	28.1165
12.3167	927.487	28.136
12.3194	935.437	28.1555
12.3207	927.137	28.175
12.3229	922.064	28.19458
12.3252	937.758	28.2141
12.3264	927.817	28.2336
12.3295	926.453	28.2532
12.3282	935.069	28.2727
12.3309	930.364	28.2922
12.3324	921.353	28.3118
12.3344	935.924	28.3313
12.3355	935.437	28.35083
12.33887	924.8576	28.3704
12.3385	930.583	28.3899
12.3404	934.413	28.4094
12.3434	923.851	28.429
12.344	929.904	28.4485
12.3452	935.672	28.468
12.3464	926.594	28.4875
12.3489	929.407	28.50708
12.3507	935.475	28.5266
12.3522	929.579	28.5461
12.35311	926.209	28.5657
12.3546	936.866	28.5852
12.3578	931.618	28.6047
12.3587	927.953	28.6243
12.3603	932.713	28.6438
12.361	935.422	28.66333
12.3625	926.225	28.6829
12.36467	933.617	28.7024
12.3662	938.179	28.7219
12.36758	929.58	28.7415
12.37041	928.004	28.761
12.3715	941.728	28.7805
12.3733	929.958	28.8
12.3756	929.806	28.81958
12.3764	939.381	28.8391
12.3778	934.948	28.8586
12.3796	928.025	28.8782
12.3811	940.534	28.8977
12.3832	935.155	28.9172
12.3857	928.763	28.9368
12.3864	937.871	28.9563
12.3868	939.922	28.97583
12.3887	926.398	28.9954
12.3917	938.219	29.0149
12.393	941.034	29.0344
12.3946	930.892	29.054
12.3969	933.662	29.0735
12.3978	939.1908	29.093
12.3981	930.151	29.1125
12.40138	933.928	29.13208
12.402	941.489	29.1516
12.4044	933.337	29.1711
12.4059	931.004	29.1907
12.4076	938.493	29.2102
12.4085	936.074	29.2297
12.4108	929.905	29.2493
12.4124	938.512	29.2688
12.4139	940.692	29.28833
12.4156	932.9801	29.3079
12.4182	935.715	29.3274
12.4182	940.756	29.3469
12.4202	931.958	29.3665
12.4225	936.969	29.386
12.4231	942.283	29.4055
12.4262	936.123	29.425
12.4277	931.477	29.44458
12.4282	945.887	29.4641
12.4308	936.648	29.4836
12.4313	933.762	29.5032
12.4336	939.735	29.5227
12.4352	940.435	29.5422
12.4374	931.177	29.5618
12.439	943.447	29.5813
12.4399	939.368	29.60083
12.4423	933.367	29.6204
12.4434	938.8761	29.6399
12.445	943.155	29.6594
12.4461	930.6889	29.679
12.447	938.658	29.6985
12.4497	941.29	29.718
12.4511	936.1051	29.7375
12.45357	936.019	29.75708
12.4541	943.344	29.7766
12.4564	934.477	29.7961
12.458	936.974	29.8157
12.4599	944.306	29.8352
12.4608	939.948	29.8547
12.4634	933.897	29.8743
12.4641	940.169	29.8938
12.4665	940.926	29.91333
12.4671	934.847	29.9329
12.46934	939.1214	29.9524
12.4714	942.0166	29.9719
12.4723	938.419	29.9915
12.4733	936.652	30.011
12.4759	946.146	30.0305
12.4786	936.5412	30.05
12.4803	936.726	30.06958
12.48023	944.321	30.0891
12.483	939.911	30.1086
12.4842	931.8	30.1282
12.4855	947.153	30.1477
12.4877	941.753	30.1672
12.488	935.764	30.1868
12.4901	943.746	30.2063
12.4923	944.378	30.22583
12.4933	933.276	30.2454
12.495	943.585	30.2649
12.4959	946.491	30.2844
12.498	936.965	30.304
12.5001	940.029	30.3235
12.5024	947.667	30.343
12.50421	937.454	30.3625
12.5046	940.07	30.38208
12.5066	946.201	30.4016
12.5084	941.2478	30.4211
12.5098	937.799	30.4407
12.51114	946.509	30.4602
12.5132	940.4	30.4797
12.5154	938.359	30.4993
12.5173	945.802	30.5188
12.518	946.042	30.53833
12.5195	936.662	30.5579
12.5215	941.224	30.5774
12.5229	946.806	30.5969
12.5251	939.915	30.6165
12.5265	942.227	30.636
12.5287	946.1402	30.6555
12.53	941.699	30.675
12.5309	939.377	30.69458
12.5331	948.888	30.7141
12.535	942.08	30.7336
12.5358	937.7428	30.7532
12.53758	947.666	30.7727
12.54	946.472	30.7922
12.5407	935.134	30.8118
12.5431	947.864	30.8313
12.5448	946.0802	30.85083
12.5459	939.96	30.8704
12.5468	944.1076	30.8899
12.54948	949.724	30.9094
12.5513	936.982	30.929
12.5511	945.742	30.9485
12.5542	948.419	30.968
12.5559	940.57	30.9875
12.5568	939.6908	31.00708
12.5596	950.1366	31.0266
12.5606	942.903	31.0461
12.5623	940.192	31.0657
12.5642	947.7041	31.0852
12.56569	944.579	31.1047
12.567	940.655	31.1243
12.5687	948.454	31.1438
12.5699	944.794	31.16333
12.5719	938.0321	31.1829
12.5732	945.6087	31.2024
12.5749	948.711	31.2219
12.5761	942.432	31.2415
12.578	941.892	31.261
12.5804	949.3382	31.2805
12.5817	942.9129	31.3
12.5836	941.311	31.31958
12.5848	950.008	31.3391
12.5867	946.486	31.3586
12.5883	939.067	31.3782
12.5895	950.731	31.3977
12.5915	946.639	31.4172
12.5928	937.92	31.4368
12.5954	947.848	31.4563
12.5966	951.738	31.47583
12.5966	937.433	31.4954
12.5996	947.25	31.5149
12.6023	948.682	31.5344
12.6023	942.342	31.554
12.604	944.62	31.5735
12.6059	952.855	31.593
12.6075	939.809	31.6125
12.6094	944.884	31.63208
12.6107	948.903	31.6516
12.612	945.261	31.6711
12.6137	939.998	31.6907
12.6157	950.749	31.7102
12.6172	943.896	31.7297
12.6185	941.901	31.7493
12.621	947.369	31.7688
12.6211	949.3938	31.78833
12.6241	941.323	31.8079
12.6258	947.34	31.8274
12.6269	949.202	31.8469
12.629	942.526	31.8665
12.6302	943.887	31.886
12.6323	950.873	31.9055
12.6343	945.0484	31.925
12.6349	940.509	31.94458
12.6361	950.536	31.9641
12.6387	946.922	31.9836
12.6409	944.215	32.0032
12.6425	950.946	32.0227
12.6428	948.722	32.0422
[...]
15.0451	950.399	60.8606
15.0453	945.465	60.8704
15.0468	947.748	60.8801
15.0478	954.535	60.8899
15.04845	959.306	60.8997
15.0495	955.621	60.9094
15.0489	952.731	60.9192
15.0517	948.983	60.929
15.0522	947.028	60.9387
15.0514	950.648	60.9485
15.053	955.622	60.9583
15.0539	960.347	60.968
15.0549	954.382	60.9778
15.055	946.249	60.9875
15.0572	946.49	60.9973
15.0555	950.896	61.00708
15.0575	956.311	61.0168
15.0591	959.269	61.0266
15.0595	955.529	61.0364
15.0604	953.156	61.0461
15.0615	947.94	61.0559
15.0622	948.421	61.0657
15.06356	953.925	61.0754
15.0635	957.667	61.0852
15.0639	957.839	61.095
15.0654	953.232	61.1047
15.0659	949.564	61.1145
15.0674	950.259	61.1243
15.0687	951.5	61.134
15.0689	955.921	61.1438
15.0698	956.002	61.1536
15.07063	955.057	61.16333
15.0717	952.515	61.1731
15.0722	946.706	61.1829
15.0724	947.7973	61.1926
15.0739	952.993	61.2024
15.074	957.7124	61.2122
15.0749	957.459	61.2219
15.0759	954.003	61.2317
15.0759	948.911	61.2415
15.0786	949.175	61.2512
15.0795	950.8288	61.261
15.0787	953.816	61.2708
15.0801	957.263	61.2805
15.0806	954.907	61.2903
15.0814	950.725	61.3
15.0825	946.239	61.3098
15.0836	948.114	61.31958
15.0833	956.234	61.3293
15.0845	957.145	61.3391
15.08572	957.733	61.3489
15.0875	952.486	61.3586
15.088	948.434	61.3684
15.0886	950.257	61.3782
15.0887	950.294	61.3879
15.0892	957.351	61.3977
15.09064	960.69	61.4075
15.0917	955.0094	61.4172
15.0925	948.551	61.427
15.0927	944.33	61.4368
15.0936	950.75	61.4465
15.09328	956.991	61.4563
15.0958	958.2547	61.4661
15.0971	957.218	61.47583
15.0973	952.226	61.4856
15.0986	947.7168	61.4954
15.0988	948.834	61.5051
15.0994	952.688	61.5149
15.1006	961.376	61.5247
15.1007	959.22	61.5344
15.1021	953.086	61.5442
15.1033	945.2406	61.554
15.1045	945.004	61.5637
15.1046	953.403	61.5735
15.1051	956.175	61.5833
15.106	958.06	61.593
15.1067	954.837	61.6028
15.1084	950.481	61.6125
15.1078	945.633	61.6223
15.1091	949.209	61.63208
15.1102	954.294	61.6418
15.1108	960.082	61.6516
15.1116	959.474	61.6614
15.1124	949.533	61.6711
15.1137	948.366	61.6809
15.1137	948.389	61.6907
15.1151	954.552	61.7004
15.1162	956.099	61.7102
15.1171	955.378	61.72
15.1164	955.077	61.7297
15.1188	949.048	61.7395
15.1197	946.827	61.7493
15.1199	949.598	61.759
15.1203	956.185	61.7688
15.1215	960.049	61.7786
15.1225	953.367	61.78833
15.1241	950.2627	61.7981
15.1245	947.966	61.8079
15.1252	949.323	61.8176
15.1253	955.259	61.8274
15.1256	955.022	61.8372
15.1266	958.88	61.8469
15.1281	955.344	61.8567
15.1291	947.431	61.8665
15.1293	946.489	61.8762
15.1301	950.5097	61.886
15.1311	956.767	61.8958
15.1326	958.779	61.9055
15.1326	953.543	61.9153
15.134	950.511	61.925
15.1339	948.534	61.9348
15.13575	950.052	61.94458
15.1359	952.561	61.9543
15.1369	955.732	61.9641
15.1381	959.4704	61.9739
15.1389	952.713	61.9836
15.1393	945.662	61.9934
15.1404	946.942	62.0032
15.1415	953.274	62.0129
15.1426	955.954	62.0227
15.14346	958.564	62.0325
15.1437	952.342	62.0422
15.14567	949.83	62.052
15.1462	946.652	62.0618
15.1466	948.036	62.0715
15.1473	954.769	62.0813
15.1481	959.176	62.0911
15.1484	957.538	62.10083
15.1504	950.45	62.1106
15.1504	943.6759	62.1204
15.1508	949.416	62.1301
15.1519	953.747	62.1399
15.1525	959	62.1497
15.1534	957.645	62.1594
15.1532	951.8703	62.1692
15.1535	948.989	62.179
15.1561	942.586	62.1887
15.1573	949.042	62.1985
15.1571	957.709	62.2083
15.1574	958.144	62.218
15.1592	954.342	62.2278
15.159	947.355	62.2375
15.1604	944.675	62.2473
15.1617	950.464	62.25708
15.1615	953.628	62.2668
15.1634	957.712	62.2766
15.1636	957.261	62.2864
15.165	951.6416	62.2961
15.1652	947.895	62.3059
15.1659	946.788	62.3157
15.16723	952.181	62.3254
15.1684	957.977	62.3352
15.16866	956.934	62.345
15.1711	951.856	62.3547
15.1711	948.612	62.3645
15.1702	949.33	62.3743
15.1721	950.913	62.384
15.173	953.642	62.3938
15.17415	955.611	62.4036
15.1738	955.397	62.41333
15.1746	951.763	62.4231
15.1761	947.011	62.4329
15.1772	947.182	62.4426
15.17726	953.088	62.4524
15.17926	957.399	62.4622
15.179	954.737	62.4719
15.1798	951.469	62.4817
15.1809	948.4	62.4915
15.1812	948.318	62.5012
15.1834	949.766	62.511
15.1834	954.148	62.5208
15.1833	958.535	62.5305
15.1854	956.087	62.5403
15.1858	950.897	62.55
15.1872	946.693	62.5598
15.1866	948.0575	62.56958
15.1891	954.494	62.5793
15.1894	957.1524	62.5891
15.1889	956.404	62.5989
15.19043	952.867	62.6086
15.1918	947.679	62.6184
15.1928	948.0144	62.6282
15.1923	949.357	62.6379
15.1938	956.193	62.6477
15.1951	961.113	62.6575
15.1956	955.126	62.6672
15.1966	948.593	62.677
15.1977	946.299	62.6868
15.1986	951.069	62.6965
15.1995	955.542	62.7063
15.1996	958.758	62.7161
15.2	956.914	62.72583
15.2017	952.997	62.7356
15.2019	945.274	62.7454
15.2028	945.501	62.7551
15.2042	952.892	62.7649
15.2049	958.705	62.7747
15.2053	957.953	62.7844
15.206	950.451	62.7942
15.2069	946.084	62.804
15.2068	947.9649	62.8137
15.208	951.739	62.8235
15.2095	957.474	62.8333
15.2106	957.0813	62.843
15.211	953.9726	62.8528
15.2125	949.9765	62.8625
15.2121	943.748	62.8723
15.21456	949.6579	62.88208
15.215	954.781	62.8918
15.2161	958.133	62.9016
15.216	959.6015	62.9114
15.2168	948.759	62.9211
15.21693	946.207	62.9309
15.2176	949.839	62.9407
15.2199	952.215	62.9504
15.2207	958.079	62.9602
15.21958	957.164	62.97
15.2212	953.928	62.9797
15.2223	948.233	62.9895
15.22342	943.809	62.9993
15.2247	950.565	63.009
15.2252	955.039	63.0188
15.2261	956.467	63.0286
15.2268	953.154	63.03833
15.2273	948.957	63.0481
15.22776	948.17	63.0579
15.2284	948.9884	63.0676
15.2303	950.574	63.0774
15.23	954.661	63.0872
15.2297	956.937	63.0969
15.2325	951.735	63.1067
15.234	947.473	63.1165
15.2342	945.6629	63.1262
15.2341	951	63.136
15.2356	954.924	63.1458
15.2366	954.797	63.1555
15.2366	954.647	63.1653
15.2368	949.283	63.175
15.2393	948.116	63.1848
15.2399	949.375	63.19458
15.2401	951.661	63.2043
15.241	959.664	63.2141
15.2414	955.622	63.2239
15.2431	953.22	63.2336
15.2442	945.329	63.2434
15.24406	944.515	63.2532
15.2444	952.81	63.2629
15.2466	954.36	63.2727
15.2468	958.497	63.2825
15.2473	954.88	63.2922
15.2487	949.56	63.302
15.2493	948.029	63.3118
15.2492	945.34	63.3215
15.25	952.249	63.3313
15.2521	960.585	63.3411
15.2526	956.023	63.35083
15.2526	949.196	63.3606
15.2542	943.362	63.3704
15.2547	947.768	63.3801
15.2557	954.354	63.3899
15.256	957.214	63.3997
15.2572	956.835	63.4094
15.2586	953.594	63.4192
15.2586	947.455	63.429
15.2593	945.727	63.4387
15.26	949.027	63.4485
15.2608	956.541	63.4583
15.262	961.238	63.468
15.2628	952.77	63.4778
15.2638	947.952	63.4875
15.2641	946.1319	63.4973
15.2657	949.647	63.50708
15.2667	955.588	63.5168
15.2667	956.075	63.5266
15.2689	957.878	63.5364
15.2689	953.295	63.5461
15.2712	944.311	63.5559
15.2709	949.093	63.5657
15.2709	951.546	63.5754
15.2721	958.875	63.5852
15.273	955.983	63.595
15.2737	951.396	63.6047
15.2746	949.606	63.6145
15.2751	948.388	63.6243
15.2756	950.136	63.634
15.2762	955.32	63.6438
15.2779	956.531	63.6536
15.2789	956.469	63.66333
15.2788	948.688	63.6731
15.2811	945.916	63.6829
15.2808	949.125	63.6926
15.2819	954.175	63.7024
15.28307	956.6579	63.7122
15.28332	955.232	63.7219
15.2852	951.317	63.7317
15.2853	951.129	63.7415
15.2851	947.631	63.7512
15.2867	950.753	63.761
15.2877	952.979	63.7708
15.2877	956.596	63.7805
15.2893	956.454	63.7903
15.2917	949.916	63.8
15.2913	946.435	63.8098
15.2913	949.905	63.81958
15.2911	953.152	63.8293
15.29352	955.641	63.8391
15.2944	957.185	63.8489
15.2949	952.149	63.8586
15.295	948.7583	63.8684
15.2962	946.434	63.8782
15.298	949.178	63.8879
15.2982	957.417	63.8977
15.299	959.516	63.9075
15.30008	954.134	63.9172
15.3012	946.763	63.927
15.30129	945.13	63.9368
15.3021	950.366	63.9465
15.3024	953.539	63.9563
15.3037	959.377	63.9661
15.3052	954.989	63.97583
15.3055	952.002	63.9856
15.30629	946.701	63.9954
15.3074	944.404	64.0051
15.3082	952.603	64.0149
15.308	957.458	64.0247
15.3093	959.614	64.0344
15.3102	953.841	64.0442
15.3121	944.566	64.054
15.311	947.198	64.0637
15.3133	951.325	64.0735
15.3131	954.353	64.0833
15.3141	958.805	64.093
15.3143	955.168	64.1028
15.3161	949.137	64.1125
15.3172	944.07	64.1223
15.3177	946.545	64.13208
15.3179	957.023	64.1418
15.3198	959.487	64.1516
15.3194	955.823	64.1614
15.3209	949.647	64.1711
15.3206	945.75	64.1809
15.3222	948.014	64.1907
15.3231	952.242	64.2004
15.3246	955.785	64.2102
15.3251	958.833	64.22
15.3252	954.321	64.2297
15.3265	948.218	64.2395
15.3279	944.79	64.2493
15.3292	950.332	64.259
15.3286	957.019	64.2688
15.3307	958.153	64.2786
15.3308	952.431	64.28833
15.3318	949	64.2981
15.3328	946.24	64.3079
15.3327	949.513	64.3176
15.3339	951.739	64.3274
15.3344	955.825	64.3372
15.3361	957.701	64.3469
15.337	950.347	64.3567
15.3367	948.398	64.3665
15.338	944.651	64.3762
15.3387	950.326	64.386
15.3397	956.739	64.3958
15.341	955.836	64.4055
15.3414	953.197	64.4153
15.3419	951.1521	64.425
15.3427	945.503	64.4348
15.3439	947.114	64.44458
15.3437	950.674	64.4543
15.3453	957.296	64.4641
15.3465	957.592	64.4739
15.3461	950.761	64.4836
15.3484	946.755	64.4934
15.3481	945.793	64.5032
15.3493	952.892	64.5129
15.35003	954.056	64.5227
15.351	956.314	64.5325
15.3521	954.431	64.5422
15.3521	949.966	64.552
15.35348	942.949	64.5618
15.354	949.1	64.5715
15.35468	952.429	64.5813
15.3552	958.707	64.5911
15.3566	956.483	64.60083
15.3575	948.569	64.6106
15.3583	946.222	64.6204
15.36004	945.9856	64.6301
15.3596	951.009	64.6399
15.3602	957.9021	64.6497
15.3616	955.205	64.6594
15.3624	955.039	64.6692
15.3632	946.584	64.679
15.3636	942.949	64.6887
15.3644	949.09	64.6985
15.3643	955.9826	64.7083
15.3666	957.218	64.718
15.3673	953.3219	64.7278
15.3673	945.436	64.7375
15.3679	946.331	64.7473
15.3692	946.5047	64.75708
15.3699	953.486	64.7668
15.3718	957.4024	64.7766
15.3727	956.22	64.7864
15.373	951.691	64.7961
15.3738	943.757	64.8059
15.3741	944.566	64.8157
15.3753	953.305	64.8254
15.3767	957.287	64.8352
15.3769	955.614	64.845
15.3771	948.449	64.8547
15.3776	944.995	64.8645
15.3804	947.618	64.8743
15.3812	949.55	64.884
15.3818	953.8125	64.8938
15.3826	957.1095	64.9036
15.38263	954.629	64.91333
15.3831	949.037	64.9231
15.3841	944.752	64.9329
15.3849	946.726	64.9426
15.3867	955.061	64.9524
15.3875	955.141	64.9622
15.3877	953.837	64.9719
15.3879	949.114	64.9817
15.3888	946.692	64.9915
15.3906	946.7879	65.0012
15.3909	947.068	65.011
15.3915	953.641	65.0208
15.3928	957.407	65.0305
15.3933	953.479	65.0403
15.3938	949.82	65.05
15.3947	944.513	65.0598
15.395	948.292	65.06958
15.3969	953.3681	65.0793
15.3974	953.377	65.0891
15.3979	954.872	65.0989
15.3999	951.095	65.1086
15.3997	946.441	65.1184
15.401	945.439	65.1282
15.4024	948.694	65.1379
15.4032	957.063	65.1477
15.40357	957.195	65.1575
15.4045	951.851	65.1672
15.405	946.482	65.177
15.40548	943.953	65.1868
15.4069	949.882	65.1965
15.4063	950.092	65.2063
15.4082	955.5022	65.2161
15.4094	954.732	65.22583
15.4095	949.625	65.2356
15.4106	943.774	65.2454
15.4116	942.776	65.2551
15.4128	949.17	65.2649
15.413	956.83	65.2747
15.4137	955.128	65.2844
15.4146	949.654	65.2942
15.4159	945.171	65.304
15.4164	945.353	65.3137
15.4162	948.423	65.3235
15.4173	955.016	65.3333
15.4176	957.381	65.343
15.4189	955.061	65.3528
15.4202	946.401	65.3625
15.4199	943.342	65.3723
15.423	943.453	65.38208
15.4226	953.532	65.3918
15.4228	957.562	65.4016
15.424	954.115	65.4114
15.4257	947.351	65.4211
15.4256	946.115	65.4309
15.4267	944.063	65.4407
15.4273	951.14	65.4504
15.4285	953.111	65.4602
15.4293	955.777	65.47
15.4302	952.282	65.4797
15.4304	942.346	65.4895
15.4311	943.843	65.4993
15.4328	947.8797	65.509
15.4327	952.581	65.5188
15.4343	955.537	65.5286
15.4349	950.699	65.53833
15.4345	946.457	65.5481
15.4354	945.261	65.5579
15.4371	945.378	65.5676
15.4384	950.798	65.5774
15.4383	953.196	65.5872
15.4391	954.432	65.5969
15.4404	950.254	65.6067
15.4425	943.914	65.6165
15.4403	945.1225	65.6262
15.4436	947.619	65.636
15.444	952.287	65.6458
15.4444	952.761	65.6555
15.4454	950.588	65.6653
15.4467	948.997	65.675
15.448	944.374	65.6848
15.4482	944.5744	65.69458
15.448	950.532	65.7043
15.4493	955.584	65.7141
15.45013	952.547	65.7239
15.4524	949.964	65.7336
15.4525	944.345	65.7434
15.4528	946.535	65.7532
15.4538	949.071	65.7629
15.4537	952.484	65.7727
15.4556	955.205	65.7825
15.45612	951.671	65.7922
15.4564	947.649	65.802
15.4574	942.377	65.8118
15.4586	943.911	65.8215
15.45804	952.727	65.8313
15.45964	956.769	65.8411
15.4607	953.9743	65.85083
15.4617	946.3197	65.8606
15.4623	943.133	65.8704
15.4636	946.348	65.8801
15.46391	946.691	65.8899
15.4646	955.234	65.8997
15.4654	956.816	65.9094
15.4659	947.937	65.9192
15.4676	945.466	65.929
15.4678	940.78	65.9387
15.4694	946.136	65.9485
15.4695	956.993	65.9583
15.4714	955.314	65.968
15.4717	952.3161	65.9778
15.472	945	65.9875
15.4729	943.737	65.9973
15.4741	945.538	66.00708
15.4755	949.969	66.0168
15.4757	955.538	66.0266
15.4761	955.881	66.0364
15.478	947.822	66.0461
15.4789	941.47	66.0559
15.4787	943.591	66.0657
15.4786	950.119	66.0754
15.4799	955.476	66.0852
15.4815	952.117	66.095
15.4812	948.277	66.1047
15.48229	945.694	66.1145
15.4839	942.957	66.1243
15.4841	945.502	66.134
15.4854	950.268	66.1438
15.4862	955.378	66.1536
15.4868	952.652	66.16333
15.4873	943.775	66.1731
15.4889	942.076	66.1829
15.4893	945.282	66.1926
15.48938	950.327	66.2024
15.4908	952.993	66.2122
15.4905	949.937	66.2219
15.4923	949.512	66.2317
15.4938	945.17	66.2415
15.495	944.085	66.2512
15.4953	947.469	66.261
15.4958	951.007	66.2708
15.4971	956.079	66.2805
15.4976	948.702	66.2903
15.498	945.737	66.3
15.4994	943.209	66.3098
15.4997	944.7	66.31958
15.5006	950.4447	66.3293
15.5023	950.23	66.3391
15.5013	949.951	66.3489
15.50328	949.279	66.3586
15.5041	943.108	66.3684
15.5045	941.551	66.3782
15.5057	944.53	66.3879
15.5073	951.197	66.3977
15.508	953.171	66.4075
15.5075	948.3537	66.4172
15.5089	942.393	66.427
15.5102	942.2782	66.4368
15.5106	944.942	66.4465
15.5124	947.594	66.4563
15.5126	951.803	66.4661
15.5127	951.641	66.47583
15.5126	945.465	66.4856
15.5153	938.892	66.4954
15.51505	939.297	66.5051
15.5165	946.889	66.5149
15.5173	952.181	66.5247
15.5179	953.43	66.5344
15.5181	944.872	66.5442
15.5189	940.682	66.554
15.5201	940.693	66.5637
15.52074	941.478	66.5735
15.5221	951.4649	66.5833
15.5223	950.833	66.593
15.5234	949.855	66.6028
15.52404	942.678	66.6125
15.5261	934.3385	66.6223
15.5252	941.184	66.63208
15.526	947.334	66.6418
15.5281	951.084	66.6516
15.529	946.7641	66.6614
15.5288	942.823	66.6711
15.5299	940.149	66.6809
15.5311	938.173	66.6907
15.532	942.492	66.7004
15.5322	948.324	66.7102
15.5327	949.072	66.72
15.5335	940.626	66.7297
15.543	-74.1822	66.7395
15.5421	-3.70313	66.7493
15.5424	-48.0212	66.759
15.5423	-30.4945	66.7688
15.5418	-45.014	66.7786
15.5426	-42.7918	66.78833
15.5425	-44.9078	66.7981
15.5424	-47.14249	66.8079
15.5422	-44.1957	66.8176
15.5445	-42.9352	66.8274
15.544	-32.8992	66.8372
15.5452	-37.13694	66.8469
15.5455	-42.9157	66.8567
15.5466	-47.0285	66.8665
15.5469	-48.3809	66.8762
15.54787	-41.5304	66.886
15.5494	-37.8567	66.8958
15.5497	-38.191	66.9055
15.5508	-38.2134	66.9153
15.5512	-43.0841	66.925
15.5514	-47.0856	66.9348
15.5524	-45.5118	66.94458
15.55396	-39.7121	66.9543
15.5541	-33.8336	66.9641
15.5554	-38.2141	66.9739
15.5564	-41.9147	66.9836
15.5572	-45.3953	66.9934
15.558	-47.3699	67.0032
15.5595	-41.0458	67.0129
15.5584	-39.8168	67.0227
15.56	-34.3628	67.0325
15.5605	-36.5431	67.0422
15.5608	-44.8179	67.052
15.5622	-47.3233	67.0618
15.5644	-45.2517	67.0715
15.56446	-38.53426	67.0813
15.565	-34.9378	67.0911
15.5652	-36.8659	67.10083
15.5661	-42.5259	67.1106
15.5684	-45.7987	67.1204
15.5667	-45.3297	67.1301
15.5691	-42.5998	67.1399
15.56916	-37.3682	67.1497
15.57097	-33.4297	67.1594
15.5713	-38.81345	67.1692
15.5722	-46.0676	67.179
15.5729	-47.9745	67.1887
15.5742	-42.8331	67.1985
15.5742	-35.6713	67.2083
15.5756	-35.7639	67.218
15.57649	-40.3726	67.2278
15.5767	-43.2088	67.2375
15.5781	-48.58009	67.2473
15.5785	-47.428	67.25708
15.5787	-38.8196	67.2668
15.5807	-35.47879	67.2766
15.5812	-35.1211	67.2864
15.5812	-43.2839	67.2961
15.5821	-49.7093	67.3059
15.58358	-45.5076	67.3157
15.5839	-41.9544	67.3254
15.5851	-36.1065	67.3352
15.5868	-34.549	67.345
15.5867	-42.1449	67.3547
15.5879	-45.3848	67.3645
15.5881	-48.2291	67.3743
15.5888	-42.1737	67.384
15.5892	-38.9324	67.3938
15.5911	-34.72419	67.4036
15.5919	-35.3495	67.41333
15.5916	-47.1285	67.4231
15.5926	-46.9701	67.4329
15.5941	-42.5226	67.4426
15.5955	-38.3488	67.4524
15.5956	-35.508	67.4622
15.5957	-38.9263	67.4719
15.5968	-40.3878	67.4817
15.5989	-44.7832	67.4915
15.5981	-47.4361	67.5012
15.5989	-41.7413	67.511
15.6011	-36.606	67.5208
15.5999	-35.7598	67.5305
15.6022	-38.9057	67.5403
15.6028	-44.7411	67.55
15.6045	-45.9529	67.5598
15.6047	-43.1199	67.56958
15.6054	-41.7782	67.5793
15.6064	-37.5597	67.5891
15.607	-37.1814	67.5989
15.6077	-41.0573	67.6086
15.6088	-45.3395	67.6184
15.609	-48.8069	67.6282
15.6101	-42.958	67.6379
15.6121	-35.6812	67.6477
15.6106	-38.4382	67.6575
15.6128	-39.51902	67.6672
15.6129	-44.5122	67.677
15.6139	-46.1576	67.6868
15.6157	-44.7706	67.6965
15.6156	-42.4054	67.7063
15.6173	-36.1294	67.7161
15.61729	-36.9053	67.72583
15.6172	-41.6383	67.7356
15.61971	-47.9332	67.7454
15.6189	-49.07386	67.7551
15.6207	-39.6639	67.7649
15.6215	-38.0491	67.7747
15.623	-36.5091	67.7844
15.6229	-40.5268	67.7942
15.6245	-46.21138	67.804
15.6237	-46.2669	67.8137
15.6246	-45.7931	67.8235
15.6264	-38.0436	67.8333
15.6274	-32.8395	67.843
15.6275	-38.382	67.8528
15.6293	-41.8798	67.8625
15.6307	-49.5092	67.8723
15.62967	-46.0306	67.88208
15.6307	-37.0758	67.8918
15.6321	-35.33	67.9016
15.63302	-36.5752	67.9114
15.6332	-41.9801	67.9211
15.6346	-46.11784	67.9309
15.635	-48.1343	67.9407
15.6356	-42.1755	67.9504
15.6374	-35.707	67.9602
15.6381	-34.3354	67.97
15.6385	-42.546	67.9797
15.6385	-47.1726	67.9895
15.6409	-49.3394	67.9993
15.6414	-43.5788	68.009
15.6432	-37.9001	68.0188
15.6427	-38.1165	68.0286
15.6436	-38.3706	68.03833
15.646	-43.397	68.0481
15.6449	-49.35107	68.0579
15.6462	-45.659	68.0676
15.6468	-41.8412	68.0774
15.6475	-35.2767	68.0872
15.6481	-35.10181	68.0969
15.6495	-45.3054	68.1067
15.6494	-46.5887	68.1165
15.6513	-46.0043	68.1262
15.6515	-42.6526	68.136
15.65279	-38.56794	68.1458
15.6535	-38.0139	68.1555
15.6544	-38.0534	68.1653
15.6546	-41.9781	68.175
15.6557	-47.04528	68.1848
15.6567	-45.8588	68.19458
15.6569	-37.7055	68.2043
15.6579	-34.7278	68.2141
15.658	-39.9441	68.2239
15.65971	-42.4888	68.2336
15.6607	-43.8324	68.2434
15.6611	-44.4487	68.2532
15.6626	-44.35228	68.2629
15.6629	-38.4936	68.2727
15.6635	-36.0946	68.2825
15.6641	-36.8629	68.2922
15.6647	-44.7217	68.302
15.6665	-47.8681	68.3118
15.6671	-43.0404	68.3215
15.6675	-38.2471	68.3313
15.6688	-35.6896	68.3411
15.6692	-37.30307	68.35083
15.67029	-42.52578	68.3606
15.6725	-45.125	68.3704
15.6726	-43.7053	68.3801
15.6729	-44.1507	68.3899
15.67337	-38.3142	68.3997
15.6737	-34.5608	68.4094
15.6754	-38.4157	68.4192
15.6761	-46.5914	68.429
15.6772	-49.0484	68.4387
15.6779	-40.8988	68.4485
15.67898	-37.5334	68.4583
15.6793	-34.3136	68.468
15.6803	-40.10165	68.4778
15.681	-43.1337	68.4875
15.68208	-46.0942	68.4973
15.6827	-47.6933	68.50708
15.6825	-40.3967	68.5168
15.68371	-33.9754	68.5266
15.6839	-34.3141	68.5364
15.68587	-40.8726	68.5461
15.6866	-49.0843	68.5559
15.68694	-44.6874	68.5657
15.6882	-40.4951	68.5754
15.6884	-36.7664	68.5852
15.6902	-36.8875	68.595
15.6907	-39.9634	68.6047
15.692	-44.5785	68.6145
15.69345	-47.86525	68.6243
15.6934	-45.1637	68.634
15.6936	-37.1735	68.6438
15.6949	-33.7194	68.6536
15.696	-39.2364	68.66333
15.6965	-44.6681	68.6731
15.6976	-48.0066	68.6829
15.6984	-43.817	68.6926
15.6984	-40.3643	68.7024
15.7001	-38.4969	68.7122
15.6995	-36.679	68.7219
15.7013	-40.285	68.7317
15.7023	-47.0088	68.7415
15.7033	-46.2126	68.7512
15.7044	-44.0032	68.761
15.7046	-36.4814	68.7708
15.704	-35.2995	68.7805
15.7075	-40.2115	68.7903
15.7071	-44.9966	68.8
15.7074	-46.4189	68.8098
15.7082	-43.6612	68.81958
15.7099	-41.1975	68.8293
15.7094	-38.2327	68.8391
15.7112	-36.2361	68.8489
15.7122	-41.44952	68.8586
15.714	-46.1479	68.8684
15.7132	-45.8966	68.8782
15.7149	-43.3545	68.8879
15.7157	-36.0052	68.8977
15.7169	-38.8652	68.9075
15.7158	-39.7218	68.9172