File: data/processed_data_files/tensile/0.254_hd_dimension_typeiv_090_r(6).dat
MTS793|BTW|ENU|1|2|.|/|:|1|0|0|A

Data Header:			0.254_hd_dimension_typeiv_090_r0			Time:	20.0178	s	4/14/2019 12:34:26 AM
Data Acquisition:	Timed
Station Name:	ft40.cfg
Test File Name:	monotonic_0.2540_typeiv_hd_090_dimension.tst
Displacement	Force	Running Time
mm	N	s
-40.04158	-190.726	0.0227051
-40.0406	-189.448	0.0422363
-40.0415	-185.779	0.0617676
-40.0401	-190.513	0.0812988
-40.0393	-187.658	0.10083
-40.0362	-186.1667	0.120361
-40.036	-185.351	0.139893
-40.0339	-187.035	0.159424
-40.032	-182.2541	0.178955
-40.0306	-181.329	0.198486
-40.0287	-184.757	0.218018
-40.0275	-182.797	0.237549
-40.02594	-178.103	0.25708
-40.0245	-178.923	0.276611
-40.0221	-181.949	0.296143
-40.0216	-174.62	0.315674
-40.01865	-177.088	0.335205
-40.0185	-177.014	0.354736
-40.0172	-172.859	0.374268
-40.0139	-170.786	0.393799
-40.0121	-177.541	0.41333
-40.0115	-168.379	0.432861
-40.00975	-168.7485	0.452393
-40.0089	-172.456	0.471924
-40.0054	-167.17	0.491455
-40.0047	-161.94	0.510986
-40.0018	-169.957	0.530518
-40.0009	-164.578	0.550049
-40.0006	-163.564	0.56958
-39.9975	-165	0.589111
-39.9962	-162.672	0.608643
-39.9948	-156.507	0.628174
-39.9937	-164.009	0.647705
-39.99152	-161.169	0.667236
-39.9903	-158.2951	0.686768
-39.989	-155.795	0.706299
-39.9867	-159.686	0.72583
-39.9851	-154.5752	0.745361
-39.98344	-153.34	0.764893
-39.982	-154.904	0.784424
-39.9798	-153.222	0.803955
-39.9791	-150.988	0.823486
-39.9759	-151.994	0.843018
-39.9754	-150.818	0.862549
-39.9745	-147.485	0.88208
-39.9725	-149.078	0.901611
-39.9714	-149.673	0.921143
-39.9683	-143.472	0.940674
-39.9665	-142.8	0.960205
-39.9654	-149.341	0.979736
-39.9638	-140.693	0.999268
-39.962	-141.967	1.0188
-39.9608	-142.798	1.03833
-39.9583	-137.844	1.05786
-39.9573	-135.903	1.07739
-39.9564	-144.835	1.09692
-39.9542	-136.499	1.11646
-39.9521	-134.071	1.13599
-39.9516	-137.32	1.15552
-39.9492	-133.22	1.17505
-39.9465	-128.555	1.19458
-39.946	-134.034	1.21411
-39.9448	-131.207	1.23364
-39.94371	-128.134	1.25317
-39.9408	-129.863	1.27271
-39.9397	-130.421	1.29224
-39.9378	-123.996	1.31177
-39.936	-129.088	1.3313
-39.9336	-127.267	1.35083
-39.9326	-123.644	1.37036
-39.9321	-120.936	1.38989
-39.9308	-124.686	1.40942
-39.9283	-121.436	1.42896
-39.926	-120.5266	1.44849
-39.9249	-120.314	1.46802
-39.9223	-118.7116	1.48755
-39.9219	-114.708	1.50708
-39.9202	-116.346	1.52661
-39.9181	-116.528	1.54614
-39.9181	-111.278	1.56567
-39.916	-114.0332	1.58521
-39.91338	-116.289	1.60474
-39.9125	-109.785	1.62427
-39.9106	-106.855	1.6438
-39.909	-115.039	1.66333
-39.9069	-107.405	1.68286
-39.90514	-107.831	1.70239
-39.9035	-107.666	1.72192
-39.9029	-103.84	1.74146
-39.8995	-100.438	1.76099
-39.9003	-110.92	1.78052
-39.8976	-101.886	1.80005
-39.8959	-98.9996	1.81958
-39.8935	-101.754	1.83911
-39.8928	-101.5296	1.85864
-39.8905	-95.9374	1.87817
-39.8878	-101.368	1.89771
-39.8873	-97.8339	1.91724
-39.8862	-95.5734	1.93677
-39.8853	-93.0363	1.9563
-39.8832	-97.3453	1.97583
-39.8808	-89.8154	1.99536
-39.8785	-91.9688	2.01489
-39.8773	-94.2102	2.03442
-39.8759	-90.77301	2.05396
-39.8747	-87.1046	2.07349
-39.8723	-89.6187	2.09302
-39.87112	-89.8461	2.11255
-39.8702	-88.23851	2.13208
-39.8692	-87.8223	2.15161
-39.8661	-86.1214	2.17114
-39.8655	-82.1925	2.19067
-39.8641	-83.8706	2.21021
-39.861	-86.0553	2.22974
-39.8597	-78.389	2.24927
-39.8581	-78.4571	2.2688
-39.8569	-82.1519	2.28833
-39.85471	-77.4485	2.30786
-39.85405	-72.7323	2.32739
-39.8529	-80.3283	2.34692
-39.8506	-72.2192	2.36646
-39.8484	-73.6342	2.38599
-39.8472	-74.0055	2.40552
-39.8444	-71.6732	2.42505
-39.8435	-65.1093	2.44458
-39.8412	-73.75045	2.46411
-39.8411	-68.6609	2.48364
-39.8383	-64.6979	2.50317
-39.83675	-64.7352	2.52271
-39.8356	-68.2099	2.54224
-39.8337	-62.6095	2.56177
-39.8328	-65.8256	2.5813
-39.8304	-64.3536	2.60083
-39.8285	-59.8371	2.62036
-39.8285	-58.7477	2.63989
-39.8263	-62.6212	2.65942
-39.8244	-58.29221	2.67896
-39.8226	-55.9222	2.69849
-39.8209	-59.04771	2.71802
-39.8197	-57.5082	2.73755
-39.81797	-54.0071	2.75708
-39.8159	-54.2015	2.77661
-39.8135	-57.6786	2.79614
-39.8126	-52.2826	2.81567
-39.8111	-51.2703	2.83521
-39.8091	-53.3763	2.85474
-39.8075	-46.6441	2.87427
-39.8058	-45.9625	2.8938
-39.8043	-53.9473	2.91333
-39.8034	-43.8497	2.93286
-39.8015	-43.534	2.95239
-39.80019	-47.7627	2.97192
-39.7986	-43.5493	2.99146
-39.7963	-38.7535	3.01099
-39.7947	-45.6298	3.03052
-39.7928	-40.6411	3.05005
-39.7921	-40.0018	3.06958
-39.7899	-40.6481	3.08911
-39.7882	-40.1128	3.10864
-39.787	-33.055	3.12817
-39.7858	-39.9905	3.14771
-39.784	-38.0125	3.16724
-39.7827	-33.511	3.18677
-39.7807	-32.92337	3.2063
-39.7773	-34.9183	3.22583
-39.77697	-29.6871	3.24536
-39.7749	-30.58	3.26489
-39.77338	-31.36912	3.28442
-39.7715	-28.6894	3.30396
-39.7707	-27.02692	3.32349
-39.7685	-29.2314	3.34302
-39.7673	-27.7492	3.36255
-39.7652	-22.8312	3.38208
-39.7639	-24.1614	3.40161
-39.7616	-26.24037	3.42114
-39.7609	-20.3933	3.44067
-39.75872	-18.9576	3.46021
-39.7573	-24.7051	3.47974
-39.7561	-18.8057	3.49927
-39.755	-19.2669	3.5188
-39.7532	-20.3769	3.53833
-39.7504	-14.3937	3.55786
-39.7493	-10.4747	3.57739
-39.7461	-21.7196	3.59692
-39.7464	-12.427	3.61646
-39.7431	-11.48168	3.63599
-39.7431	-13.339	3.65552
-39.7407	-12.1227	3.67505
-39.7405	-6.06627	3.69458
-39.7383	-13.3015	3.71411
-39.7367	-8.5998	3.73364
-39.7349	-5.3199	3.75317
-39.7341	-7.66342	3.77271
-39.7304	-8.89571	3.79224
-39.72995	-1.61444	3.81177
-39.7271	-5.21688	3.8313
-39.7262	-5.06508	3.85083
-39.7254	-1.08346	3.87036
-39.7237	2.48258	3.88989
-39.722	-1.635738	3.90942
-39.7203	0.849558	3.92896
-39.718	2.80628	3.94849
-39.7157	1.61396	3.96802
-39.7142	2.27218	3.98755
-39.7141	7.92742	4.00708
-39.7118	5.16245	4.02661
-39.71	4.31474	4.04614
-39.7078	10.3275	4.06567
-39.707	8.48978	4.08521
-39.7051	6.27045	4.10474
-39.7041	12.07856	4.12427
-39.7013	14.9564	4.1438
-39.6997	7.97396	4.16333
-39.69944	14.0499	4.18286
-39.6958	13.7279	4.20239
-39.6954	11.8098	4.22192
-39.69376	16.4977	4.24146
-39.69257	21.1689	4.26099
-39.6919	12.2556	4.28052
-39.688	18.2307	4.30005
-39.6872	22.7889	4.31958
-39.6865	21.0468	4.33911
-39.6841	20.0378	4.35864
-39.6822	25.9911	4.37817
-39.6813	20.1907	4.39771
-39.67865	23.2056	4.41724
-39.6774	27.0713	4.43677
-39.6759	26.6607	4.4563
-39.6748	25.851	4.47583
-39.67326	31.09	4.49536
-39.6706	27.9612	4.51489
-39.6692	28.3067	4.53442
-39.6671	30.7899	4.55396
-39.6664	34.062	4.57349
-39.6652	32.696	4.59302
-39.6646	31.6212	4.61255
-39.662	34.743	4.63208
-39.6594	34.7345	4.65161
-39.6574	36.0389	4.67114
-39.6565	40.2541	4.69067
-39.6549	39.2855	4.71021
-39.6538	35.2273	4.72974
-39.6519	42.7693	4.74927
-39.6505	42.6504	4.7688
-39.6479	39.84407	4.78833
-39.6471	44.1874	4.80786
-39.645	48.0304	4.82739
-39.6434	40.2215	4.84692
-39.6416	47.8745	4.86646
-39.6404	49.4179	4.88599
-39.6385	45.552	4.90552
-39.637	49.2337	4.92505
-39.6355	55.58572	4.94458
-39.6329	45.9185	4.96411
-39.6322	51.0701	4.98364
-39.63055	54.196	5.00317
-39.6278	55.4254	5.02271
-39.6275	53.4517	5.04224
-39.6262	57.2995	5.06177
-39.6254	55.1219	5.0813
-39.6236	56.8461	5.10083
-39.6196	59.7434	5.12036
-39.619	60.4518	5.13989
-39.6178	56.9978	5.15942
-39.6165	62.59325	5.17896
-39.6139	65.6155	5.19849
-39.613	61.6719	5.21802
-39.6117	62.3285	5.23755
-39.61026	67.4056	5.25708
-39.6072	67.5599	5.27661
-39.6063	64.9327	5.29614
-39.6054	69.1414	5.31567
-39.6028	67.8395	5.33521
-39.6009	66.2394	5.35474
-39.5994	72.8639	5.37427
-39.5978	74.3636	5.3938
-39.5971	67.16803	5.41333
-39.5951	76.0405	5.43286
-39.5931	77.0575	5.45239
-39.5929	73.3902	5.47192
-39.5895	76.7632	5.49146
-39.5877	80.3815	5.51099
-39.5877	74.2647	5.53052
-39.5854	80.3143	5.55005
-39.5829	83.5638	5.56958
-39.5819	78.8928	5.58911
-39.5799	81.1547	5.60864
-39.5786	88.1026	5.62817
-39.5758	80.8351	5.64771
-39.5741	82.9766	5.66724
-39.5742	87.1917	5.68677
-39.5711	88.8653	5.7063
-39.5693	85.3265	5.72583
-39.5682	90.4687	5.74536
-39.5663	87.9194	5.76489
-39.5655	89.1621	5.78442
-39.5643	92.0402	5.80396
-39.5632	95.9048	5.82349
-39.56	91.4017	5.84302
-39.5583	92.6452	5.86255
-39.5561	97.7262	5.88208
-39.5547	94.7357	5.90161
-39.5542	94.529	5.92114
-39.5524	99.9893	5.94067
-39.55024	100.8455	5.96021
-39.55	96.208	5.97974
-39.5478	101.928	5.99927
-39.5463	101.169	6.0188
-39.5439	99.6047	6.03833
-39.5434	104.858	6.05786
-39.5412	108.434	6.07739
-39.5395	100.13	6.09692
-39.5379	106.366	6.11646
-39.536	109.569	6.13599
-39.534	107.8754	6.15552
-39.5336	108.542	6.17505
-39.5323	114.859	6.19458
-39.5305	107.245	6.21411
-39.5276	112.639	6.23364
-39.526	115.536	6.25317
-39.5242	113.673	6.27271
-39.5218	112.406	6.29224
-39.521	120.5112	6.31177
-39.52095	114.894	6.3313
-39.5184	114.767	6.35083
-39.5159	118.425	6.37036
-39.5141	121.918	6.38989
-39.5145	118.05	6.40942
-39.5119	121.553	6.42896
-39.5101	122.2999	6.44849
-39.5085	122.35	6.46802
-39.5066	123.695	6.48755
-39.5053	128.062	6.50708
-39.5028	123.465	6.52661
-39.5011	124.996	6.54614
-39.5002	130.394	6.56567
-39.4985	129.0542	6.58521
-39.497	125.437	6.60474
-39.4959	130.15	6.62427
-39.4949	134.246	6.6438
-39.4923	129.106	6.66333
-39.4914	133.5282	6.68286
-39.4891	134.615	6.70239
-39.487	131.105	6.72192
-39.48568	134.973	6.74146
-39.4843	140.898	6.76099
-39.4817	131.733	6.78052
-39.481	137.381	6.80005
-39.4791	141.855	6.81958
-39.4771	139.845	6.83911
-39.4753	139.035	6.85864
-39.4752	146.555	6.87817
-39.47184	140.152	6.89771
-39.4712	142.515	6.91724
-39.4689	146.279	6.93677
-39.46772	146.273	6.9563
-39.4657	144.338	6.97583
-39.4644	150.869	6.99536
-39.4626	148.7332	7.01489
-39.46217	146.519	7.03442
-39.4603	149.513	7.05396
-39.4575	152.803	7.07349
-39.45541	150.506	7.09302
-39.4552	152.279	7.11255
-39.4543	153.739	7.13208
-39.45113	152.278	7.15161
-39.4502	154.597	7.17114
-39.4493	158.571	7.19067
-39.4469	158.892	7.21021
-39.4451	154.757	7.22974
-39.4436	160.456	7.24927
-39.4402	161.438	7.2688
-39.4385	159.075	7.28833
-39.4377	161.187	7.30786
-39.4365	167.12	7.32739
-39.4363	160.14	7.34692
-39.4339	166.403	7.36646
-39.4309	166.731	7.38599
-39.4301	164.765	7.40552
-39.4294	165.963	7.42505
-39.4267	173.399	7.44458
-39.4259	164.469	7.46411
-39.4239	167.006	7.48364
-39.42165	172.663	7.50317
-39.4204	172.584	7.52271
-39.4196	169.881	7.54224
-39.4174	177.853	7.56177
-39.4156	171.957	7.5813
-39.4143	173.941	7.60083
-39.4128	177.0954	7.62036
-39.41	178.781	7.63989
-39.4097	174.112	7.65942
-39.40712	180.894	7.67896
-39.4062	179.902	7.69849
-39.4039	179.488	7.71802
-39.402	179.729	7.73755
-39.4025	185.089	7.75708
-39.3995	182.689	7.77661
-39.398	180.925	7.79614
-39.3956	185.285	7.81567
-39.3944	184.599	7.83521
-39.3936	182.463	7.85474
-39.3912	190.623	7.87427
-39.3898	190.745	7.8938
-39.38855	183.626	7.91333
-39.3866	189.8308	7.93286
-39.3847	193.502	7.95239
-39.3833	189.561	7.97192
-39.3823	193.118	7.99146
-39.3801	197.563	8.01099
-39.3784	189.937	8.03052
-39.3771	195.66	8.05005
-39.3756	198.3	8.06958
-39.3735	196.276	8.08911
-39.3709	195.739	8.10864
-39.3706	203.943	8.12817
-39.3691	196.136	8.14771
-39.3658	198.927	8.16724
-39.3651	202.227	8.18677
-39.3641	204.9304	8.2063
-39.3625	200.385	8.22583
-39.3599	205.8705	8.24536
-39.3601	202.399	8.26489
-39.35677	204.091	8.28442
-39.3554	205.98	8.30396
-39.35387	211.428	8.32349
-39.3523	205.541	8.34302
-39.3505	208.288	8.36255
-39.3493	212.04	8.38208
-39.3476	210.071	8.40161
-39.346	206.928	8.42114
-39.34457	213.801	8.44067
-39.3415	214.873	8.46021
-39.3407	212.01	8.47974
-39.3397	217.173	8.49927
-39.3382	218.977	8.5188
-39.3356	214.198	8.53833
-39.335	220.8645	8.55786
-39.3326	224.013	8.57739
-39.3308	214.356	8.59692
-39.3294	219.728	8.61646
-39.3274	223.686	8.63599
-39.32708	221.964	8.65552
-39.32436	223.249	8.67505
-39.3233	228.079	8.69458
-39.3215	219.901	8.71411
-39.31879	227.286	8.73364
-39.31773	229.768	8.75317
-39.3168	227.706	8.77271
-39.3153	226.068	8.79224
-39.3133	233.12	8.81177
-39.3105	229.186	8.8313
-39.3101	229.1693	8.85083
-39.3084	231.3582	8.87036
-39.3072	236.4303	8.88989
-39.3055	231.92	8.90942
-39.3031	235.643	8.92896
-39.3021	235.558	8.94849
-39.2999	234.497	8.96802
-39.2989	236.473	8.98755
-39.2962	241.24	9.00708
-39.2959	237.965	9.02661
-39.2942	235.975	9.04614
-39.2922	241.835	9.06567
-39.2897	242.574	9.08521
-39.288	240.568	9.10474
-39.28751	244.823	9.12427
-39.2858	247.438	9.1438
-39.2845	239.6442	9.16333
-39.28215	246.43	9.18286
-39.2815	247.787	9.20239
-39.2789	244.084	9.22192
-39.27737	247.404	9.24146
-39.2755	253.466	9.26099
-39.274	244.376	9.28052
-39.2732	249.189	9.30005
-39.2715	253.894	9.31958
-39.2692	251.893	9.33911
-39.26836	251.267	9.35864
-39.265	257.183	9.37817
-39.2649	250.933	9.39771
-39.2636	254.458	9.41724
-39.2609	257.041	9.43677
-39.2597	258.0033	9.4563
-39.258	253.477	9.47583
-39.2561	260.663	9.49536
-39.25528	258.99	9.51489
-39.2539	258.563	9.53442
-39.2512	259.734	9.55396
-39.2498	265.247	9.57349
-39.2479	261.1098	9.59302
-39.2458	262.9147	9.61255
-39.2449	266.314	9.63208
-39.2434	263.67	9.65161
-39.2407	263.312	9.67114
-39.2403	269.051	9.69067
-39.2384	267.463	9.71021
-39.23748	262.596	9.72974
-39.2356	271.233	9.74927
-39.2337	272.5423	9.7688
-39.2328	268.458	9.78833
-39.2301	271.613	9.80786
-39.22871	275.389	9.82739
-39.2258	267.4657	9.84692
-39.2257	273.898	9.86646
-39.2235	275.713	9.88599
-39.2216	272.112	9.90552
-39.2214	274.8277	9.92505
-39.2184	284.95	9.94458
-39.2158	273.561	9.96411
-39.2158	277.454	9.98364
-39.2127	281.587	10.0032
-39.2126	280.887	10.0227
-39.21143	279.606	10.0422
-39.2089	285.7648	10.0618
-39.20784	280.343	10.0813
-39.20541	281.971	10.10083
-39.2044	285.924	10.1204
-39.2029	287.711	10.1399
-39.2013	282.0383	10.1594
-39.1997	287.1998	10.179
-39.1986	287.828	10.1985
-39.1953	286.66	10.218
-39.19463	286.255	10.2375
-39.1933	291.8107	10.25708
-39.1913	289.802	10.2766
-39.1898	289.306	10.2961
-39.1884	292.339	10.3157
-39.1862	292.188	10.3352
-39.185	291.324	10.3547
-39.1823	297.466	10.3743
-39.181	298.742	10.3938
-39.1794	290.764	10.41333
-39.179	296.839	10.4329
-39.1771	298.997	10.4524
-39.1758	294.818	10.4719
-39.1721	299.155	10.4915
-39.1717	302.408	10.511
-39.1703	294.917	10.5305
-39.1675	300.867	10.55
-39.1677	305.893	10.56958
-39.16465	300.006	10.5891
-39.1646	300.536	10.6086
-39.1623	307.403	10.6282
-39.16011	302.259	10.6477
-39.15934	301.927	10.6672
-39.15678	308.286	10.6868
-39.1546	308.283	10.7063
-39.1539	305.091	10.72583
-39.15271	311.794	10.7454
-39.1502	309.032	10.7649
-39.1497	308.69	10.7844
-39.1467	310.666	10.804
-39.14761	313.632	10.8235
-39.1436	309.359	10.843
-39.14283	311.161	10.8625
-39.1404	313.776	10.88208
-39.1393	314.194	10.9016
-39.1381	313.791	10.9211
-39.1357	317.942	10.9407
-39.1347	316.266	10.9602
-39.1333	314.285	10.9797
-39.13279	318.939	10.9993
-39.1297	318.641	11.0188
-39.1279	315.341	11.03833
-39.1255	321.5148	11.0579
-39.1238	325.643	11.0774
-39.1229	315.241	11.0969
-39.1208	320	11.1165
-39.1193	324.359	11.136
-39.11834	322.735	11.1555
-39.1172	322.853	11.175
-39.115	328.28	11.19458
-39.1136	320.543	11.2141
-39.1109	326.381	11.2336
-39.1094	330.341	11.2532
-39.1087	328.248	11.2727
-39.1066	325.2901	11.2922
-39.1054	331.54	11.3118
-39.1029	327.406	11.3313
-39.1029	328.009	11.35083
-39.0994	330.323	11.3704
-39.09824	334.225	11.3899
-39.0972	329.889	11.4094
-39.0947	334.798	11.429
-39.0936	334.11	11.4485
-39.0914	332.396	11.468
-39.0905	334.336	11.4875
-39.0893	340.1568	11.50708
-39.0877	335.387	11.5266
-39.0853	332.779	11.5461
-39.0835	338.5011	11.5657
-39.0822	339.893	11.5852
-39.0802	337.857	11.6047
-39.0791	340.776	11.6243
-39.0777	342.681	11.6438
-39.0756	336.391	11.66333
-39.0749	343.521	11.6829
-39.0729	343.649	11.7024
-39.0713	340.799	11.7219
-39.0695	343.8035	11.7415
-39.067	351.0459	11.761
-39.0657	341.719	11.7805
-39.0633	343.35	11.8
-39.0633	349.575	11.81958
-39.0608	345.862	11.8391
-39.0601	346.5239	11.8586
-39.05751	353.059	11.8782
-39.0562	344.646	11.8977
-39.0551	347.89	11.9172
-39.0537	352.416	11.9368
-39.0521	352.9	11.9563
-39.0488	347.087	11.97583
-39.0487	354.743	11.9954
-39.0459	352.3671	12.0149
-39.04454	352.01	12.0344
-39.0434	353.445	12.054
-39.0416	357.011	12.0735
-39.0397	354.655	12.093
-39.03788	354.971	12.1125
-39.037	356.088	12.13208
-39.0356	356.123	12.1516
-39.0341	355.091	12.1711
-39.0325	360.431	12.1907
-39.0292	360.547	12.2102
-39.0277	355.342	12.2297
-39.0273	361.141	12.2493
-39.024	362.738	12.2688
-39.0236	358.059	12.28833
-39.0225	362.915	12.3079
-39.0203	365.34	12.3274
-39.0183	358.444	12.3469
-39.018	364.286	12.3665
-39.0149	367.602	12.386
-39.0144	361.585	12.4055
-39.0113	362.87	12.425
-39.0107	370.68	12.44458
-39.008	362.755	12.4641
-39.0077	364.102	12.4836
-39.0062	368.249	12.5032
-39.0036	368.042	12.5227
-39.0021	365.579	12.5422
-39.001	373.7114	12.5618
-38.9996	367.741	12.5813
-38.9973	368.861	12.60083
-38.996	372.661	12.6204
-38.9946	374.458	12.6399
-38.9918	368.646	12.6594
-38.9918	372.642	12.679
-38.9892	375.723	12.6985
-38.9883	374.858	12.718
-38.9868	372.169	12.7375
-38.9835	379.924	12.75708
-38.983	375.204	12.7766
-38.9809	375.971	12.7961
-38.9802	377.95	12.8157
-38.9787	378.434	12.8352
-38.9772	374.503	12.8547
-38.9739	382.514	12.8743
-38.97298	381.6308	12.8938
-38.9714	375.07	12.91333
-38.9704	381.215	12.9329
-38.9688	383.6109	12.9524
-38.9666	378.923	12.9719
-38.9646	380.9725	12.9915
-38.9633	385.022	13.011
-38.9622	378.521	13.0305
-38.9602	383.38	13.05
-38.9583	386.891	13.06958
-38.9562	383.881	13.0891
-38.9553	383.212	13.1086
-38.9535	392.302	13.1282
-38.9523	383.292	13.1477
-38.9511	385.393	13.1672
-38.9489	388.824	13.1868
-38.9472	389.822	13.2063
-38.9457	385.649	13.22583
-38.9434	392.454	13.2454
-38.9417	388.742	13.2649
-38.9412	389.489	13.2844
-38.9386	390.061	13.304
-38.9369	395.089	13.3235
-38.936	389.141	13.343
-38.9339	390.678	13.3625
-38.9329	393.195	13.38208
-38.9313	393.398	13.4016
-38.9297	390.367	13.4211
-38.928	397.044	13.4407
-38.9257	395.638	13.4602
-38.925	392.641	13.4797
-38.9217	396.294	13.4993
-38.921	397.075	13.5188
-38.9197	392.655	13.53833
-38.9183	398.526	13.5579
-38.9173	401.357	13.5774
-38.9144	393.334	13.5969
-38.91312	397.367	13.6165
-38.9117	401.079	13.636
-38.909	398.263	13.6555
-38.9077	399.683	13.675
-38.906	404.568	13.69458
-38.905	395.93	13.7141
-38.90451	399.483	13.7336
-38.9014	404.586	13.7532
-38.8999	402.101	13.7727
-38.8983	400.545	13.7922
-38.8966	406.887	13.8118
-38.89447	402.568	13.8313
-38.893	402.936	13.85083
-38.893	404.715	13.8704
-38.8901	408.173	13.8899
-38.8886	403.184	13.9094
-38.8864	407.55	13.929
-38.8854	407.132	13.9485
-38.8838	405.865	13.968
-38.8817	405.866	13.9875
-38.8807	412.003	14.00708
-38.8803	407.334	14.0266
-38.8775	406.231	14.0461
-38.8744	411.441	14.0657
-38.8741	410.433	14.0852
-38.8729	407.073	14.1047
-38.8704	411.737	14.1243
-38.8681	412.405	14.1438
-38.86676	407.239	14.16333
-38.8658	412.508	14.1829
-38.864	413.066	14.2024
-38.8629	410.13	14.2219
-38.8601	414.046	14.2415
-38.8596	419.177	14.261
-38.8587	409.217	14.2805
-38.8556	413.955	14.3
-38.8539	416.6557	14.31958
-38.8519	414.332	14.3391
-38.8515	414.27	14.3586
-38.8493	420.82	14.3782
-38.8474	414.582	14.3977
-38.8466	414.021	14.4172
-38.8444	420.114	14.4368
-38.8445	419.995	14.4563
-38.8411	414.019	14.47583
-38.8401	421.96	14.4954
-38.8386	420.043	14.5149
-38.8367	416.493	14.5344
-38.8354	417.796	14.554
-38.83342	424.692	14.5735
-38.8325	417.599	14.593
-38.8298	420.393	14.6125
-38.8283	421.9137	14.63208
-38.8267	420.716	14.6516
-38.8239	418.97	14.6711
-38.8232	425.518	14.6907
-38.8216	423.661	14.7102
-38.8202	419.624	14.7297
-38.8177	422.615	14.7493
-38.818	424.516	14.7688
-38.8157	420.318	14.78833
-38.8142	424.039	14.8079
-38.8117	426.787	14.8274
-38.8103	419.926	14.8469
-38.8086	426.316	14.8665
-38.8067	428.644	14.886
-38.8055	422.3511	14.9055
-38.8044	423.61	14.925
-38.8026	431.7934	14.94458
-38.8008	422.948	14.9641
-38.79911	425.789	14.9836
-38.7976	428.607	15.0032
-38.7962	428.789	15.0227
-38.7947	425.802	15.0422
-38.7924	432.543	15.0618
-38.7924	425.691	15.0813
-38.7903	425.77	15.10083
-38.78828	431.032	15.1204
-38.7869	432.904	15.1399
-38.7838	427.131	15.1594
-38.7832	431.737	15.179
-38.7801	431.426	15.1985
-38.7797	430.16	15.218
-38.7775	430.8259	15.2375
-38.7752	434.162	15.25708
-38.774	432.04	15.2766
-38.7728	429.2897	15.2961
-38.7717	434.017	15.3157
-38.76952	433.233	15.3352
-38.7681	427.544	15.3547
-38.7658	434.791	15.3743
-38.7652	438.766	15.3938
-38.7633	427.958	15.41333
-38.7618	433.764	15.4329
-38.76054	436.369	15.4524
-38.7577	431.597	15.4719
-38.7562	433.676	15.4915
-38.7546	438.613	15.511
-38.753	429.8974	15.5305
-38.7526	434.247	15.55
-38.75008	439.223	15.56958
-38.7489	433.789	15.5891
-38.7474	434.34	15.6086
-38.7452	441.2684	15.6282
-38.7426	433.5632	15.6477
-38.7413	436.623	15.6672
-38.7404	437.099	15.6868
-38.7397	437.05	15.7063
-38.7372	434.995	15.72583
-38.7356	440.5976	15.7454
-38.7339	436.276	15.7649
-38.7322	435.053	15.7844
-38.7309	439.061	15.804
-38.7295	442.804	15.8235
-38.7271	436.758	15.843
-38.7255	437.408	15.8625
-38.7233	439.9379	15.88208
-38.7215	439.099	15.9016
-38.7208	436.458	15.9211
-38.7202	440.819	15.9407
-38.718	438.653	15.9602
-38.7161	436.985	15.9797
-38.7137	441.332	15.9993
-38.713	440.969	16.0188
-38.7115	436.027	16.03833
-38.7101	441.657	16.0579
-38.7077	446.975	16.0774
-38.7073	436.196	16.0969
-38.7042	441.474	16.1165
-38.7037	445.15	16.136
-38.70179	440.509	16.1555
-38.7002	443.109	16.175
-38.6984	447.118	16.19458
-38.6963	438.59	16.2141
-38.6952	441.826	16.2336
-38.69331	446.8	16.2532
-38.6916	444.244	16.2727
-38.6905	440.427	16.2922
-38.68816	447.67	16.3118
-38.6867	443.692	16.3313
-38.6852	441.806	16.35083
-38.683	444.144	16.3704
-38.682	447.77	16.3899
-38.6804	441.806	16.4094
-38.6783	445.452	16.429
-38.6768	446.091	16.4485
-38.6755	443.988	16.468
-38.6735	443.476	16.4875
-38.6711	451.551	16.50708
-38.6703	444.364	16.5266
-38.6688	443.389	16.5461
-38.6674	446.692	16.5657
-38.6654	448.105	16.5852
-38.6645	442.7988	16.6047
-38.6612	449.2157	16.6243
-38.6612	448.288	16.6438
-38.6592	441.822	16.66333
-38.6577	447.168	16.6829
-38.6553	450.2081	16.7024
-38.6543	443.615	16.7219
-38.653	446.1	16.7415
-38.6515	451.671	16.761
-38.6489	442.842	16.7805
-38.6482	445.482	16.8
-38.6464	449.711	16.81958
-38.6446	447.343	16.8391
-38.6419	445.901	16.8586
-38.6418	452.721	16.8782
-38.64	443.77	16.8977
-38.6381	445.946	16.9172
-38.6368	450.584	16.9368
-38.6348	451.335	16.9563
-38.6326	444.506	16.97583
-38.6315	450.294	16.9954
-38.6309	447.454	17.0149
-38.6282	446.897	17.0344
-38.6272	448.537	17.054
-38.6242	450.665	17.0735
-38.6238	446.384	17.093
-38.6212	448.226	17.1125
-38.6209	449.651	17.13208
-38.617	447.861	17.1516
-38.61742	445.524	17.1711
-38.6156	452.561	17.1907
-38.6131	450.451	17.2102
-38.612	446.809	17.2297
-38.61	449.118	17.2493
-38.6087	450.763	17.2688
-38.6077	444.602	17.28833
-38.6056	450.13	17.3079
-38.6033	451.097	17.3274
-38.6028	441.997	17.3469
-38.60004	449.8963	17.3665
-38.599	450.814	17.386
-38.5979	446.533	17.4055
-38.5966	446.708	17.425
-38.5935	454.565	17.44458
-38.5921	445.39	17.4641
-38.5909	447.535	17.4836
-38.5898	450.677	17.5032
-38.5872	449.384	17.5227
-38.5865	445.932	17.5422
-38.5839	454.741	17.5618
-38.5836	447.3819	17.5813
-38.57943	447.975	17.60083
-38.57991	450.204	17.6204
-38.57877	452.721	17.6399
-38.5756	445.245	17.6594
-38.5747	451.093	17.679
-38.5728	450.617	17.6985
-38.5712	448.198	17.718
-38.569	447.095	17.7375
-38.5684	451.52	17.75708
-38.5663	448.784	17.7766
-38.5656	446.553	17.7961
-38.5635	451.103	17.8157
-38.5612	449.884	17.8352
-38.5591	444.631	17.8547
-38.5582	451.797	17.8743
-38.5573	452.429	17.8938
-38.5558	444.406	17.91333
-38.55386	449.386	17.9329
-38.55162	449.72	17.9524
-38.5504	447.661	17.9719
-38.5487	450.704	17.9915
-38.5461	452.712	18.011
-38.5439	443.054	18.0305
-38.5433	447.467	18.05
-38.5424	453.422	18.06958
-38.54	445.958	18.0891
-38.5375	443.155	18.1086
-38.53722	452.031	18.1282
-38.5356	445.629	18.1477
-38.5345	446.3024	18.1672
-38.5318	450.388	18.1868
-38.5301	449.8078	18.2063
-38.5294	445.966	18.22583
-38.5273	451.888	18.2454
-38.5262	446.884	18.2649
-38.5235	444.752	18.2844
-38.5229	446.431	18.304
-38.5211	452.718	18.3235
-38.519	447.627	18.343
-38.5178	446.812	18.3625
-38.51437	448.83	18.38208
-38.5146	449.2262	18.4016
-38.5135	444.685	18.4211
-38.511	452.573	18.4407
-38.5099	448.169	18.4602
-38.5074	444.643	18.4797
-38.506	449.748	18.4993
-38.5044	448.201	18.5188
-38.5027	443.027	18.53833
-38.5014	447.479	18.5579
-38.5007	451.445	18.5774
-38.4986	442.4429	18.5969
-38.49728	446.455	18.6165
-38.4951	448.14	18.636
-38.4929	445.0936	18.6555
-38.4916	445.934	18.675
-38.4897	451.397	18.69458
-38.488	440.393	18.7141
-38.4866	445.097	18.7336
-38.4848	449.631	18.7532
-38.4836	446.193	18.7727
-38.4807	441.178	18.7922
-38.48	449.42	18.8118
-38.4796	445.447	18.8313
-38.4758	443.772	18.85083
-38.4757	444.817	18.8704
-38.4742	447.7681	18.8899
-38.4719	442.493	18.9094
-38.4704	446.781	18.929
-38.4686	445.033	18.9485
-38.4679	441.077	18.968
-38.4652	443.194	18.9875
-38.4639	449.89	19.00708
-38.4623	443.618	19.0266
-38.4597	442.181	19.0461
-38.4594	445.193	19.0657
-38.4572	444.629	19.0852
-38.4556	440.942	19.1047
-38.4543	447.07	19.1243
-38.453	446.47	19.1438
-38.45063	438.58	19.16333
-38.4493	445.169	19.1829
-38.4476	447.486	19.2024
-38.4462	440.999	19.2219
-38.44326	443.447	19.2415
-38.4419	448.739	19.261
-38.4401	440.91	19.2805
-38.4386	442.735	19.3
-38.4377	446.004	19.31958
-38.4357	442.669	19.3391
-38.4357	441.48	19.3586
-38.432	449.625	19.3782
-38.4309	437.777	19.3977
-38.4287	439.878	19.4172
-38.4288	444.724	19.4368
-38.4269	444.829	19.4563
-38.4253	440.168	19.47583
-38.4234	445.363	19.4954
-38.42094	442.163	19.5149
-38.4204	441.205	19.5344
-38.41856	442.061	19.554
-38.4154	446.849	19.5735
-38.4154	439.901	19.593
-38.413	443.152	19.6125
-38.4118	444.602	19.63208
-38.4104	440.399	19.6516
-38.4083	438.5976	19.6711
-38.4069	444.2359	19.6907
-38.4044	443.498	19.7102
-38.4032	437.209	19.7297
-38.4026	440.127	19.7493
-38.40099	441.158	19.7688
-38.3988	438.005	19.78833
-38.3969	441.813	19.8079
-38.3969	442.687	19.8274
-38.39452	435.052	19.8469
-38.3926	440.927	19.8665
-38.3901	444.768	19.886
-38.3898	437.356	19.9055
-38.3878	438.176	19.925
-38.387	445.367	19.94458
-38.3842	437.491	19.9641
-38.3829	439.093	19.9836
-38.3806	442.367	20.0032
-38.3808	443.098	20.0129

Data Header:			0.254_hd_dimension_typeiv_090_r0			Time:	27.5708	s	4/14/2019 12:34:33 AM
Data Acquisition:	Timed
Station Name:	ft40.cfg
Test File Name:	monotonic_0.2540_typeiv_hd_090_dimension.tst
Displacement	Force	Running Time
mm	N	s
-38.3804	441.15	20.0227
-38.3784	435.875	20.0325
-38.378	435.637	20.0422
-38.3769	439.0087	20.052
-38.3758	445.102	20.0618
-38.3747	443.473	20.0715
-38.3758	436.778	20.0813
-38.3733	438.846	20.0911
-38.37376	437.574	20.10083
-38.37191	439.289	20.1106
-38.3706	440.36	20.1204
-38.3702	441.608	20.1301
-38.3692	443.54	20.1399
-38.3689	438.262	20.1497
-38.3687	438.326	20.1594
-38.3662	438.014	20.1692
-38.3665	439.349	20.179
-38.3658	444.163	20.1887
-38.3633	439.838	20.1985
-38.364	439.086	20.2083
-38.3622	437.9187	20.218
-38.3624	436.71	20.2278
-38.3615	438.272	20.2375
-38.3607	439.222	20.2473
-38.3594	441.652	20.25708
-38.3591	444.593	20.2668
-38.3576	439.0206	20.2766
-38.3566	436.055	20.2864
-38.3567	436.033	20.2961
-38.3561	438.745	20.3059
-38.3536	441.604	20.3157
-38.3556	441.75	20.3254
-38.3524	441.346	20.3352
-38.35183	436.926	20.345
-38.3516	434.759	20.3547
-38.3516	436.475	20.3645
-38.3494	440.375	20.3743
-38.349	444.084	20.384
-38.3484	440.95	20.3938
-38.3474	435.157	20.4036
-38.3475	434.49	20.41333
-38.3457	438.468	20.4231
-38.3452	438.929	20.4329
-38.344	442.9	20.4426
-38.3448	440.9967	20.4524
-38.3434	437.553	20.4622
-38.3422	434.942	20.4719
-38.3418	432.557	20.4817
-38.3401	438.926	20.4915
-38.33931	442.379	20.5012
-38.338	442.173	20.511
-38.3376	437.7894	20.5208
-38.3368	432.961	20.5305
-38.3366	436.181	20.5403
-38.33543	436.433	20.55
-38.3344	440.223	20.5598
-38.334	440.843	20.56958
-38.3334	440.555	20.5793
-38.3312	437.252	20.5891
-38.3311	433.302	20.5989
-38.3305	434.624	20.6086
-38.3298	439.771	20.6184
-38.3302	442.42	20.6282
-38.3278	440.0322	20.6379
-38.3264	435.093	20.6477
-38.3254	433.942	20.6575
-38.3245	436.898	20.6672
-38.3246	438.432	20.677
-38.3242	439.1105	20.6868
-38.32291	442.219	20.6965
-38.3216	438.99	20.7063
-38.3215	434.814	20.7161
-38.32082	434.032	20.72583
-38.3193	435.347	20.7356
-38.3181	440.563	20.7454
-38.3188	439.436	20.7551
-38.3174	435.352	20.7649
-38.3165	437.966	20.7747
-38.31572	434.745	20.7844
-38.3157	436.052	20.7942
-38.3146	436.92	20.804
-38.3136	438.005	20.8137
-38.3118	441.257	20.8235
-38.3108	436.752	20.8333
-38.31078	436.875	20.843
-38.3101	432.0878	20.8528
-38.3088	437.354	20.8625
-38.3091	440.72	20.8723
-38.3075	439.281	20.88208
-38.3073	438.929	20.8918
-38.3061	437.088	20.9016
-38.30518	433.429	20.9114
-38.3043	434.344	20.9211
-38.3052	434.438	20.9309
-38.3026	439.406	20.9407
-38.3012	441.7868	20.9504
-38.3011	437.774	20.9602
-38.3001	433.24	20.97
-38.2996	432.217	20.9797
-38.2979	437.315	20.9895
-38.2966	438.504	20.9993
-38.2974	439.525	21.009
-38.2964	438.2926	21.0188
-38.2947	436.828	21.0286
-38.2943	431.293	21.03833
-38.2945	431.839	21.0481
-38.2932	436.5072	21.0579
-38.2921	442.904	21.0676
-38.2908	440.786	21.0774
-38.2908	433.538	21.0872
-38.2905	432.134	21.0969
-38.288	433.4809	21.1067
-38.2886	435.257	21.1165
-38.287	442.039	21.1262
-38.2865	437.828	21.136
-38.2852	437.288	21.1458
-38.2851	433.195	21.1555
-38.285	429.233	21.1653
-38.2827	434.966	21.175
-38.2817	439.688	21.1848
-38.2819	442.544	21.19458
-38.2814	435.909	21.2043
-38.2796	431.492	21.2141
-38.2789	433.43	21.2239
-38.2795	432.735	21.2336
-38.2784	437.097	21.2434
-38.2762	438.849	21.2532
-38.277	438.455	21.2629
-38.2749	436.439	21.2727
-38.2736	431.085	21.2825
-38.2738	433.2337	21.2922
-38.2727	436.363	21.302
-38.272	439.099	21.3118
-38.2716	438.506	21.3215
-38.2692	433.255	21.3313
-38.2693	431.588	21.3411
-38.2681	433.954	21.35083
-38.26804	434.79	21.3606
-38.2672	437.633	21.3704
-38.2664	438.326	21.3801
-38.2654	436.652	21.3899
-38.2639	434.756	21.3997
-38.2627	432.074	21.4094
-38.2618	431.675	21.4192
-38.2619	437.384	21.429
-38.2612	438.7244	21.4387
-38.2604	436.564	21.4485
-38.2601	435.862	21.4583
-38.2586	434.554	21.468
-38.2581	435.179	21.4778
-38.2574	433.875	21.4875
-38.2573	435.164	21.4973
-38.2556	439.074	21.50708
-38.25589	437.01	21.5168
-38.2543	435.106	21.5266
-38.25346	429.511	21.5364
-38.2521	431.796	21.5461
-38.2525	437.637	21.5559
-38.2513	436.507	21.5657
-38.25013	440.23	21.5754
-38.2491	435.634	21.5852
-38.2472	433.2941	21.595
-38.2474	433.094	21.6047
-38.2452	431.089	21.6145
-38.246	437.754	21.6243
-38.2447	441.053	21.634
-38.24472	437.053	21.6438
-38.2421	432.576	21.6536
-38.2434	430.909	21.66333
-38.2418	434.9606	21.6731
-38.242	435.857	21.6829
-38.2396	438.831	21.6926
-38.2391	437.5878	21.7024
-38.2382	435.6427	21.7122
-38.238	431.741	21.7219
-38.2374	429.568	21.7317
-38.2355	433.283	21.7415
-38.2347	440.029	21.7512
-38.23407	439.394	21.761
-38.2335	435.028	21.7708
-38.2323	431.884	21.7805
-38.232	431.53	21.7903
-38.2303	433.755	21.8
-38.231	437.818	21.8098
-38.229	436.595	21.81958
-38.229	437.472	21.8293
-38.22821	433.456	21.8391
-38.2269	427.081	21.8489
-38.2261	431.806	21.8586
-38.226	435.591	21.8684
-38.2244	440.656	21.8782
-38.2245	436.686	21.8879
-38.2215	431.223	21.8977
-38.2227	432.449	21.9075
-38.2209	429.79	21.9172
-38.2196	434.201	21.927
-38.2194	436.654	21.9368
-38.2186	435.216	21.9465
-38.2186	435.863	21.9563
-38.2169	429.657	21.9661
-38.2159	431.004	21.97583
-38.2162	432.432	21.9856
-38.21497	436.144	21.9954
-38.2135	436.545	22.0051
-38.2133	434.424	22.0149
-38.2128	432.218	22.0247
-38.2122	431.5878	22.0344
-38.2112	430.962	22.0442
-38.2094	434.3851	22.054
-38.2095	435.446	22.0637
-38.2091	437.059	22.0735
-38.2065	434.927	22.0833
-38.2068	430.192	22.093
-38.205	428.983	22.1028
-38.2064	434.271	22.1125
-38.2049	435.703	22.1223
-38.2036	435.5	22.13208
-38.202	435.7309	22.1418
-38.2023	431.734	22.1516
-38.2007	433.202	22.1614
-38.2005	429.472	22.1711
-38.19997	432.395	22.1809
-38.199	436.426	22.1907
-38.19828	437.887	22.2004
-38.1972	433.7944	22.2102
-38.1955	427.456	22.22
-38.1954	429.956	22.2297
-38.19371	434.045	22.2395
-38.1926	434.204	22.2493
-38.1925	438.352	22.259
-38.192	434.532	22.2688
-38.1914	432.702	22.2786
-38.1907	429.713	22.28833
-38.1893	427.769	22.2981
-38.1888	434.682	22.3079
-38.1893	438.674	22.3176
-38.186	436.496	22.3274
-38.1871	432.976	22.3372
-38.1849	428.6655	22.3469
-38.1839	432.093	22.3567
-38.1847	433.829	22.3665
-38.1833	436.315	22.3762
-38.1819	437.359	22.386
-38.1816	434.363	22.3958
-38.1816	431.722	22.4055
-38.1785	426.75	22.4153
-38.17841	429.851	22.425
-38.17841	437.025	22.4348
-38.1773	437.982	22.44458
-38.1768	433.27	22.4543
-38.1751	430.556	22.4641
-38.1756	429.008	22.4739
-38.1748	432.416	22.4836
-38.1741	435.904	22.4934
-38.1727	434.644	22.5032
-38.1717	436.365	22.5129
-38.172	432.816	22.5227
-38.1703	427.987	22.5325
-38.1689	429.301	22.5422
-38.1685	432.301	22.552
-38.168	437.465	22.5618
-38.1667	436.688	22.5715
-38.1656	430.399	22.5813
-38.1646	430.52	22.5911
-38.1653	431.957	22.60083
-38.1638	432.455	22.6106
-38.16251	433.78	22.6204
-38.1627	434.497	22.6301
-38.1614	435.674	22.6399
-38.1601	430.893	22.6497
-38.16	429.568	22.6594
-38.158	429.825	22.6692
-38.1574	433.486	22.679
-38.1569	436.254	22.6887
-38.1559	432.725	22.6985
-38.1551	432.549	22.7083
-38.1539	431.754	22.718
-38.1542	430.685	22.7278
-38.1527	432.113	22.7375
-38.1524	431.652	22.7473
-38.1509	435.895	22.75708
-38.1505	436.209	22.7668
-38.1503	432.4	22.7766
-38.1493	428.123	22.7864
-38.14843	429.106	22.7961
-38.147	432.814	22.8059
-38.1467	435.553	22.8157
-38.14719	435.711	22.8254
-38.1451	434.565	22.8352
-38.1444	432.547	22.845
-38.1436	427.343	22.8547
-38.1416	430.045	22.8645
-38.1415	434.163	22.8743
-38.1403	438.305	22.884
-38.1403	435.604	22.8938
-38.1398	427.603	22.9036
-38.1383	428.204	22.91333
-38.1363	429.906	22.9231
-38.137	432.8067	22.9329
-38.137	438.773	22.9426
-38.13575	434.414	22.9524
-38.134	431.109	22.9622
-38.1339	430.377	22.9719
-38.1318	426.308	22.9817
-38.1317	432.169	22.9915
-38.13113	435.783	23.0012
-38.1301	437.072	23.011
-38.1306	432.377	23.0208
-38.129	426.256	23.0305
-38.1266	429.86	23.0403
-38.1271	432.446	23.05
-38.1267	433.7489	23.0598
-38.1247	437.052	23.06958
-38.124	433.15	23.0793
-38.1243	431.659	23.0891
-38.1239	426.755	23.0989
-38.122	430.229	23.1086
-38.1204	435.2316	23.1184
-38.12085	436.88	23.1282
-38.119	434.617	23.1379
-38.1191	429.223	23.1477
-38.1192	427.132	23.1575
-38.1172	430.774	23.1672
-38.1158	432.1348	23.177
-38.1152	433.333	23.1868
-38.1144	435.427	23.1965
-38.1144	433.677	23.2063
-38.1124	430.294	23.2161
-38.11274	429.446	23.22583
-38.11237	427.982	23.2356
-38.1103	435.484	23.2454
-38.10952	434.411	23.2551
-38.1096	431.786	23.2649
-38.1085	429.3	23.2747
-38.1078	428.542	23.2844
-38.1063	431.245	23.2942
-38.1047	430.325	23.304
-38.1041	434.518	23.3137
-38.10368	436.705	23.3235
-38.1039	431.442	23.3333
-38.1031	430.209	23.343
-38.1022	427.126	23.3528
-38.1006	430.696	23.3625
-38.1003	435.915	23.3723
-38.0989	432.069	23.38208
-38.09877	434.585	23.3918
-38.0968	430.849	23.4016
-38.0966	428.965	23.4114
-38.0961	430.744	23.4211
-38.0956	428.204	23.4309
-38.0943	434.034	23.4407
-38.0938	436.936	23.4504
-38.0927	431.396	23.4602
-38.0919	428.6427	23.47
-38.0914	427.207	23.4797
-38.0902	431.054	23.4895
-38.0892	433.691	23.4993
-38.0887	434.694	23.509
-38.0872	433.101	23.5188
-38.0868	431.08	23.5286
-38.0864	428.338	23.53833
-38.0862	428.06	23.5481
-38.0847	432.636	23.5579
-38.0845	436.495	23.5676
-38.08374	436.415	23.5774
-38.0827	428.716	23.5872
-38.0823	426.73	23.5969
-38.0802	428.803	23.6067
-38.0793	432.13	23.6165
-38.0787	434.9064	23.6262
-38.0784	433.648	23.636
-38.0777	433.122	23.6458
-38.0761	427.618	23.6555
-38.0755	425.508	23.6653
-38.0739	431.574	23.675
-38.0736	433.052	23.6848
-38.074	436.895	23.69458
-38.0719	432.422	23.7043
-38.0712	425.685	23.7141
-38.0714	429.4137	23.7239
-38.0695	428.521	23.7336
-38.0698	432.238	23.7434
-38.0684	431.7403	23.7532
-38.0677	433.328	23.7629
-38.0675	431.719	23.7727
-38.0644	425.242	23.7825
-38.0643	427.53	23.7922
-38.0639	432.415	23.802
-38.0635	434.1601	23.8118
-38.062	435.547	23.8215
-38.0618	428.548	23.8313
-38.0608	427.177	23.8411
-38.06	429.043	23.85083
-38.0596	430.304	23.8606
-38.0589	429.991	23.8704
-38.0588	433.914	23.8801
-38.0573	433.531	23.8899
-38.0568	429.405	23.8997
-38.0562	426.803	23.9094
-38.054	427.328	23.9192
-38.0541	431.374	23.929
-38.0528	431.439	23.9387
-38.0514	431.94	23.9485
-38.0523	429.836	23.9583
-38.0497	427.5101	23.968
-38.0505	428.22	23.9778
-38.0488	427.981	23.9875
-38.0479	430.41	23.9973
-38.0474	435.583	24.00708
-38.0467	430.589	24.0168
-38.0453	429.417	24.0266
-38.0444	425.38	24.0364
-38.0441	426.653	24.0461
-38.04285	432.527	24.0559
-38.0434	429.918	24.0657
-38.0401	432.775	24.0754
-38.04092	429.077	24.0852
-38.0403	428.075	24.095
-38.0392	426.495	24.1047
-38.0379	426.006	24.1145
-38.0371	431.269	24.1243
-38.0369	434.678	24.134
-38.0356	431.93	24.1438
-38.03458	427.941	24.1536
-38.0348	425.098	24.16333
-38.03376	428.968	24.1731
-38.033	432.452	24.1829
-38.0321	433.238	24.1926
-38.0311	431.861	24.2024
-38.0306	428.391	24.2122
-38.0279	426.559	24.2219
-38.0287	424.35	24.2317
-38.0284	429.23	24.2415
-38.026	435.13	24.2512
-38.0257	433.804	24.261
-38.0245	428.914	24.2708
-38.0249	424.489	24.2805
-38.0234	424.287	24.2903
-38.0214	428.694	24.3
-38.0212	432.768	24.3098
-38.0209	430.737	24.31958
-38.0193	432.044	24.3293
-38.0191	427.783	24.3391
-38.0184	423.115	24.3489
-38.0174	426.262	24.3586
-38.0168	428.579	24.3684
-38.0162	433.919	24.3782
-38.0146	430.654	24.3879
-38.01495	424.501	24.3977
-38.014	425.782	24.4075
-38.0136	425.7	24.4172
-38.0129	430.3237	24.427
-38.011	430.931	24.4368
-38.00972	430.013	24.4465
-38.01	431.393	24.4563
-38.0083	424.196	24.4661
-38.0092	424.777	24.47583
-38.0071	426.802	24.4856
-38.0068	431.371	24.4954
-38.0062	432.529	24.5051
-38.0042	429.53	24.5149
-38.0037	424.668	24.5247
-38.0031	426.9433	24.5344
-38.0025	426.037	24.5442
-38.0015	428.1106	24.554
-38	430.255	24.5637
-37.99968	432.044	24.5735
-37.99852	431.828	24.5833
-37.9976	425.73	24.593
-37.9983	423.687	24.6028
-37.996	427.6947	24.6125
-37.9954	431.008	24.6223
-37.996	430.443	24.63208
-37.9944	429.496	24.6418
-37.9946	425.775	24.6516
-37.9937	426.87	24.6614
-37.9912	423.452	24.6711
-37.9907	427.114	24.6809
-37.9899	430.585	24.6907
-37.9899	431.1796	24.7004
-37.9892	429.921	24.7102
-37.9878	423.993	24.72
-37.9879	423.722	24.7297
-37.9869	428.3364	24.7395
-37.9858	429.45	24.7493
-37.9845	432.566	24.759
-37.9844	429.089	24.7688
-37.982	428.007	24.7786
-37.9831	422.714	24.78833
-37.9807	421.4577	24.7981
-37.98082	429.248	24.8079
-37.9796	433.052	24.8176
-37.9785	431.187	24.8274
-37.979	425.931	24.8372
-37.9766	422.3493	24.8469
-37.9766	423.878	24.8567
-37.9761	428.526	24.8665
-37.9742	430.449	24.8762
-37.9734	430.214	24.886
-37.9734	428.059	24.8958
-37.9725	426.267	24.9055
-37.9713	421.553	24.9153
-37.9721	424.65	24.925
-37.96991	431.1524	24.9348
-37.9698	431.856	24.94458
-37.9682	428.075	24.9543
-37.967	424.684	24.9641
-37.967	422.076	24.9739
-37.966	427.41	24.9836
-37.9653	428.838	24.9934
-37.9642	427.138	25.0032
-37.9628	429.4614	25.0129
-37.9627	425.803	25.0227
-37.9611	422.921	25.0325
-37.9609	424.189	25.0422
-37.9605	425.7641	25.052
-37.9593	431.906	25.0618
-37.9584	429.085	25.0715
-37.9583	426.268	25.0813
-37.95612	423.461	25.0911
-37.9559	423.7215	25.10083
-37.956	426.078	25.1106
-37.9536	425.392	25.1204
-37.9538	428.824	25.1301
-37.9525	429.768	25.1399
-37.9513	423.408	25.1497
-37.9512	422.956	25.1594
-37.9508	422.645	25.1692
-37.9496	426.341	25.179
-37.9489	429.095	25.1887
-37.9479	425.106	25.1985
-37.9466	424.815	25.2083
-37.9472	423.376	25.218
-37.9452	421.827	25.2278
-37.9453	424.506	25.2375
-37.9436	423.782	25.2473
-37.942	428.534	25.25708
-37.942	428.926	25.2668
-37.942	422.3847	25.2766
-37.9404	421.364	25.2864
-37.94051	423.524	25.2961
-37.93819	425.28	25.3059
-37.9385	426.463	25.3157
-37.9368	427.963	25.3254
-37.9367	425.284	25.3352
-37.9357	423.782	25.345
-37.9352	420.037	25.3547
-37.93449	421.857	25.3645
-37.9336	427.339	25.3743
-37.9329	429.123	25.384
-37.9319	427.624	25.3938
-37.9302	420.555	25.4036
-37.9299	419.232	25.41333
-37.929	422.381	25.4231
-37.9282	424.9032	25.4329
-37.927	427.052	25.4426
-37.9258	425.284	25.4524
-37.9254	424.0325	25.4622
-37.9254	420.15	25.4719
-37.9247	417.354	25.4817
-37.9233	423.644	25.4915
-37.9233	426.39	25.5012
-37.9231	427.788	25.511
-37.9214	421.6701	25.5208
-37.9204	418.07	25.5305
-37.9207	418.935	25.5403
-37.9182	421.2948	25.55
-37.9182	425.953	25.5598
-37.9161	425.022	25.56958
-37.9161	422.1666	25.5793
-37.9146	419.642	25.5891
-37.9147	415.457	25.5989
-37.9132	417.972	25.6086
-37.9134	421.688	25.6184
-37.9123	424.275	25.6282
-37.91066	420.492	25.6379
-37.9098	416.0452	25.6477
-37.9096	413.513	25.6575
-37.9107	416.788	25.6672
-37.9083	415.784	25.677
-37.906	417.768	25.6868
-37.9072	415.83	25.6965
-37.9049	411.803	25.7063
-37.90538	404.227	25.7161
-37.904	395.735	25.72583
-37.8993	-8.02341	25.7356
-37.8994	-20.6685	25.7454
-37.8998	-38.8718	25.7551
-37.8993	-47.1008	25.7649
-37.8998	-43.6519	25.7747
-37.89753	-37.6855	25.7844
-37.8965	-42.1246	25.7942
-37.8968	-40.405	25.804
-37.896	-40.19738	25.8137
-37.8952	-35.4634	25.8235
-37.8943	-40.0711	25.8333
-37.8947	-41.5369	25.843
-37.8933	-45.0781	25.8528
-37.8917	-40.07288	25.8625
-37.8925	-37.4469	25.8723
-37.88929	-39.1545	25.88208
-37.89093	-38.4248	25.8918
-37.88842	-41.2162	25.9016
-37.889	-43.7602	25.9114
-37.8879	-42.4623	25.9211
-37.8867	-42.1022	25.9309
-37.886	-36.9094	25.9407
-37.8861	-35.3377	25.9504
-37.8831	-40.1608	25.9602
-37.8826	-43.0289	25.97
-37.8836	-43.9015	25.9797
-37.8809	-41.4808	25.9895
-37.8809	-38.8999	25.9993
-37.88	-37.4808	26.009
-37.8794	-39.7336	26.0188
-37.8782	-40.72356	26.0286
-37.8772	-45.2081	26.03833
-37.8743	-45.2417	26.0481
-37.876	-41.1053	26.0579
-37.8748	-35.3635	26.0676
-37.8746	-36.5054	26.0774
-37.8737	-43.83651	26.0872
-37.8724	-45.1259	26.0969
-37.8725	-43.05204	26.1067
-37.8704	-39.6568	26.1165
-37.8694	-38.0111	26.1262
-37.8704	-39.4261	26.136
-37.8679	-38.6068	26.1458
-37.868	-43.2174	26.1555
-37.8672	-47.3601	26.1653
-37.8665	-41.4423	26.175
-37.8648	-38.41618	26.1848
-37.865	-36.2111	26.19458
-37.8635	-38.9221	26.2043
-37.8622	-44.73634	26.2141
-37.8618	-43.6989	26.2239
-37.8608	-43.9022	26.2336
-37.8591	-39.9738	26.2434
-37.86	-38.3836	26.2532
-37.8596	-38.0509	26.2629
-37.85825	-40.1823	26.2727
-37.8568	-45.3554	26.2825
-37.857	-44.363	26.2922
-37.8565	-41.9645	26.302
-37.8556	-37.0712	26.3118
-37.8542	-35.9717	26.3215
-37.8533	-44.42606	26.3313
-37.8529	-44.707	26.3411
-37.8527	-41.4466	26.35083
-37.851	-42.3761	26.3606
-37.8486	-40.5606	26.3704
-37.8484	-39.162	26.3801
-37.8466	-39.2761	26.3899
-37.8471	-42.5178	26.3997
-37.8463	-44.1537	26.4094
-37.8459	-44.1213	26.4192
-37.8445	-39.5041	26.429
-37.844	-38.1641	26.4387
-37.8434	-40.7519	26.4485
-37.842	-40.753	26.4583
-37.8416	-43.7051	26.468
-37.84127	-41.4032	26.4778
-37.8409	-43.4047	26.4875
-37.8391	-41.27803	26.4973
-37.83849	-38.1047	26.50708
-37.8381	-39.1144	26.5168
-37.83625	-40.83099	26.5266
-37.8355	-45.3808	26.5364
-37.8353	-44.2198	26.5461
-37.83411	-38.9766	26.5559
-37.8337	-40.1813	26.5657
-37.8334	-37.5946	26.5754
-37.8316	-41.6343	26.5852
-37.8314	-42.4587	26.595
-37.8308	-43.6473	26.6047
-37.8283	-46.2305	26.6145
-37.8292	-39.26366	26.6243
-37.8285	-36.7342	26.634
-37.82708	-39.8741	26.6438
-37.8261	-44.8279	26.6536
-37.8252	-47.0312	26.66333
-37.8245	-42.3409	26.6731
-37.8237	-40.71492	26.6829
-37.8212	-37.1207	26.6926
-37.8225	-38.5618	26.7024
-37.821	-41.0692	26.7122
-37.8209	-44.0454	26.7219
-37.82016	-44.7611	26.7317
-37.8189	-41.3176	26.7415
-37.8191	-37.5454	26.7512
-37.8172	-35.7311	26.761
-37.8157	-41.4462	26.7708
-37.8158	-45.4752	26.7805
-37.8155	-44.3001	26.7903
-37.8145	-41.0037	26.8
-37.8132	-37.7264	26.8098
-37.8121	-37.9545	26.81958
-37.8118	-38.9346	26.8293
-37.8095	-43.4748	26.8391
-37.81102	-46.7663	26.8489
-37.8103	-43.78632	26.8586
-37.8088	-40.3948	26.8684
-37.8075	-36.0901	26.8782
-37.8069	-39.98457	26.8879
-37.8067	-44.8425	26.8977
-37.8053	-45.0279	26.9075
-37.8042	-43.5803	26.9172
-37.8046	-40.144	26.927
-37.8027	-38.5865	26.9368
-37.8015	-38.2472	26.9465
-37.8014	-40.8398	26.9563
-37.8	-45.14901	26.9661
-37.8006	-42.9314	26.97583
-37.7983	-43.446	26.9856
-37.7982	-40.3565	26.9954
-37.7974	-35.453	27.0051
-37.7961	-41.8408	27.0149
-37.7952	-42.3642	27.0247
-37.7946	-41.5594	27.0344
-37.7943	-44.5777	27.0442
-37.7942	-41.9721	27.054
-37.79192	-39.40448	27.0637
-37.7916	-37.6967	27.0735
-37.7912	-38.9629	27.0833
-37.7892	-43.9891	27.093
-37.7879	-46.60611	27.1028
-37.7881	-40.54018	27.1125
-37.7884	-39.287	27.1223
-37.7864	-38.9166	27.13208
-37.785	-38.9641	27.1418
-37.7853	-42.9502	27.1516
-37.7844	-42.2571	27.1614
-37.7828	-44.29953	27.1711
-37.78149	-41.2052	27.1809
-37.7823	-39.592	27.1907
-37.7807	-37.3884	27.2004
-37.7808	-39.2724	27.2102
-37.779	-45.7277	27.22
-37.7785	-44.0014	27.2297
-37.77681	-41.09914	27.2395
-37.7768	-40.6654	27.2493
-37.776	-36.4369	27.259
-37.7754	-39.5132	27.2688
-37.7745	-41.45676	27.2786
-37.7741	-43.6293	27.28833
-37.7726	-47.5099	27.2981
-37.7713	-39.8126	27.3079
-37.7718	-36.7259	27.3176
-37.7704	-37.0162	27.3274
-37.76989	-43.5962	27.3372
-37.77013	-47.54277	27.3469
-37.7686	-43.1171	27.3567
-37.7671	-41.2721	27.3665
-37.7664	-37.7206	27.3762
-37.7657	-38.3855	27.386
-37.765	-40.4005	27.3958
-37.7643	-43.7131	27.4055
-37.7631	-48.3591	27.4153
-37.7627	-42.744	27.425
-37.7606	-38.5321	27.4348
-37.7611	-36.0727	27.44458
-37.7592	-40.001	27.4543
-37.7591	-44.87904	27.4641
-37.7586	-46.6551	27.4739
-37.7578	-42.1218	27.4836
-37.7569	-39.2618	27.4934
-37.755	-40.4444	27.5032
-37.75486	-37.26	27.5129
-37.7551	-40.3734	27.5227
-37.7537	-45.4707	27.5325
-37.7522	-43.8918	27.5422
-37.7516	-42.322	27.552
-37.7502	-36.8907	27.5618