File: data/processed_data_files/tensile/0.254_solid_dimension_typeiv_090_r(9).dat
MTS793|BTW|ENU|1|2|.|/|:|1|0|0|A

Data Header:			0.254_solid_dimension_typeiv_090_r0			Time:	20.0173	s	4/14/2019 2:06:39 AM
Data Acquisition:	Timed
Station Name:	ft40.cfg
Test File Name:	monotonic_0.2540_typeiv_solid_090_dimension.tst
Displacement	Force	Running Time
mm	N	s
-40.0407	-106.905	0.0224609
-40.0417	-105.895	0.0419922
-40.0409	-111.536	0.0615234
-40.0399	-107.065	0.0810547
-40.0396	-106.221	0.100586
-40.0389	-103.661	0.120117
-40.0362	-104.098	0.139648
-40.034	-100.759	0.15918
-40.0341	-102.577	0.178711
-40.0313	-103.192	0.198242
-40.0297	-98.6151	0.217773
-40.0284	-96.675	0.237305
-40.02599	-98.6575	0.256836
-40.0239	-98.1994	0.276367
-40.0241	-93.5609	0.295898
-40.0208	-95.3129	0.31543
-40.0201	-95.208	0.334961
-40.0177	-90.548	0.354492
-40.01664	-89.51165	0.374023
-40.01461	-92.4895	0.393555
-40.014	-85.6223	0.413086
-40.0119	-87.9504	0.432617
-40.0105	-89.7655	0.452148
-40.0097	-84.78643	0.47168
-40.0075	-80.8396	0.491211
-40.0038	-89.3554	0.510742
-40.0037	-81.1464	0.530273
-40.0018	-80.5525	0.549805
-39.9999	-82.2579	0.569336
-39.9991	-79.7382	0.588867
-39.99831	-75.4393	0.608398
-39.9945	-82.5555	0.62793
-39.9944	-76.1457	0.647461
-39.9921	-72.5779	0.666992
-39.9906	-74.855	0.686523
-39.9899	-75.1539	0.706055
-39.988	-69.1196	0.725586
-39.98608	-72.0242	0.745117
-39.9833	-71.3222	0.764648
-39.9833	-67.7446	0.78418
-39.981	-67.7064	0.803711
-39.9791	-70.3407	0.823242
-39.9771	-65.4647	0.842773
-39.97649	-64.9299	0.862305
-39.9753	-66.781	0.881836
-39.97369	-64.0957	0.901367
-39.9708	-60.2088	0.920898
-39.9694	-61.412	0.94043
-39.9684	-62.4837	0.959961
-39.9677	-56.5974	0.979492
-39.9652	-57.942	0.999023
-39.9635	-58.2018	1.01855
-39.9613	-54.0292	1.03809
-39.9599	-52.2474	1.05762
-39.95792	-59.3075	1.07715
-39.9569	-49.7433	1.09668
-39.9545	-49.71209	1.11621
-39.9541	-52.8534	1.13574
-39.9528	-49.0827	1.15527
-39.9503	-43.5012	1.1748
-39.9486	-51.6554	1.19434
-39.9456	-46.4764	1.21387
-39.9449	-41.9473	1.2334
-39.9441	-45.199	1.25293
-39.9414	-41.9037	1.27246
-39.9402	-37.6659	1.29199
-39.93861	-45.4799	1.31152
-39.9373	-41.5327	1.33105
-39.9355	-36.6352	1.35059
-39.933	-37.9065	1.37012
-39.9324	-39.6835	1.38965
-39.9317	-34.29	1.40918
-39.9284	-36.1209	1.42871
-39.9276	-35.4051	1.44824
-39.9255	-33.3724	1.46777
-39.924	-30.32478	1.4873
-39.9225	-30.6295	1.50684
-39.9203	-30.2005	1.52637
-39.92065	-26.9194	1.5459
-39.9173	-29.9159	1.56543
-39.9158	-29.238	1.58496
-39.9135	-23.7264	1.60449
-39.912	-22.1097	1.62402
-39.9117	-27.8854	1.64355
-39.9098	-20.6934	1.66309
-39.9068	-20.6187	1.68262
-39.9065	-22.6406	1.70215
-39.90469	-17.6491	1.72168
-39.90316	-14.4967	1.74121
-39.9006	-23.63942	1.76074
-39.8987	-13.71024	1.78027
-39.8984	-14.198	1.7998
-39.8953	-17.72068	1.81934
-39.8943	-16.2147	1.83887
-39.8918	-7.9928	1.8584
-39.8918	-14.6877	1.87793
-39.8904	-9.73039	1.89746
-39.8878	-7.02021	1.91699
-39.8867	-8.46252	1.93652
-39.8846	-10.0173	1.95605
-39.8829	-1.898211	1.97559
-39.882	-7.94252	1.99512
-39.8806	-5.53446	2.01465
-39.8782	-2.673357	2.03418
-39.8773	0.61685	2.05371
-39.8757	-2.79268	2.07324
-39.8737	1.08527	2.09277
-39.8716	1.85472	2.1123
-39.8711	2.73803	2.13184
-39.8695	2.4717	2.15137
-39.86705	6.07148	2.1709
-39.8658	4.86601	2.19043
-39.864	5.23728	2.20996
-39.86285	9.78492	2.22949
-39.8604	7.31209	2.24902
-39.8602	5.574	2.26855
-39.8573	12.0798	2.28809
-39.85548	13.54957	2.30762
-39.8531	6.49143	2.32715
-39.8529	15.7222	2.34668
-39.8502	17.463	2.36621
-39.8488	14.682	2.38574
-39.8471	18.58367	2.40527
-39.8467	21.1994	2.4248
-39.8447	12.2227	2.44434
-39.8439	19.2036	2.46387
-39.8414	23.9968	2.4834
-39.8388	22.7133	2.50293
-39.83754	21.438	2.52246
-39.8362	28.2853	2.54199
-39.8344	22.5042	2.56152
-39.8331	24.9131	2.58105
-39.8304	29.5775	2.60059
-39.8292	27.1257	2.62012
-39.8283	26.6876	2.63965
-39.8266	33.3406	2.65918
-39.825	29.9373	2.67871
-39.8227	29.5689	2.69824
-39.8209	34.0072	2.71777
-39.81963	38.4657	2.7373
-39.8174	33.6528	2.75684
-39.8173	36.5585	2.77637
-39.8153	38.27026	2.7959
-39.8137	37.6187	2.81543
-39.8113	38.0826	2.83496
-39.8089	42.933	2.85449
-39.8081	41.2501	2.87402
-39.8072	39.64	2.89355
-39.8054	46.502	2.91309
-39.8037	46.271	2.93262
-39.80275	41.795	2.95215
-39.8008	47.2845	2.97168
-39.7986	51.6848	2.99121
-39.7969	45.8649	3.01074
-39.7951	50.6253	3.03027
-39.7938	51.3167	3.0498
-39.7916	50.2891	3.06934
-39.7927	51.31686	3.08887
-39.7883	58.2864	3.1084
-39.7863	51.2311	3.12793
-39.78598	55.7658	3.14746
-39.7836	60.4158	3.16699
-39.7817	59.2669	3.18652
-39.78072	57.1062	3.20605
-39.779	64.1106	3.22559
-39.7772	60.2756	3.24512
-39.7765	63.0064	3.26465
-39.77462	64.59491	3.28418
-39.7723	66.8244	3.30371
-39.77055	62.5688	3.32324
-39.7691	68.8404	3.34277
-39.769	67.0169	3.3623
-39.7669	67.0432	3.38184
-39.76503	68.0431	3.40137
-39.7631	73.0369	3.4209
-39.7616	72.0706	3.44043
-39.7591	71.1694	3.45996
-39.7582	73.6819	3.47949
-39.7574	75.5676	3.49902
-39.7547	74.7079	3.51855
-39.7529	79.7662	3.53809
-39.7508	78.0414	3.55762
-39.7496	74.3365	3.57715
-39.7483	80.554	3.59668
-39.7459	84.4991	3.61621
-39.74567	80.2699	3.63574
-39.7437	81.3429	3.65527
-39.7424	88.0726	3.6748
-39.7398	80.8388	3.69434
-39.7381	85.1475	3.71387
-39.7371	87.8221	3.7334
-39.7355	87.0983	3.75293
-39.7337	88.2096	3.77246
-39.7328	96.5763	3.79199
-39.7298	87.8754	3.81152
-39.7288	90.5218	3.83105
-39.72699	94.1926	3.85059
-39.7263	96.4476	3.87012
-39.7243	92.7894	3.88965
-39.7228	97.2292	3.90918
-39.7203	95.1645	3.92871
-39.7188	97.5019	3.94824
-39.7181	99.1835	3.96777
-39.7146	102.751	3.9873
-39.714	98.9557	4.00684
-39.7121	103.213	4.02637
-39.7102	105.082	4.0459
-39.7096	104.265	4.06543
-39.7073	102.368	4.08496
-39.7062	109.695	4.10449
-39.7043	109.379	4.12402
-39.7025	105.987	4.14355
-39.701	110.638	4.16309
-39.6992	112.05	4.18262
-39.6988	108.909	4.20215
-39.6956	115.207	4.22168
-39.6944	117.48	4.24121
-39.693	110.5783	4.26074
-39.6908	114.638	4.28027
-39.6896	119.835	4.2998
-39.687	115.592	4.31934
-39.6857	117.603	4.33887
-39.6848	124.547	4.3584
-39.6833	118.905	4.37793
-39.6817	120.607	4.39746
-39.6804	124.944	4.41699
-39.6789	123.35	4.43652
-39.6766	122.046	4.45605
-39.6752	131.145	4.47559
-39.6736	124.7992	4.49512
-39.6725	126.73	4.51465
-39.6704	129.691	4.53418
-39.6704	133.009	4.55371
-39.6668	128.3822	4.57324
-39.6659	134.897	4.59277
-39.6635	132.918	4.6123
-39.6623	135.1265	4.63184
-39.6602	134.754	4.65137
-39.65889	139.836	4.6709
-39.6575	135.834	4.69043
-39.656	135.955	4.70996
-39.6536	139.679	4.72949
-39.6525	142.097	4.74902
-39.65	136.554	4.76855
-39.6503	144.098	4.78809
-39.6479	144.584	4.80762
-39.6461	141.47	4.82715
-39.6445	145.105	4.84668
-39.6428	147.596	4.86621
-39.6408	143.441	4.88574
-39.6392	148.062	4.90527
-39.6379	153.727	4.9248
-39.6366	146.762	4.94434
-39.6338	150.443	4.96387
-39.6336	157.162	4.9834
-39.6311	152.301	5.00293
-39.6291	151.021	5.02246
-39.6276	159.399	5.04199
-39.6256	154.8851	5.06152
-39.6246	156.569	5.08105
-39.6232	160.772	5.10059
-39.6216	160.311	5.12012
-39.6191	156.393	5.13965
-39.6178	164.506	5.15918
-39.6154	160.46	5.17871
-39.6166	160.968	5.19824
-39.6136	163.751	5.21777
-39.6127	168.942	5.2373
-39.6102	165.5	5.25684
-39.6088	167.971	5.27637
-39.6065	167.748	5.2959
-39.6048	168.519	5.31543
-39.6035	168.2184	5.33496
-39.60355	174.679	5.35449
-39.60006	171.627	5.37402
-39.5995	170.3031	5.39355
-39.5964	173.866	5.41309
-39.5944	177.906	5.43262
-39.5944	173.273	5.45215
-39.5921	176.978	5.47168
-39.59	180.022	5.49121
-39.5891	176.157	5.51074
-39.5873	179.877	5.53027
-39.5855	182.99	5.5498
-39.5843	179.183	5.56934
-39.5824	182.287	5.58887
-39.5807	189.747	5.6084
-39.5781	180.508	5.62793
-39.577	182.813	5.64746
-39.5758	190.513	5.66699
-39.5735	188.515	5.68652
-39.573	186.135	5.70605
-39.57106	193.853	5.72559
-39.5689	190.016	5.74512
-39.5672	190.715	5.76465
-39.5656	194.506	5.78418
-39.5651	196.417	5.80371
-39.5621	191.194	5.82324
-39.5607	198.098	5.84277
-39.5598	196.386	5.8623
-39.5587	196.146	5.88184
-39.5563	195.951	5.90137
-39.5563	202.796	5.9209
-39.5519	199.3768	5.94043
-39.5519	201.197	5.95996
-39.5501	202.716	5.97949
-39.5484	202.958	5.99902
-39.547	201.098	6.01855
-39.5446	209.004	6.03809
-39.5437	207.019	6.05762
-39.542	203.4651	6.07715
-39.5407	207.438	6.09668
-39.538	212.746	6.11621
-39.537	206.912	6.13574
-39.5353	211.035	6.15527
-39.53421	214.601	6.1748
-39.53281	210.957	6.19434
-39.5308	212.537	6.21387
-39.53035	219.371	6.2334
-39.5281	212.411	6.25293
-39.5258	215.607	6.27246
-39.5237	222.69	6.29199
-39.5227	217.434	6.31152
-39.5207	216.273	6.33105
-39.5191	222.8909	6.35059
-39.5177	224.306	6.37012
-39.5159	219.731	6.38965
-39.5142	225.395	6.40918
-39.5121	221.8441	6.42871
-39.5114	224.738	6.44824
-39.50882	225.753	6.46777
-39.5082	232.273	6.4873
-39.5054	226.099	6.50684
-39.50351	230.526	6.52637
-39.5024	231.215	6.5459
-39.5009	231.64	6.56543
-39.4981	229.714	6.58496
-39.4983	235.708	6.60449
-39.496	233.234	6.62402
-39.4957	234.056	6.64355
-39.493	236.385	6.66309
-39.4915	240.434	6.68262
-39.4904	234.818	6.70215
-39.487	242.81	6.72168
-39.4873	243.767	6.74121
-39.48526	238.53	6.76074
-39.4828	240.274	6.78027
-39.4809	246.842	6.7998
-39.4803	241.367	6.81934
-39.4778	242.6386	6.83887
-39.4765	250.109	6.8584
-39.4744	244.074	6.87793
-39.4736	244.693	6.89746
-39.4712	253.561	6.91699
-39.4703	248.808	6.93652
-39.4685	247.713	6.95605
-39.4673	257.23	6.97559
-39.4651	251.772	6.99512
-39.4641	250.773	7.01465
-39.4618	255.512	7.03418
-39.46	258.5925	7.05371
-39.4582	254.255	7.07324
-39.457	261.0387	7.09277
-39.4552	258.397	7.1123
-39.4545	257.501	7.13184
-39.4517	261.036	7.15137
-39.4512	265.868	7.1709
-39.4491	260.328	7.19043
-39.4474	262.271	7.20996
-39.4459	265.755	7.22949
-39.4435	268.09	7.24902
-39.4422	262.566	7.26855
-39.4409	268.944	7.28809
-39.4386	268.6734	7.30762
-39.43713	266.033	7.32715
-39.4357	270.839	7.34668
-39.4339	273.138	7.36621
-39.4331	267.49	7.38574
-39.4308	273.356	7.40527
-39.42942	276.455	7.4248
-39.4287	271.209	7.44434
-39.4259	271.683	7.46387
-39.4247	281.215	7.4834
-39.4225	274.727	7.50293
-39.4211	275.326	7.52246
-39.4203	281.442	7.54199
-39.4176	276.897	7.56152
-39.4165	277.728	7.58105
-39.4146	285.648	7.60059
-39.41198	284.532	7.62012
-39.4121	278.635	7.63965
-39.4098	287.963	7.65918
-39.4088	284.577	7.67871
-39.4061	285.661	7.69824
-39.4055	287.775	7.71777
-39.4026	291.863	7.7373
-39.4015	288.122	7.75684
-39.4004	292.086	7.77637
-39.39925	291.079	7.7959
-39.397	291.678	7.81543
-39.3953	291.328	7.83496
-39.3943	299.583	7.85449
-39.3925	294.669	7.87402
-39.39	292.913	7.89355
-39.3883	297.3638	7.91309
-39.3872	300.755	7.93262
-39.3852	294.727	7.95215
-39.3836	301.405	7.97168
-39.38216	301.582	7.99121
-39.3804	298.856	8.01074
-39.3804	300.736	8.03027
-39.3777	307.3017	8.0498
-39.3757	299.208	8.06934
-39.37392	303.601	8.08887
-39.3717	310.987	8.1084
-39.37	304.25	8.12793
-39.3707	302.819	8.14746
-39.3675	311.197	8.16699
-39.3664	308.6741	8.18652
-39.3645	307.909	8.20605
-39.36153	315.196	8.22559
-39.361	311.062	8.24512
-39.3596	308.305	8.26465
-39.3571	316.479	8.28418
-39.3559	317.671	8.30371
-39.3553	310.0361	8.32324
-39.3533	318.251	8.34277
-39.3505	319.531	8.3623
-39.3496	316.5148	8.38184
-39.3477	317.4328	8.40137
-39.3463	324.575	8.4209
-39.3457	319.376	8.44043
-39.3427	322.064	8.45996
-39.3409	323.232	8.47949
-39.3409	324.302	8.49902
-39.3377	321.434	8.51855
-39.3355	329.441	8.53809
-39.3336	327.558	8.55762
-39.3339	324.591	8.57715
-39.3332	326.084	8.59668
-39.33	332.635	8.61621
-39.3283	327.746	8.63574
-39.3277	331.767	8.65527
-39.3254	333.931	8.6748
-39.3237	330.138	8.69434
-39.3222	331.519	8.71387
-39.3198	339.467	8.7334
-39.3188	332.788	8.75293
-39.3169	334.885	8.77246
-39.3156	340.7966	8.79199
-39.3137	336.946	8.81152
-39.3123	333.985	8.83105
-39.3105	343.1113	8.85059
-39.3093	340.593	8.87012
-39.3073	338.106	8.88965
-39.3061	345.833	8.90918
-39.3047	342.536	8.92871
-39.3025	338.895	8.94824
-39.3011	346.236	8.96777
-39.29892	350.456	8.9873
-39.2974	344.688	9.00684
-39.2955	347.197	9.02637
-39.2939	349.207	9.0459
-39.2935	349.458	9.06543
-39.2913	348.632	9.08496
-39.2892	354.005	9.10449
-39.2876	350.307	9.12402
-39.28643	352.674	9.14355
-39.2844	354.378	9.16309
-39.2834	357.2197	9.18262
-39.2822	351.499	9.20215
-39.2794	358.506	9.22168
-39.278	359.281	9.24121
-39.2761	355.884	9.26074
-39.27446	355.909	9.28027
-39.2744	364.254	9.2998
-39.2717	358.302	9.31934
-39.2699	362.593	9.33887
-39.2677	367.05	9.3584
-39.2664	359.327	9.37793
-39.26527	360.041	9.39746
-39.2641	371.0332	9.41699
-39.2626	365.264	9.43652
-39.2602	361.547	9.45605
-39.2571	369.604	9.47559
-39.257	368.606	9.49512
-39.2549	364.469	9.51465
-39.2536	371.009	9.53418
-39.2519	372.096	9.55371
-39.2499	366.868	9.57324
-39.2477	374.293	9.59277
-39.2474	372.695	9.6123
-39.2461	368.503	9.63184
-39.2437	373.384	9.65137
-39.243	378.622	9.6709
-39.2406	373.01	9.69043
-39.2391	374.064	9.70996
-39.2385	378.758	9.72949
-39.2352	378.859	9.74902
-39.2342	375.919	9.76855
-39.2321	383.003	9.78809
-39.2308	380.697	9.80762
-39.2304	380.077	9.82715
-39.2282	381.985	9.84668
-39.2256	387.744	9.86621
-39.2244	379.784	9.88574
-39.2223	386.13	9.90527
-39.2211	388.465	9.9248
-39.2203	385.765	9.94434
-39.2187	383.492	9.96387
-39.2163	392.461	9.9834
-39.2143	386.788	10.00293
-39.2129	388.594	10.0225
-39.2115	394.743	10.042
-39.21	389.819	10.0615
-39.2086	385.904	10.0811
-39.2062	396.834	10.1006
-39.2049	394.789	10.1201
-39.203	390.749	10.1396
-39.2017	397.437	10.15918
-39.1995	396.761	10.1787
-39.1983	392.032	10.1982
-39.1965	397.998	10.2178
-39.19537	402.22	10.2373
-39.1926	397.268	10.2568
-39.1925	401.171	10.2764
-39.1905	403.068	10.2959
-39.1886	399.3	10.31543
-39.1868	399.303	10.335
-39.1847	407.395	10.3545
-39.1833	404.054	10.374
-39.1825	401.49	10.3936
-39.1805	405.6835	10.4131
-39.1792	407.153	10.4326
-39.17749	403.484	10.4521
-39.1759	412.054	10.47168
-39.1734	409.867	10.4912
-39.17252	405.656	10.5107
-39.1696	409.245	10.5303
-39.17	416.065	10.5498
-39.1672	407.426	10.5693
-39.1651	411.418	10.5889
-39.1647	418.653	10.6084
-39.1632	413.7403	10.62793
-39.16095	410.444	10.6475
-39.1595	418.784	10.667
-39.1575	413.602	10.6865
-39.1558	414.948	10.7061
-39.1543	422.167	10.7256
-39.1516	418.407	10.7451
-39.1501	414.25	10.7646
-39.1487	423.636	10.78418
-39.1474	424.25	10.8037
-39.14555	417.198	10.8232
-39.1447	421.943	10.8428
-39.1423	424.27	10.8623
-39.1409	419.171	10.8818
-39.1397	424.059	10.9014
-39.1386	428.091	10.9209
-39.1367	422.237	10.94043
-39.1358	426.565	10.96
-39.1338	430.089	10.9795
-39.131	425.319	10.999
-39.1304	423.824	11.0186
-39.1284	433.021	11.0381
-39.126	430.6575	11.0576
-39.12558	428.337	11.0771
-39.124	429.151	11.09668
-39.1222	433.957	11.1162
-39.1211	428.251	11.1357
-39.1195	434.625	11.1553
-39.117	436.51	11.1748
-39.1148	430.591	11.1943
-39.1146	430.76	11.2139
-39.1138	441.6889	11.2334
-39.1114	434.956	11.25293
-39.1089	434.898	11.2725
-39.1069	439.704	11.292
-39.1048	437.978	11.3115
-39.1029	433.301	11.3311
-39.10247	443.118	11.3506
-39.1017	439.623	11.3701
-39.0989	437.232	11.3896
-39.0976	445.032	11.40918
-39.0961	442.451	11.4287
-39.0941	434.759	11.4482
-39.0926	443.811	11.4678
-39.0911	446.53	11.4873
-39.0893	441.889	11.5068
-39.0878	444.954	11.5264
-39.0868	447.12	11.5459
-39.0838	442.87	11.56543
-39.0823	446.434	11.585
-39.0818	450.705	11.6045
-39.0795	446.2486	11.624
-39.07724	447.58	11.6436
-39.0761	449.665	11.6631
-39.0743	450.693	11.6826
-39.0736	447.139	11.7021
-39.0698	453.264	11.72168
-39.0708	453.235	11.7412
-39.0681	449.864	11.7607
-39.0668	450.447	11.7803
-39.0653	456.271	11.7998
-39.0637	449.296	11.8193
-39.0639	456.555	11.8389
-39.0595	458.019	11.8584
-39.0576	453.631	11.87793
-39.057	449.93	11.8975
-39.0551	462.72	11.917
-39.0536	456.425	11.9365
-39.0521	454.455	11.9561
-39.0496	460.172	11.9756
-39.0484	458.988	11.9951
-39.0479	453.0914	12.0146
-39.045	463.955	12.03418
-39.0427	459.913	12.0537
-39.0434	456.864	12.0732
-39.0408	462.277	12.0928
-39.0384	463.768	12.1123
-39.0369	455.513	12.1318
-39.0351	462.412	12.1514
-39.0353	466.684	12.1709
-39.0321	462.729	12.19043
-39.0306	463.471	12.21
-39.0293	463.288	12.2295
-39.02747	461.039	12.249
-39.0253	462.72	12.2686
-39.0243	469.248	12.2881
-39.0225	464.294	12.3076
-39.0208	464.3526	12.3271
-39.0196	466.677	12.34668
-39.0175	469.987	12.3662
-39.0162	464.786	12.3857
-39.0146	469.406	12.4053
-39.0135	470.98	12.4248
-39.0114	468.433	12.4443
-39.0104	467.564	12.4639
-39.0085	472.89	12.4834
-39.0068	466.311	12.50293
-39.005	469.234	12.5225
-39.0031	475.236	12.542
-39.0019	470.031	12.5615
-38.9992	463.465	12.5811
-38.9976	476.367	12.6006
-38.9962	472.547	12.6201
-38.9952	467.84	12.6396
-38.9929	473.737	12.65918
-38.9921	473.035	12.6787
-38.9896	467.098	12.6982
-38.9884	475.415	12.7178
-38.9875	475.215	12.7373
-38.9858	469.522	12.7568
-38.9835	473.508	12.7764
-38.9814	477.106	12.7959
-38.9808	470.67	12.81543
-38.9786	471.512	12.835
-38.9747	477.232	12.8545
-38.9759	474.435	12.874
-38.974	475.233	12.8936
-38.972	476.998	12.9131
-38.9703	476.533	12.9326
-38.9695	473.258	12.9521
-38.9673	480.793	12.97168
-38.9658	478.773	12.9912
-38.9641	475.574	13.0107
-38.9616	474.987	13.0303
-38.9609	482.358	13.0498
-38.95911	473.746	13.0693
-38.9579	478.135	13.0889
-38.9553	480.724	13.1084
-38.9554	477.429	13.12793
-38.9535	473.833	13.1475
-38.9498	484.138	13.167
-38.9495	476.981	13.1865
-38.948	477.373	13.2061
-38.946	482.755	13.2256
-38.945	482.947	13.2451
-38.94376	473.044	13.2646
-38.9418	483.814	13.28418
-38.94	482.17	13.3037
-38.9384	479.2	13.3232
-38.9365	483.412	13.3428
-38.9341	483.594	13.3623
-38.9316	477.096	13.3818
-38.9313	481.897	13.4014
-38.9301	484.052	13.4209
-38.9282	480.141	13.44043
-38.9262	478.695	13.46
-38.9245	485.206	13.4795
-38.92318	479.984	13.499
-38.9211	479.575	13.5186
-38.919	485.8566	13.5381
-38.9185	482.732	13.5576
-38.9176	480.3656	13.5771
-38.91396	482.225	13.59668
-38.9133	482.737	13.6162
-38.9132	479.259	13.6357
-38.9112	485.344	13.6553
-38.9081	487.004	13.6748
-38.9072	480.047	13.6943
-38.9059	480.957	13.7139
-38.9039	489.057	13.7334
-38.9027	480.47	13.75293
-38.9007	481.533	13.7725
-38.8981	485.25	13.792
-38.8972	484.884	13.8115
-38.8956	479.154	13.8311
-38.8932	488.491	13.8506
-38.892	484.651	13.8701
-38.89027	479.674	13.8896
-38.888	485.558	13.90918
-38.888	487.1897	13.9287
-38.8871	476.517	13.9482
-38.8835	484.984	13.9678
-38.8822	486.655	13.9873
-38.8803	481.803	14.0068
-38.8794	483.821	14.0264
-38.8776	485.782	14.0459
-38.87466	477.89	14.06543
-38.8748	483.45	14.085
-38.873	488.86	14.1045
-38.87043	483.379	14.124
-38.8699	481.333	14.1436
-38.8693	486.13	14.1631
-38.8659	482.324	14.1826
-38.8652	481.29	14.2021
-38.8626	484.415	14.22168
-38.8622	484.243	14.2412
-38.8594	483.336	14.2607
-38.8579	483.689	14.2803
-38.8566	486.2807	14.2998
-38.8544	478.342	14.3193
-38.8547	483.577	14.3389
-38.8511	487.2583	14.3584
-38.8502	483.661	14.37793
-38.8482	478.876	14.3975
-38.8461	487.486	14.417
-38.8453	482.709	14.4365
-38.8437	482.509	14.4561
-38.8416	485.525	14.4756
-38.8405	484.578	14.4951
-38.8389	476.249	14.5146
-38.8365	487.972	14.53418
-38.8354	484.601	14.5537
-38.835	479.718	14.5732
-38.83255	484.356	14.5928
-38.8313	488.442	14.6123
-38.829	476.682	14.6318
-38.8273	481.511	14.6514
-38.8252	484.423	14.6709
-38.8238	479.926	14.69043
-38.82225	482.617	14.71
-38.8207	484.09	14.7295
-38.8197	478.3461	14.749
-38.8181	479.272	14.7686
-38.8152	485.351	14.7881
-38.8142	483.017	14.8076
-38.813	478.639	14.8271
-38.8104	481.816	14.84668
-38.80883	480.892	14.8662
-38.8077	479.104	14.8857
-38.8074	482.778	14.9053
-38.8043	483.175	14.9248
-38.8026	479.969	14.9443
-38.80064	478.222	14.9639
-38.8005	483.758	14.9834
-38.7984	477.936	15.00293
-38.7963	479.47	15.0225
-38.7956	484.402	15.042
-38.79327	481.519	15.0615
-38.7914	473.7005	15.0811
-38.79	483.164	15.1006
-38.7886	481.701	15.1201
-38.7867	478.2	15.1396
-38.7851	482.376	15.15918
-38.7834	482.633	15.1787
-38.781	473.745	15.1982
-38.7804	482.735	15.2178
-38.7789	483.87	15.2373
-38.7771	478.04	15.2568
-38.7744	479.134	15.2764
-38.7739	482.585	15.2959
-38.7729	475.018	15.31543
-38.771	478.476	15.335
-38.7691	481.751	15.3545
-38.76582	478.908	15.374
-38.7654	477.483	15.3936
-38.7637	481.6308	15.4131
-38.7627	475.802	15.4326
-38.7617	477.172	15.4521
-38.7583	479.575	15.47168
-38.7567	481.536	15.4912
-38.756	475.693	15.5107
-38.754	476.322	15.5303
-38.7529	478.912	15.5498
-38.7495	476.643	15.5693
-38.7484	479.132	15.5889
-38.7471	478.905	15.6084
-38.74601	475.911	15.62793
-38.7443	474.397	15.6475
-38.7419	480.762	15.667
-38.7406	475.453	15.6865
-38.7391	475.241	15.7061
-38.7368	480.771	15.7256
-38.7363	478.467	15.7451
-38.7343	468.997	15.7646
-38.7334	479.109	15.78418
-38.7322	475.891	15.8037
-38.7309	473.942	15.8232
-38.7279	477.451	15.8428
-38.7261	478.177	15.8623
-38.7243	468.844	15.8818
-38.7239	476.978	15.9014
-38.7222	478.89	15.9209
-38.72023	473.738	15.94043
-38.7173	474.301	15.96
-38.7162	478.387	15.9795
-38.7148	472.599	15.999
-38.7134	473.765	16.0186
-38.7106	476.88	16.0381
-38.7097	476.02	16.0576
-38.7087	471.825	16.0771
-38.7064	477.519	16.09668
-38.7055	474.142	16.1162
-38.7021	470.838	16.1357
-38.7018	475.468	16.1553
-38.7003	478.112	16.1748
-38.6985	473.459	16.1943
-38.6968	471.7757	16.2139
-38.6956	475.35	16.2334
-38.6941	472.932	16.25293
-38.6916	474.026	16.2725
-38.6917	476.632	16.292
-38.689	474.027	16.3115
-38.6866	466.664	16.3311
-38.6859	475.622	16.3506
-38.6836	473.219	16.3701
-38.6827	469.198	16.3896
-38.68037	474.097	16.40918
-38.6796	477.017	16.4287
-38.6775	466.026	16.4482
-38.6764	474.008	16.4678
-38.6751	473.696	16.4873
-38.6732	471.091	16.5068
-38.6709	473.2543	16.5264
-38.6696	476.8526	16.5459
-38.668	467.228	16.56543
-38.66592	471.19	16.585
-38.6646	477.0759	16.6045
-38.663	472.37	16.624
-38.6612	470.007	16.6436
-38.65992	474.814	16.6631
-38.6583	470.356	16.6826
-38.6564	470.295	16.7021
-38.6539	474.267	16.72168
-38.6534	473.867	16.7412
-38.6525	468.651	16.7607
-38.6491	471.6922	16.7803
-38.647	471.041	16.7998
-38.6466	468.884	16.8193
-38.6448	468.48	16.8389
-38.6439	472.9285	16.8584
-38.6415	472.327	16.87793
-38.6404	466.247	16.8975
-38.6391	470.149	16.917
-38.6371	469.884	16.9365
-38.6356	467.919	16.9561
-38.6344	472.919	16.9756
-38.6326	471.692	16.9951
-38.6301	463.293	17.0146
-38.628	472.867	17.03418
-38.6264	472.805	17.0537
-38.6261	467.23	17.0732
-38.6256	472.4935	17.0928
-38.6227	473.54	17.1123
-38.6212	464.562	17.1318
-38.61895	469.949	17.1514
-38.6175	471.791	17.1709
-38.6162	469.322	17.19043
-38.6144	469.034	17.21
-38.6121	473.428	17.2295
-38.6113	463.714	17.249
-38.6092	468.218	17.2686
-38.6072	471.482	17.2881
-38.6061	471.134	17.3076
-38.6044	467.6745	17.3271
-38.6021	471.1221	17.34668
-38.601	468.481	17.3662
-38.5993	467.859	17.3857
-38.5972	469.733	17.4053
-38.5956	471.012	17.4248
-38.5956	466.89	17.4443
-38.5927	467.721	17.4639
-38.59082	470.303	17.4834
-38.5895	468.145	17.50293
-38.5886	466.519	17.5225
-38.5859	471.371	17.542
-38.5847	469.17	17.5615
-38.5826	464.301	17.5811
-38.5815	469.112	17.6006
-38.5801	468.53	17.6201
-38.5787	465.761	17.6396
-38.5758	469.995	17.65918
-38.5749	470.338	17.6787
-38.5742	459.923	17.6982
-38.571	469.144	17.7178
-38.5704	470.807	17.7373
-38.5678	466.3801	17.7568
-38.5669	467.102	17.7764
-38.5651	473.613	17.7959
-38.56237	464.312	17.81543
-38.5617	467.025	17.835
-38.5608	470.039	17.8545
-38.5581	466.366	17.874
-38.557	465.171	17.8936
-38.5561	472.195	17.9131
-38.5544	463.436	17.9326
-38.5526	464.85	17.9521
-38.5512	467.332	17.97168
-38.549	470.326	17.9912
-38.5469	463.977	18.0107
-38.546	466.993	18.0303
-38.5444	466.266	18.0498
-38.5425	466.601	18.0693
-38.5406	466.871	18.0889
-38.5389	468.849	18.1084
-38.5376	464.191	18.12793
-38.5356	464.3	18.1475
-38.534	467.673	18.167
-38.5335	467.867	18.1865
-38.5304	462.559	18.2061
-38.5303	468.2312	18.2256
-38.5272	469.387	18.2451
-38.5262	459.616	18.2646
-38.5251	466.393	18.28418
-38.5231	467.3522	18.3037
-38.5206	463.249	18.3232
-38.5201	467.778	18.3428
-38.5177	469.762	18.3623
-38.5173	459.106	18.3818
-38.5148	465.426	18.4014
-38.5131	467.41	18.4209
-38.5129	466.3381	18.44043
-38.5103	464.567	18.46
-38.5067	468.52	18.4795
-38.5069	461.417	18.499
-38.5044	465.061	18.5186
-38.5033	466.567	18.5381
-38.5011	465.087	18.5576
-38.4999	462.135	18.5771
-38.4993	468.985	18.59668
-38.4959	465.491	18.6162
-38.4946	461.445	18.6357
-38.4939	465.197	18.6553
-38.4922	469.5589	18.6748
-38.4909	462.469	18.6943
-38.489	463.118	18.7139
-38.4866	464.287	18.7334
-38.4851	462.804	18.75293
-38.4832	463.9133	18.7725
-38.48222	468.82	18.792
-38.4799	464.302	18.8115
-38.479	459.348	18.8311
-38.4781	464.518	18.8506
-38.4756	466.224	18.8701
-38.474	459.785	18.8896
-38.4725	465.4342	18.90918
-38.4708	466.785	18.9287
-38.4685	459.914	18.9482
-38.4671	464.902	18.9678
-38.4657	465.88	18.9873
-38.4652	462.0015	19.0068
-38.4627	464.751	19.0264
-38.4608	468.953	19.0459
-38.4593	458.989	19.06543
-38.4578	461.246	19.085
-38.4563	467.779	19.1045
-38.455	465.887	19.124
-38.4526	463.093	19.1436
-38.4511	466.743	19.1631
-38.4496	460.295	19.1826
-38.4479	460.095	19.2021
-38.446	465.34	19.22168
-38.4435	466.108	19.2412
-38.4431	458.701	19.2607
-38.442	464.0119	19.2803
-38.4397	464.292	19.2998
-38.4384	460.426	19.3193
-38.4372	460.5575	19.3389
-38.4351	467.002	19.3584
-38.43454	461.336	19.37793
-38.4318	460.985	19.3975
-38.4303	463.215	19.417
-38.4285	461.795	19.4365
-38.427	458.957	19.4561
-38.4245	466.318	19.4756
-38.42421	463.1911	19.4951
-38.422	456.903	19.5146
-38.4214	461.967	19.53418
-38.4183	465.077	19.5537
-38.4164	459.269	19.5732
-38.41526	462.232	19.5928
-38.4133	466.989	19.6123
-38.4117	458.678	19.6318
-38.411	462.145	19.6514
-38.4094	465.407	19.6709
-38.4059	459.727	19.69043
-38.4046	460.698	19.71
-38.4052	467.929	19.7295
-38.4029	458.683	19.749
-38.4007	459.244	19.7686
-38.39912	463.465	19.7881
-38.3988	465.48	19.8076
-38.3953	461.505	19.8271
-38.3944	465.3374	19.84668
-38.3915	461.005	19.8662
-38.3898	460.221	19.8857
-38.3892	462.519	19.9053
-38.3871	465.628	19.9248
-38.3872	457.167	19.9443
-38.3844	462.554	19.9639
-38.3837	461.97	19.9834
-38.3809	461.564	20.00293
-38.3807	459.395	20.0127

Data Header:			0.254_solid_dimension_typeiv_090_r0			Time:	25.2324	s	4/14/2019 2:06:45 AM
Data Acquisition:	Timed
Station Name:	ft40.cfg
Test File Name:	monotonic_0.2540_typeiv_solid_090_dimension.tst
Displacement	Force	Running Time
mm	N	s
-38.3802	459.912	20.0225
-38.3787	461.138	20.0322
-38.379	465.327	20.042
-38.3779	465.927	20.0518
-38.3768	460.821	20.0615
-38.3756	456.345	20.0713
-38.3751	458.483	20.0811
-38.3747	463.924	20.09082
-38.37262	461.077	20.1006
-38.3716	465.458	20.1104
-38.37138	462.6322	20.1201
-38.3701	461.554	20.1299
-38.3704	457.306	20.1396
-38.3677	455.953	20.1494
-38.3683	464.143	20.15918
-38.3682	464.595	20.1689
-38.3661	464.263	20.1787
-38.3672	459.228	20.1885
-38.3655	456.174	20.1982
-38.363	460.138	20.208
-38.3646	460.588	20.2178
-38.3627	463.781	20.2275
-38.3617	464.887	20.2373
-38.3617	460.337	20.24707
-38.3594	459.726	20.2568
-38.35955	453.961	20.2666
-38.35828	460.261	20.2764
-38.357	466.6	20.2861
-38.3565	463.192	20.2959
-38.3558	462.832	20.3057
-38.3542	457.496	20.31543
-38.3549	457.211	20.3252
-38.3544	459.061	20.335
-38.3534	461.35	20.3447
-38.3524	463.919	20.3545
-38.3509	464.772	20.3643
-38.35006	460.203	20.374
-38.3499	456.02	20.3838
-38.3487	457.955	20.3936
-38.3477	461.614	20.40332
-38.34668	465.457	20.4131
-38.3465	464.137	20.4229
-38.3451	459.782	20.4326
-38.345	457.932	20.4424
-38.3448	458.067	20.4521
-38.3419	461.548	20.4619
-38.3422	462.4559	20.47168
-38.3416	463.705	20.4814
-38.3402	464.435	20.4912
-38.34	455.811	20.501
-38.33728	457.865	20.5107
-38.3382	456.398	20.5205
-38.33773	461.067	20.5303
-38.3365	464.929	20.54
-38.3364	459.38	20.5498
-38.3346	461.97	20.55957
-38.3338	459.848	20.5693
-38.3335	458.787	20.5791
-38.3331	459.95	20.5889
-38.3322	459.323	20.5986
-38.3307	465.755	20.6084
-38.3299	460.512	20.6182
-38.3288	458.686	20.62793
-38.328	456.188	20.6377
-38.328	457.689	20.6475
-38.3272	462.281	20.6572
-38.3261	461.077	20.667
-38.3253	460.45	20.6768
-38.32407	461.714	20.6865
-38.32415	457.291	20.6963
-38.3226	455.588	20.7061
-38.3205	456.924	20.71582
-38.3205	461.952	20.7256
-38.32003	463.411	20.7354
-38.3196	460.35	20.7451
-38.3191	455.271	20.7549
-38.3178	455.038	20.7646
-38.3166	458.344	20.7744
-38.3148	459.564	20.78418
-38.3165	463.591	20.7939
-38.3141	461.1571	20.8037
-38.3142	460.822	20.8135
-38.3122	456.431	20.8232
-38.312	454.324	20.833
-38.3114	459.95	20.8428
-38.3101	464.064	20.8525
-38.309	462.59	20.8623
-38.3098	458.306	20.87207
-38.3075	453.5838	20.8818
-38.30798	457.74	20.8916
-38.3068	455.14	20.9014
-38.3055	461.842	20.9111
-38.3053	461.591	20.9209
-38.3045	460.691	20.9307
-38.3035	456.857	20.94043
-38.3013	451.536	20.9502
-38.3018	456.106	20.96
-38.3015	462.985	20.9697
-38.30027	462.063	20.9795
-38.3	461.063	20.9893
-38.2994	455.014	20.999
-38.2971	455.352	21.0088
-38.2974	456.437	21.0186
-38.2965	458.648	21.02832
-38.2946	461.821	21.0381
-38.2946	461.77	21.0479
-38.2935	459.348	21.0576
-38.29277	452.4025	21.0674
-38.291	452.835	21.0771
-38.2916	458.798	21.0869
-38.2896	461.491	21.09668
-38.2893	461.081	21.1064
-38.2891	457.9606	21.1162
-38.2873	455.865	21.126
-38.2877	455.236	21.1357
-38.28587	456.744	21.1455
-38.2855	458.22	21.1553
-38.2845	461.1796	21.165
-38.285	460.227	21.1748
-38.2832	455.786	21.18457
-38.2812	456.011	21.1943
-38.2815	454.754	21.2041
-38.2811	456.893	21.2139
-38.28	461.572	21.2236
-38.2797	457.976	21.2334
-38.2774	459.681	21.2432
-38.2765	455.187	21.25293
-38.2751	455.27	21.2627
-38.2749	456.274	21.2725
-38.2751	455.275	21.2822
-38.2739	461.798	21.292
-38.27446	458.489	21.3018
-38.272	456.995	21.3115
-38.2712	453.412	21.3213
-38.2706	454.447	21.3311
-38.2697	457.582	21.34082
-38.2683	456.344	21.3506
-38.2681	460.0231	21.3604
-38.2667	458.244	21.3701
-38.2666	453.735	21.3799
-38.266	452.4053	21.3896
-38.2647	452.868	21.3994
-38.26577	457.6257	21.40918
-38.263	461.993	21.4189
-38.2625	459.088	21.4287
-38.2608	453.863	21.4385
-38.2606	452.07	21.4482
-38.25972	453.319	21.458
-38.259	454.095	21.4678
-38.2591	460.066	21.4775
-38.2568	459.849	21.4873
-38.256	457.676	21.49707
-38.2571	452.715	21.5068
-38.2542	449.456	21.5166
-38.2552	455.409	21.5264
-38.2537	459.99	21.5361
-38.2529	461.26	21.5459
-38.2523	455.162	21.5557
-38.2509	452.4054	21.56543
-38.25082	453.475	21.5752
-38.2489	451.1767	21.585
-38.2485	459.26	21.5947
-38.2471	458.464	21.6045
-38.24641	457.367	21.6143
-38.2456	455.409	21.624
-38.2447	446.969	21.6338
-38.24519	452.6077	21.6436
-38.2437	456.523	21.65332
-38.2429	458.95	21.6631
-38.2429	457.642	21.6729
-38.24123	452.18	21.6826
-38.2403	452.595	21.6924
-38.23983	451.792	21.7021
-38.2396	453.693	21.7119
-38.2376	457.599	21.72168
-38.2379	457.673	21.7314
-38.2359	457.892	21.7412
-38.2349	451.044	21.751
-38.2349	449.934	21.7607
-38.2337	453.161	21.7705
-38.2337	455.803	21.7803
-38.2335	456.198	21.79
-38.23201	454.66	21.7998
-38.23069	453.533	21.80957
-38.2303	451.823	21.8193
-38.2295	452.353	21.8291
-38.2285	451.135	21.8389
-38.2275	454.353	21.8486
-38.2274	457.269	21.8584
-38.2254	452.726	21.8682
-38.2249	452.647	21.87793
-38.2241	448.855	21.8877
-38.2232	454.194	21.8975
-38.2228	455.258	21.9072
-38.2218	452.119	21.917
-38.222	455.646	21.9268
-38.2198	453.32	21.9365
-38.21846	452.701	21.9463
-38.2178	448.797	21.9561
-38.2176	449.408	21.96582
-38.2161	456.676	21.9756
-38.2166	455.115	21.9854
-38.2148	454.515	21.9951
-38.2144	449.448	22.0049
-38.2134	448.635	22.0146
-38.2129	452.978	22.0244
-38.2126	450.444	22.03418
-38.2108	455.217	22.0439
-38.2104	455.25	22.0537
-38.2091	451.636	22.0635
-38.2095	450.545	22.0732
-38.208	444.988	22.083
-38.2069	452.503	22.0928
-38.2061	458.0976	22.1025
-38.2064	455.343	22.1123
-38.2041	450.074	22.12207
-38.2046	446.627	22.1318
-38.2045	447.464	22.1416
-38.2015	449.821	22.1514
-38.2014	453.374	22.1611
-38.2	454.707	22.1709
-38.1991	454.093	22.1807
-38.199	448.2	22.19043
-38.1984	445.585	22.2002
-38.1975	448.003	22.21
-38.1974	454.053	22.2197
-38.1967	455.401	22.2295
-38.1947	451.976	22.2393
-38.1929	446.834	22.249
-38.1929	447.368	22.2588
-38.19276	444.646	22.2686
-38.1911	450.264	22.27832
-38.19046	450.041	22.2881
-38.1899	452.073	22.2979
-38.1892	451.265	22.3076
-38.18726	442.442	22.3174
-38.1878	444.321	22.3271
-38.1872	446.224	22.3369
-38.1861	450.052	22.34668
-38.1859	448.3364	22.3564
-38.1856	444.022	22.3662
-38.1841	443.219	22.376
-38.1827	440.184	22.3857
-38.1821	438.226	22.3955
-38.1767	-19.2042	22.4053
-38.1767	-39.3482	22.415
-38.1761	-64.4505	22.4248
-38.1767	-41.8956	22.43457
-38.1759	-41.6521	22.4443
-38.1752	-39.3758	22.4541
-38.1743	-44.0901	22.4639
-38.1746	-41.1593	22.4736
-38.17466	-41.2137	22.4834
-38.1729	-42.2014	22.4932
-38.1717	-43.2829	22.50293
-38.1721	-44.967	22.5127
-38.1702	-46.9078	22.5225
-38.1698	-43.1633	22.5322
-38.1689	-40.7571	22.542
-38.1687	-42.4322	22.5518
-38.1665	-42.932	22.5615
-38.1674	-48.6388	22.5713
-38.1656	-45.5235	22.5811
-38.1658	-43.7462	22.59082
-38.164	-44.4439	22.6006
-38.1626	-41.8195	22.6104
-38.1623	-41.1909	22.6201
-38.1611	-44.2457	22.6299
-38.1612	-47.7505	22.6396
-38.1592	-47.0215	22.6494
-38.1595	-40.9154	22.65918
-38.158	-41.58358	22.6689
-38.1564	-40.6453	22.6787
-38.1569	-45.9675	22.6885
-38.1564	-47.6289	22.6982
-38.1563	-45.0063	22.708
-38.1547	-45.6165	22.7178
-38.1531	-40.7358	22.7275
-38.15234	-38.813	22.7373
-38.1525	-43.3634	22.74707
-38.1519	-45.6362	22.7568
-38.1499	-52.6072	22.7666
-38.1499	-43.3687	22.7764
-38.1497	-39.1121	22.7861
-38.149	-41.2123	22.7959
-38.1463	-41.0103	22.8057
-38.1483	-47.14909	22.81543
-38.1461	-47.4092	22.8252
-38.1457	-45.954	22.835
-38.1438	-42.6953	22.8447
-38.1429	-38.9655	22.8545
-38.1416	-40.0571	22.8643
-38.142	-44.3819	22.874
-38.1409	-48.7858	22.8838
-38.1404	-48.6078	22.8936
-38.1394	-40.7879	22.90332
-38.1392	-40.0788	22.9131
-38.1378	-41.9789	22.9229
-38.1365	-44.4494	22.9326
-38.1358	-46.74	22.9424
-38.1363	-46.9747	22.9521
-38.1343	-44.5675	22.9619
-38.1343	-42.3974	22.97168
-38.1328	-41.04929	22.9814
-38.1309	-40.4292	22.9912
-38.131	-48.8807	23.001
-38.131	-46.0402	23.0107
-38.12999	-47.5127	23.0205
-38.128	-41.8224	23.0303
-38.12809	-41.20657	23.04
-38.12756	-44.228	23.0498
-38.12598	-43.0263	23.05957
-38.1252	-44.4815	23.0693
-38.1243	-46.9131	23.0791
-38.1237	-45.009	23.0889
-38.12336	-43.1918	23.0986
-38.1215	-39.39772	23.1084
-38.1217	-45.9152	23.1182
-38.1202	-45.547	23.12793
-38.12	-46.9846	23.1377
-38.1195	-46.2632	23.1475
-38.1179	-41.25597	23.1572
-38.1169	-43.6253	23.167
-38.1165	-42.7179	23.1768
-38.11665	-41.8241	23.1865
-38.1145	-46.966	23.1963
-38.114	-47.0361	23.2061
-38.1126	-45.4082	23.21582
-38.1122	-40.9784	23.2256
-38.1116	-40.7839	23.2354
-38.1109	-43.32605	23.2451
-38.11	-45.36132	23.2549
-38.1091	-46.5358	23.2646
-38.1087	-44.0413	23.2744
-38.1074	-43.959	23.28418
-38.1065	-40.3278	23.2939
-38.1064	-41.1821	23.3037
-38.1046	-42.2569	23.3135
-38.10416	-47.8466	23.3232
-38.1034	-49.6141	23.333
-38.1027	-43.5738	23.3428
-38.102	-39.5024	23.3525
-38.10043	-40.7857	23.3623
-38.1002	-45.1495	23.37207
-38.0988	-47.0253	23.3818
-38.0984	-45.1843	23.3916
-38.0977	-46.6549	23.4014
-38.0973	-40.10218	23.4111
-38.097	-40.0509	23.4209
-38.0957	-42.3712	23.4307
-38.0956	-46.3907	23.44043
-38.0952	-51.0182	23.4502
-38.0929	-45.7283	23.46
-38.0921	-41.6406	23.4697
-38.0904	-41.4378	23.4795
-38.09066	-41.8942	23.4893
-38.0907	-46.08416	23.499
-38.0887	-46.4854	23.5088
-38.0876	-47.43399	23.5186
-38.0868	-43.6997	23.52832
-38.08746	-40.1714	23.5381
-38.0854	-39.691	23.5479
-38.0838	-42.3486	23.5576
-38.0847	-49.1585	23.5674
-38.083	-48.3536	23.5771
-38.082	-44.3459	23.5869
-38.0821	-41.9204	23.59668
-38.0812	-40.9563	23.6064
-38.0799	-43.2097	23.6162
-38.0802	-45.7864	23.626
-38.07803	-47.6061	23.6357
-38.0769	-45.7691	23.6455
-38.07618	-45.0467	23.6553
-38.0768	-39.3231	23.665
-38.075	-40.5988	23.6748
-38.07378	-46.0606	23.68457
-38.0734	-46.5947	23.6943
-38.0732	-47.3028	23.7041
-38.0712	-41.4622	23.7139
-38.0713	-42.055	23.7236
-38.0715	-43.76754	23.7334
-38.069	-41.605	23.7432
-38.0688	-44.36771	23.75293
-38.0673	-45.4428	23.7627
-38.0668	-47.533	23.7725
-38.0657	-45.0388	23.7822
-38.0657	-40.0252	23.792
-38.065	-42.9768	23.8018
-38.0627	-43.3596	23.8115
-38.0632	-47.5292	23.8213
-38.0617	-46.4436	23.8311
-38.0611	-42.3974	23.84082
-38.06028	-44.3138	23.8506
-38.0602	-41.0068	23.8604
-38.0586	-40.5188	23.8701
-38.058	-46.805	23.8799
-38.0577	-46.1715	23.8896
-38.0556	-48.1994	23.8994
-38.0549	-40.9119	23.90918
-38.0551	-40.0583	23.9189
-38.0537	-42.0659	23.9287
-38.0547	-45.822	23.9385
-38.05151	-47.7906	23.9482
-38.0516	-46.5108	23.958
-38.05061	-45.7529	23.9678
-38.0501	-41.0254	23.9775
-38.04921	-40.1556	23.9873
-38.0491	-41.8009	23.99707
-38.0481	-47.4059	24.0068
-38.0475	-50.358	24.0166
-38.0465	-46.6159	24.0264
-38.04417	-40.2485	24.0361
-38.0451	-38.037	24.0459
-38.0425	-42.7868	24.0557
-38.0425	-45.818	24.06543
-38.0417	-47.1308	24.0752
-38.042	-48.2477	24.085
-38.0409	-41.6484	24.0947
-38.0387	-40.5485	24.1045
-38.0391	-41.0101	24.1143
-38.0384	-43.2199	24.124
-38.0371	-50.52771	24.1338
-38.0363	-47.5964	24.1436
-38.0352	-43.3579	24.15332
-38.0344	-40.4981	24.1631
-38.0336	-40.1445	24.1729
-38.0333	-45.4141	24.1826
-38.0315	-45.2536	24.1924
-38.0311	-48.1938	24.2021
-38.0295	-46.0264	24.2119
-38.0298	-40.8394	24.22168
-38.0286	-40.65247	24.2314
-38.0274	-41.5563	24.2412
-38.0267	-47.1734	24.251
-38.0264	-47.228	24.2607
-38.0253	-44.5066	24.2705
-38.0249	-42.2871	24.2803
-38.02401	-40.9591	24.29
-38.0229	-42.9866	24.2998
-38.02216	-43.9227	24.30957
-38.0221	-44.4653	24.3193
-38.0204	-46.1953	24.3291
-38.02	-45.2052	24.3389
-38.0184	-41.9533	24.3486
-38.0176	-40.3182	24.3584
-38.0166	-44.1295	24.3682
-38.0157	-46.333	24.37793
-38.0154	-47.6364	24.3877
-38.0148	-42.7822	24.3975
-38.0137	-41.9883	24.4072
-38.0121	-44.3542	24.417
-38.0114	-41.7457	24.4268
-38.0115	-43.1546	24.4365
-38.0106	-45.4206	24.4463
-38.0093	-48.5161	24.4561
-38.0095	-46.6399	24.46582
-38.0094	-40.047	24.4756
-38.0077	-41.6918	24.4854
-38.0067	-41.6476	24.4951
-38.0045	-46.5586	24.5049
-38.00491	-46.4516	24.5146
-38.0042	-43.72	24.5244
-38.004	-45.61488	24.53418
-38.0021	-40.61916	24.5439
-38.0017	-41.1559	24.5537
-38.001	-44.3383	24.5635
-37.9999	-46.2934	24.5732
-38.0005	-49.0037	24.583
-37.9989	-43.6014	24.5928
-37.9985	-40.7749	24.6025
-37.9971	-40.9921	24.6123
-37.9966	-42.3595	24.62207
-37.9966	-49.1885	24.6318
-37.9937	-47.623	24.6416
-37.9934	-45.7011	24.6514
-37.9927	-43.6219	24.6611
-37.99226	-39.2074	24.6709
-37.9913	-41.4347	24.6807
-37.9895	-46.9674	24.69043
-37.9897	-49.4473	24.7002
-37.9882	-46.87	24.71
-37.9886	-41.343	24.7197
-37.9873	-38.8049	24.7295
-37.9866	-41.99036	24.7393
-37.9867	-46.2365	24.749
-37.9846	-45.3095	24.7588
-37.9839	-49.6124	24.7686
-37.98299	-43.0156	24.77832
-37.9826	-42.6134	24.7881
-37.9821	-40.7014	24.7979
-37.9803	-41.8887	24.8076
-37.9786	-51.0451	24.8174
-37.9782	-46.103	24.8271
-37.97789	-45.2442	24.8369
-37.9769	-41.906	24.84668
-37.9761	-39.8432	24.8564
-37.9748	-43.8542	24.8662
-37.9755	-44.0274	24.876
-37.9748	-47.965	24.8857
-37.9738	-47.7212	24.8955
-37.9717	-43.8283	24.9053
-37.972	-40.7905	24.915
-37.9709	-38.2202	24.9248
-37.9707	-47.2704	24.93457
-37.9696	-46.272	24.9443
-37.968	-46.9068	24.9541
-37.9673	-43.6505	24.9639
-37.9664	-41.6026	24.9736
-37.96566	-44.49662	24.9834
-37.9646	-43.5111	24.9932
-37.96434	-43.8367	25.00293
-37.964	-47.3274	25.0127
-37.9635	-47.1144	25.0225
-37.9618	-43.5475	25.0322
-37.961	-40.4367	25.042
-37.96	-42.4106	25.0518
-37.9594	-44.8546	25.0615
-37.9588	-46.7538	25.0713
-37.9582	-45.4957	25.0811
-37.9574	-42.9611	25.09082
-37.956	-43.44	25.1006
-37.955	-40.0902	25.1104
-37.9547	-40.1962	25.1201
-37.9542	-44.2739	25.1299
-37.9524	-48.9727	25.1396
-37.9526	-47.3812	25.1494
-37.9523	-42.3135	25.15918
-37.9495	-41.4901	25.1689
-37.9496	-39.9017	25.1787
-37.948	-45.1524	25.1885
-37.9485	-47.3971	25.1982
-37.9471	-43.6335	25.208
-37.9463	-45.3228	25.2178
-37.9457	-40.23077	25.2275