File: data/processed_data_files/tensile/0.254_solid_dimension_typeiv_090_r(1).dat
MTS793|BTW|ENU|1|2|.|/|:|1|0|0|A

Data Header:			0.254_solid_uprint_typeiv_090_r0			Time:	20.0173	s	4/14/2019 1:33:05 AM
Data Acquisition:	Timed
Station Name:	ft40.cfg
Test File Name:	monotonic_0.2540_typeiv_solid_090_uprint.tst
Displacement	Force	Running Time
mm	N	s
-40.042	-242.7818	0.0224609
-40.0407	-234.4023	0.0419922
-40.0401	-238.986	0.0615234
-40.0413	-241.42	0.0810547
-40.0388	-238.765	0.100586
-40.0375	-231.131	0.120117
-40.0358	-238.557	0.139648
-40.03339	-235.618	0.15918
-40.0324	-232.25	0.178711
-40.0307	-232.252	0.198242
-40.0291	-233.988	0.217773
-40.0278	-228.5905	0.237305
-40.025	-231.389	0.256836
-40.0251	-231.342	0.276367
-40.0223	-227.186	0.295898
-40.021	-225.691	0.31543
-40.02	-228.626	0.334961
-40.0176	-225.833	0.354492
-40.0158	-219.998	0.374023
-40.0142	-222.838	0.393555
-40.01268	-222.3201	0.413086
-40.01152	-220.205	0.432617
-40.0095	-219.147	0.452148
-40.0084	-223.272	0.47168
-40.0066	-215.461	0.491211
-40.0043	-219.513	0.510742
-40.0026	-218.381	0.530273
-40.001	-212.172	0.549805
-39.9993	-210.479	0.569336
-39.9998	-218.0761	0.588867
-39.9964	-209.634	0.608398
-39.9952	-209.983	0.62793
-39.9934	-212.196	0.647461
-39.99197	-210.416	0.666992
-39.99	-204.575	0.686523
-39.988	-212.174	0.706055
-39.987	-206.314	0.725586
-39.9846	-202.973	0.745117
-39.9847	-204.666	0.764648
-39.9816	-204.822	0.78418
-39.9798	-197.875	0.803711
-39.97879	-202.908	0.823242
-39.9767	-201.801	0.842773
-39.9756	-199.1039	0.862305
-39.9743	-197.0412	0.881836
-39.97298	-199.595	0.901367
-39.9713	-195.204	0.920898
-39.9686	-196.246	0.94043
-39.9659	-197.894	0.959961
-39.96608	-194.762	0.979492
-39.9632	-189.93	0.999023
-39.9614	-191.717	1.01855
-39.9609	-193.182	1.03809
-39.9578	-189.098	1.05762
-39.9572	-189.839	1.07715
-39.95536	-190.868	1.09668
-39.953	-185.441	1.11621
-39.9535	-184.731	1.13574
-39.9515	-190.203	1.15527
-39.9481	-181.953	1.1748
-39.9482	-181.618	1.19434
-39.9449	-186.224	1.21387
-39.9447	-181.091	1.2334
-39.9436	-177.558	1.25293
-39.9406	-183.883	1.27246
-39.939	-177.934	1.29199
-39.9378	-175.954	1.31152
-39.9369	-177.139	1.33105
-39.9342	-176.6053	1.35059
-39.9331	-168.718	1.37012
-39.9313	-178.0074	1.38965
-39.9297	-172.068	1.40918
-39.9289	-169.141	1.42871
-39.9263	-169.326	1.44824
-39.9256	-171.131	1.46777
-39.9243	-166.147	1.4873
-39.9217	-168.045	1.50684
-39.92	-167.93	1.52637
-39.918	-165.971	1.5459
-39.9162	-163.207	1.56543
-39.9171	-165.009	1.58496
-39.9139	-161.129	1.60449
-39.91301	-162.033	1.62402
-39.9103	-161.916	1.64355
-39.9087	-162.49	1.66309
-39.9075	-155.461	1.68262
-39.9059	-158.3165	1.70215
-39.9041	-159.15	1.72168
-39.9021	-156.347	1.74121
-39.9007	-153.214	1.76074
-39.8994	-157.123	1.78027
-39.8987	-150.678	1.7998
-39.895	-149.288	1.81934
-39.8935	-156.299	1.83887
-39.8934	-148.3407	1.8584
-39.8906	-146.071	1.87793
-39.8892	-150.439	1.89746
-39.88781	-148.486	1.91699
-39.8864	-141.447	1.93652
-39.8841	-148.366	1.95605
-39.8833	-144.317	1.97559
-39.8814	-141.4498	1.99512
-39.8799	-142.701	2.01465
-39.8784	-142.735	2.03418
-39.8762	-134.676	2.05371
-39.87553	-139.746	2.07324
-39.8723	-137.304	2.09277
-39.8704	-135.404	2.1123
-39.8713	-133.096	2.13184
-39.8688	-136.24	2.15137
-39.86647	-131.858	2.1709
-39.8648	-133.405	2.19043
-39.8637	-132.239	2.20996
-39.8621	-132.14	2.22949
-39.8605	-127.373	2.24902
-39.85862	-131.1779	2.26855
-39.8565	-129.174	2.28809
-39.8562	-125.935	2.30762
-39.8538	-124.882	2.32715
-39.8515	-126.945	2.34668
-39.8513	-121.053	2.36621
-39.8488	-120.514	2.38574
-39.8474	-124.549	2.40527
-39.8459	-120.4863	2.4248
-39.8443	-117.998	2.44434
-39.84169	-121.714	2.46387
-39.8414	-117.7202	2.4834
-39.8379	-113.667	2.50293
-39.8378	-120.9743	2.52246
-39.8352	-117.266	2.54199
-39.83379	-111.845	2.56152
-39.8332	-115.38	2.58105
-39.8303	-116.204	2.60059
-39.8286	-107.521	2.62012
-39.8279	-112.379	2.63965
-39.8259	-109.751	2.65918
-39.8242	-104.974	2.67871
-39.82201	-107.056	2.69824
-39.8218	-108.849	2.71777
-39.81884	-100.112	2.7373
-39.8179	-103.3259	2.75684
-39.8156	-106.794	2.77637
-39.8139	-103.6025	2.7959
-39.8122	-97.17382	2.81543
-39.811	-101.508	2.83496
-39.8094	-97.1171	2.85449
-39.8084	-98.3358	2.87402
-39.8065	-97.4505	2.89355
-39.8042	-96.6121	2.91309
-39.8017	-90.9037	2.93262
-39.8011	-96.2628	2.95215
-39.7998	-95.5195	2.97168
-39.7985	-90.5779	2.99121
-39.7959	-90.0302	3.01074
-39.7946	-93.7427	3.03027
-39.79356	-87.6862	3.0498
-39.7916	-86.2107	3.06934
-39.78952	-89.5528	3.08887
-39.78931	-87.7484	3.1084
-39.7864	-82.2299	3.12793
-39.7853	-87.0827	3.14746
-39.784	-84.3322	3.16699
-39.7818	-76.17424	3.18652
-39.7805	-84.4134	3.20605
-39.7788	-84.7119	3.22559
-39.7774	-75.1875	3.24512
-39.7746	-78.3696	3.26465
-39.7742	-80.381	3.28418
-39.772	-72.4131	3.30371
-39.7712	-75.2647	3.32324
-39.76878	-75.6329	3.34277
-39.7668	-70.0881	3.3623
-39.7656	-67.784	3.38184
-39.7637	-73.5348	3.40137
-39.7619	-67.2397	3.4209
-39.7598	-66.8079	3.44043
-39.7601	-68.6963	3.45996
-39.7567	-66.8413	3.47949
-39.7552	-62.1614	3.49902
-39.7542	-65.3027	3.51855
-39.7525	-62.0746	3.53809
-39.7503	-62.4206	3.55762
-39.7501	-60.6657	3.57715
-39.7466	-63.7627	3.59668
-39.7461	-55.5468	3.61621
-39.744	-56.5347	3.63574
-39.7423	-58.7936	3.65527
-39.7408	-57.5179	3.6748
-39.7398	-51.47451	3.69434
-39.7387	-57.1857	3.71387
-39.7371	-53.0721	3.7334
-39.7358	-50.0489	3.75293
-39.7329	-54.4407	3.77246
-39.7318	-52.1767	3.79199
-39.7311	-43.8928	3.81152
-39.7276	-51.5785	3.83105
-39.7276	-49.7176	3.85059
-39.7255	-43.8367	3.87012
-39.7228	-47.3179	3.88965
-39.7218	-48.4242	3.90918
-39.72	-40.9818	3.92871
-39.71896	-42.0667	3.94824
-39.71722	-44.4622	3.96777
-39.7156	-38.5697	3.9873
-39.714	-41.9199	4.00684
-39.711	-41.8137	4.02637
-39.7088	-37.8979	4.0459
-39.7091	-33.3443	4.06543
-39.7069	-38.6076	4.08496
-39.7061	-35.36124	4.10449
-39.7044	-32.9541	4.12402
-39.7028	-32.4964	4.14355
-39.7021	-32.932	4.16309
-39.6992	-27.77319	4.18262
-39.6969	-32.0211	4.20215
-39.6948	-28.3453	4.22168
-39.6928	-26.6347	4.24121
-39.6925	-25.1486	4.26074
-39.6905	-31.2252	4.28027
-39.69	-21.9372	4.2998
-39.6882	-21.8376	4.31934
-39.6853	-24.6478	4.33887
-39.68478	-23.4874	4.3584
-39.6828	-18.4898	4.37793
-39.6817	-23.9785	4.39746
-39.6794	-18.48193	4.41699
-39.6769	-15.2841	4.43652
-39.6751	-18.6936	4.45605
-39.6752	-21.26544	4.47559
-39.6727	-9.25172	4.49512
-39.6716	-15.3205	4.51465
-39.6683	-16.7744	4.53418
-39.6693	-9.96716	4.55371
-39.6659	-10.1818	4.57324
-39.6647	-13.99063	4.59277
-39.663	-6.89744	4.6123
-39.66153	-7.41229	4.63184
-39.6612	-11.9624	4.65137
-39.6577	-3.3594	4.6709
-39.6565	-1.78961	4.69043
-39.6548	-8.45756	4.70996
-39.6531	-4.38964	4.72949
-39.6522	2.11586	4.74902
-39.65	-3.59155	4.76855
-39.6493	-1.11373	4.78809
-39.6469	0.3527202	4.80762
-39.6458	1.70309	4.82715
-39.6436	0.851608	4.84668
-39.6412	7.62717	4.86621
-39.6404	5.41086	4.88574
-39.6391	4.20707	4.90527
-39.6366	7.52206	4.9248
-39.6345	11.9771	4.94434
-39.6343	5.588788	4.96387
-39.6328	10.5715	4.9834
-39.63084	11.8098	5.00293
-39.6294	10.84761	5.02246
-39.6276	9.58036	5.04199
-39.6255	15.5574	5.06152
-39.62429	10.6988	5.08105
-39.6237	14.8691	5.10059
-39.622	20.7209	5.12012
-39.619	16.8588	5.13965
-39.61718	13.1318	5.15918
-39.61615	23.8554	5.17871
-39.6146	21.51478	5.19824
-39.6125	17.8004	5.21777
-39.612	24.98966	5.2373
-39.6086	24.3703	5.25684
-39.6081	19.6547	5.27637
-39.6062	28.1115	5.2959
-39.6044	27.0661	5.31543
-39.6031	23.0029	5.33496
-39.6017	29.3191	5.35449
-39.5996	34.2924	5.37402
-39.5981	26.7398	5.39355
-39.5966	29.3718	5.41309
-39.595	36.1745	5.43262
-39.5945	34.2652	5.45215
-39.5909	34.5914	5.47168
-39.5911	36.7323	5.49121
-39.588	35.8197	5.51074
-39.5866	33.935	5.53027
-39.5861	42.0211	5.5498
-39.58313	40.7045	5.56934
-39.582	37.6715	5.58887
-39.5804	39.534	5.6084
-39.5784	46.4966	5.62793
-39.5775	40.5913	5.64746
-39.5741	45.5886	5.66699
-39.57336	48.44701	5.68652
-39.5717	48.1388	5.70605
-39.5708	43.9633	5.72559
-39.5688	53.3318	5.74512
-39.56728	47.85574	5.76465
-39.5659	47.3038	5.78418
-39.5634	55.5325	5.80371
-39.5623	54.2833	5.82324
-39.5615	47.2217	5.84277
-39.5591	59.1899	5.8623
-39.5568	57.9398	5.88184
-39.5555	56.6262	5.90137
-39.5535	59.7489	5.9209
-39.5536	62.3814	5.94043
-39.5519	55.0165	5.95996
-39.5488	63.393	5.97949
-39.5473	64.0871	5.99902
-39.54533	59.164	6.01855
-39.5447	63.1601	6.03809
-39.5428	68.30854	6.05762
-39.541	63.1409	6.07715
-39.5391	64.11158	6.09668
-39.53804	68.20472	6.11621
-39.536	67.5727	6.13574
-39.53479	68.3621	6.15527
-39.533	71.1908	6.1748
-39.531	71.687	6.19434
-39.5299	69.4539	6.21387
-39.5282	76.3504	6.2334
-39.5264	74.8284	6.25293
-39.5248	74.1118	6.27246
-39.5227	74.2047	6.29199
-39.522	80.8499	6.31152
-39.5203	76.5354	6.33105
-39.5187	77.8281	6.35059
-39.5166	84.8549	6.37012
-39.51543	83.4612	6.38965
-39.5137	78.7758	6.40918
-39.5123	88.0195	6.42871
-39.5104	83.9691	6.44824
-39.5088	81.2559	6.46777
-39.5078	92.3252	6.4873
-39.5057	92.5787	6.50684
-39.50423	81.7342	6.52637
-39.5023	91.3276	6.5459
-39.5008	92.1597	6.56543
-39.4988	90.2419	6.58496
-39.497	92.9935	6.60449
-39.4962	97.3703	6.62402
-39.49369	90.7736	6.64355
-39.49189	95.1392	6.66309
-39.4908	99.60804	6.68262
-39.4893	97.3291	6.70215
-39.4887	96.5846	6.72168
-39.4861	101.127	6.74121
-39.4838	100.255	6.76074
-39.4834	99.30954	6.78027
-39.4813	104.441	6.7998
-39.4792	103.631	6.81934
-39.4775	103.912	6.83887
-39.4763	106.184	6.8584
-39.4742	109.813	6.87793
-39.4735	104.531	6.89746
-39.47102	107.7298	6.91699
-39.46904	112.903	6.93652
-39.4673	108.8602	6.95605
-39.4652	106.363	6.97559
-39.4656	115.4138	6.99512
-39.4635	112.372	7.01465
-39.4622	113.176	7.03418
-39.4589	117.926	7.05371
-39.4572	117.861	7.07324
-39.4552	110.814	7.09277
-39.4548	122.746	7.1123
-39.4532	119.997	7.13184
-39.4509	115.732	7.15137
-39.4506	122.446	7.1709
-39.4486	126.422	7.19043
-39.4465	118.936	7.20996
-39.4444	125.054	7.22949
-39.4421	125.694	7.24902
-39.4409	124.847	7.26855
-39.4418	127.989	7.28809
-39.4391	133.092	7.30762
-39.4382	125.38	7.32715
-39.4353	129.5128	7.34668
-39.4337	133.159	7.36621
-39.4323	132.353	7.38574
-39.4313	130.153	7.40527
-39.4289	136.256	7.4248
-39.427	134.9445	7.44434
-39.4262	134.511	7.46387
-39.4245	138.622	7.4834
-39.4222	139.974	7.50293
-39.4211	137.923	7.52246
-39.4196	139.8262	7.54199
-39.4174	143.742	7.56152
-39.416	140.878	7.58105
-39.4138	141.274	7.60059
-39.4127	146.354	7.62012
-39.4112	147.523	7.63965
-39.409	141.954	7.65918
-39.4081	149.541	7.67871
-39.4052	148.642	7.69824
-39.4037	145.44	7.71777
-39.4035	150.385	7.7373
-39.4009	152.229	7.75684
-39.4002	145.984	7.77637
-39.3983	155.162	7.7959
-39.3969	156.73	7.81543
-39.3955	153.47	7.83496
-39.3929	156.664	7.85449
-39.3914	160.305	7.87402
-39.3893	153.136	7.89355
-39.3889	157.6666	7.91309
-39.38615	161.234	7.93262
-39.3849	157.679	7.95215
-39.3847	158.548	7.97168
-39.3822	167.1069	7.99121
-39.3805	160.424	8.01074
-39.3781	160.768	8.03027
-39.3766	166.092	8.0498
-39.3744	168.0354	8.06934
-39.3734	164.284	8.08887
-39.3729	169.368	8.1084
-39.3704	168.361	8.12793
-39.3689	169.257	8.14746
-39.3677	169.221	8.16699
-39.3644	173.722	8.18652
-39.3652	170.286	8.20605
-39.3611	169.477	8.22559
-39.36105	177.745	8.24512
-39.3589	173.944	8.26465
-39.35656	173.337	8.28418
-39.3565	176.565	8.30371
-39.3549	179.408	8.32324
-39.3529	174.837	8.34277
-39.3505	182.225	8.3623
-39.3488	180.849	8.38184
-39.3465	177.956	8.40137
-39.3456	182.664	8.4209
-39.3435	187.229	8.44043
-39.3414	179.915	8.45996
-39.3418	186.041	8.47949
-39.3398	188.479	8.49902
-39.3385	185.204	8.51855
-39.3361	187.774	8.53809
-39.3346	193.6837	8.55762
-39.3325	186.85	8.57715
-39.3312	191.26	8.59668
-39.33	193.318	8.61621
-39.32798	192.823	8.63574
-39.3269	190.484	8.65527
-39.3247	199.8334	8.6748
-39.3236	195.959	8.69434
-39.3207	195.929	8.71387
-39.3196	197.17	8.7334
-39.3187	201.654	8.75293
-39.3164	198.057	8.77246
-39.3146	199.842	8.79199
-39.3126	199.725	8.81152
-39.3123	201.749	8.83105
-39.3099	202.833	8.85059
-39.3076	208.355	8.87012
-39.3068	204.523	8.88965
-39.3053	202.142	8.90918
-39.3023	208.769	8.92871
-39.3024	208.902	8.94824
-39.3006	206.687	8.96777
-39.2988	210.576	8.9873
-39.2976	213.848	9.00684
-39.2954	207.061	9.02637
-39.2934	214.21	9.0459
-39.2919	214.598	9.06543
-39.2912	210.8541	9.08496
-39.2892	214.442	9.10449
-39.288	222.384	9.12402
-39.2856	214.015	9.14355
-39.2848	216.75	9.16309
-39.2823	221.522	9.18262
-39.2806	220.036	9.20215
-39.279	218.558	9.22168
-39.2784	226.75	9.24121
-39.2771	220.607	9.26074
-39.27446	222.071	9.28027
-39.27272	227.453	9.2998
-39.2712	229.364	9.31934
-39.2695	224.481	9.33887
-39.2678	230.047	9.3584
-39.2664	228.472	9.37793
-39.2646	229.338	9.39746
-39.26218	229.776	9.41699
-39.2612	236.433	9.43652
-39.2598	232.407	9.45605
-39.2585	232.139	9.47559
-39.2568	237.7513	9.49512
-39.2548	235.527	9.51465
-39.2531	233.137	9.53418
-39.2514	241.254	9.55371
-39.2501	238.759	9.57324
-39.2481	236.048	9.59277
-39.2483	239.577	9.6123
-39.2454	243.875	9.63184
-39.2427	238.591	9.65137
-39.2413	244.295	9.6709
-39.23999	246.534	9.69043
-39.2378	241.072	9.70996
-39.2366	244.709	9.72949
-39.2353	251.216	9.74902
-39.233	244.631	9.76855
-39.2323	245.4194	9.78809
-39.2313	253.971	9.80762
-39.228	249.0361	9.82715
-39.2278	248.139	9.84668
-39.2242	253.393	9.86621
-39.2233	252.6055	9.88574
-39.223	249.84	9.90527
-39.2213	259.209	9.9248
-39.2196	254.019	9.94434
-39.21693	254.653	9.96387
-39.21553	258.412	9.9834
-39.2143	262.899	10.00293
-39.2124	256.44	10.0225
-39.2113	261.604	10.042
-39.2091	262.353	10.0615
-39.2079	261.584	10.0811
-39.2062	260.727	10.1006
-39.2044	267.154	10.1201
-39.2033	264.048	10.1396
-39.2012	264.228	10.15918
-39.1992	268.456	10.1787
-39.1974	269.33	10.1982
-39.19677	262.521	10.2178
-39.1944	272.12	10.2373
-39.1938	273.405	10.2568
-39.1914	268.433	10.2764
-39.1896	270.728	10.2959
-39.1883	276.545	10.31543
-39.1866	271.669	10.335
-39.1847	275.253	10.3545
-39.1832	279.546	10.374
-39.1812	271.815	10.3936
-39.1794	273.657	10.4131
-39.1788	280.696	10.4326
-39.1763	278.678	10.4521
-39.1746	275.499	10.47168
-39.1739	284.922	10.4912
-39.1723	279.751	10.5107
-39.1702	279.715	10.5303
-39.1691	285.492	10.5498
-39.1658	285.621	10.5693
-39.1651	282.124	10.5889
-39.1637	289.121	10.6084
-39.1625	288.414	10.62793
-39.16169	284.466	10.6475
-39.1581	286.193	10.667
-39.15847	294.206	10.6865
-39.1559	289.084	10.7061
-39.1542	292.579	10.7256
-39.15176	292.722	10.7451
-39.1493	293.817	10.7646
-39.1493	290.823	10.78418
-39.1479	298.942	10.8037
-39.1454	296.09	10.8232
-39.1445	294.778	10.8428
-39.1419	297.8847	10.8623
-39.141	301.511	10.8818
-39.1401	295.466	10.9014
-39.1383	301.537	10.9209
-39.1363	304.561	10.94043
-39.1339	300.703	10.96
-39.1336	300.792	10.9795
-39.1315	308.382	10.999
-39.1305	301.184	11.0186
-39.12674	303.529	11.0381
-39.1256	312.78	11.0576
-39.1247	305.4715	11.0771
-39.1227	303.873	11.09668
-39.1221	312.35	11.1162
-39.1197	311.722	11.1357
-39.1191	306.779	11.1553
-39.11631	315.4541	11.1748
-39.1145	311.695	11.1943
-39.1125	309.278	11.2139
-39.1127	314.728	11.2334
-39.1094	318.432	11.25293
-39.1084	312.124	11.2725
-39.1073	317.845	11.292
-39.1048	319.248	11.3115
-39.1034	318.399	11.3311
-39.1026	316.129	11.3506
-39.1006	322.383	11.3701
-39.0989	320.912	11.3896
-39.0974	321.28	11.40918
-39.09478	322.295	11.4287
-39.0936	324.779	11.4482
-39.0922	318.6788	11.4678
-39.0905	327.008	11.4873
-39.0887	326.579	11.5068
-39.0874	324.364	11.5264
-39.0853	325.8866	11.5459
-39.0832	334.058	11.56543
-39.0808	327.012	11.585
-39.0798	329.676	11.6045
-39.0803	334.768	11.624
-39.07724	330.481	11.6436
-39.0763	329.684	11.6631
-39.0733	339.2388	11.6826
-39.0724	332.697	11.7021
-39.0711	331.155	11.72168
-39.0695	340.312	11.7412
-39.0672	336.749	11.7607
-39.0658	331.585	11.7803
-39.064	340.344	11.7998
-39.0633	339.684	11.8193
-39.0601	336.675	11.8389
-39.0595	343.887	11.8584
-39.05743	344.395	11.87793
-39.0569	339.919	11.8975
-39.0542	343.405	11.917
-39.0531	348.375	11.9365
-39.0502	342.404	11.9561
-39.0507	344.894	11.9756
-39.0485	348.982	11.9951
-39.0464	348.511	12.0146
-39.0459	344.354	12.03418
-39.043	352.833	12.0537
-39.0406	350.816	12.0732
-39.0402	349.117	12.0928
-39.0389	353.064	12.1123
-39.037	355.0126	12.1318
-39.0355	347.3093	12.1514
-39.0339	356.123	12.1709
-39.0317	358.641	12.19043
-39.0299	353.481	12.21
-39.02829	352.413	12.2295
-39.0273	362.291	12.249
-39.0254	354.928	12.2686
-39.0235	358.99	12.2881
-39.0227	363.2641	12.3076
-39.0201	361.254	12.3271
-39.0187	357.0549	12.34668
-39.0173	367.758	12.3662
-39.0153	362.768	12.3857
-39.0138	359.554	12.4053
-39.0116	368.633	12.4248
-39.0108	367.575	12.4443
-39.0099	360.233	12.4639
-39.0081	367.391	12.4834
-39.0058	369.546	12.50293
-39.005	366.203	12.5225
-39.0031	371.121	12.542
-39.0018	372.892	12.5615
-38.9989	367.283	12.5811
-38.9979	368.165	12.6006
-38.9963	375.403	12.6201
-38.99432	370.896	12.6396
-38.99321	370.609	12.65918
-38.9922	376.259	12.6787
-38.9895	376.711	12.6982
-38.9884	372.307	12.7178
-38.9861	379.0816	12.7373
-38.9849	377.993	12.7568
-38.9836	376.398	12.7764
-38.981	378.629	12.7959
-38.9803	385.033	12.81543
-38.97715	375.591	12.835
-38.9767	380.822	12.8545
-38.9759	386.4136	12.874
-38.9736	383.734	12.8936
-38.9713	380.078	12.9131
-38.9704	389.09	12.9326
-38.96756	383.439	12.9521
-38.9676	383.095	12.97168
-38.9659	391.467	12.9912
-38.9637	389.297	13.0107
-38.962	382.571	13.0303
-38.9604	394.894	13.0498
-38.959	391.193	13.0693
-38.9572	386.546	13.0889
-38.9561	391.336	13.1084
-38.9535	397.244	13.12793
-38.9534	389.12	13.1475
-38.9492	392.323	13.167
-38.9493	396.1	13.1865
-38.9476	390.319	13.2061
-38.9462	395.175	13.2256
-38.9432	399.691	13.2451
-38.942	393.419	13.2646
-38.9413	394.744	13.28418
-38.9396	401.245	13.3037
-38.9369	397.947	13.3232
-38.9357	398.062	13.3428
-38.9349	399.392	13.3623
-38.9322	402.836	13.3818
-38.9314	398.486	13.4014
-38.9285	403.87	13.4209
-38.9274	403.902	13.44043
-38.9262	400.828	13.46
-38.9245	401.923	13.4795
-38.9226	409.968	13.499
-38.9208	401.832	13.5186
-38.9197	404.621	13.5381
-38.9192	410.325	13.5576
-38.91655	408.287	13.5771
-38.9162	403.406	13.59668
-38.9139	413.144	13.6162
-38.9118	408.895	13.6357
-38.9091	408.5	13.6553
-38.9091	415.043	13.6748
-38.9067	414.782	13.6943
-38.90424	405.203	13.7139
-38.9025	415.399	13.7334
-38.902	416.328	13.75293
-38.8999	411.713	13.7725
-38.8992	415.466	13.792
-38.8963	419.084	13.8115
-38.8952	412.595	13.8311
-38.8934	418.496	13.8506
-38.8921	419.0506	13.8701
-38.8901	416.434	13.8896
-38.8893	416.204	13.90918
-38.8875	422.363	13.9287
-38.8857	418.987	13.9482
-38.8841	416.858	13.9678
-38.8824	422.255	13.9873
-38.88	421.267	14.0068
-38.8786	421.259	14.0264
-38.8775	421.937	14.0459
-38.8757	424.288	14.06543
-38.8744	419.89	14.085
-38.8726	424.408	14.1045
-38.87096	426.883	14.124
-38.8696	423.931	14.1436
-38.8685	422.137	14.1631
-38.86705	431.9	14.1826
-38.8651	424.741	14.2021
-38.8626	425.1	14.22168
-38.8612	430.829	14.2412
-38.8588	430.813	14.2607
-38.8581	422.986	14.2803
-38.8574	433.099	14.2998
-38.8546	430.193	14.3193
-38.8532	427.22	14.3389
-38.8507	433.81	14.3584
-38.8495	435.777	14.37793
-38.8476	426.553	14.3975
-38.8469	433.644	14.417
-38.8459	435.762	14.4365
-38.8439	432.572	14.4561
-38.8411	435.278	14.4756
-38.83952	440.075	14.4951
-38.8381	432.958	14.5146
-38.8368	437.168	14.53418
-38.8346	439.545	14.5537
-38.83353	435.09	14.5732
-38.8319	434.042	14.5928
-38.8305	440.758	14.6123
-38.82835	440.107	14.6318
-38.827	435.4183	14.6514
-38.8256	439.01	14.6709
-38.8224	441.518	14.69043
-38.8226	440.05	14.71
-38.8194	440.24	14.7295
-38.81958	443.766	14.749
-38.81744	438.836	14.7686
-38.8158	440.292	14.7881
-38.8131	445.801	14.8076
-38.8126	443.979	14.8271
-38.8105	437.159	14.84668
-38.8076	447.5748	14.8662
-38.8078	444.454	14.8857
-38.8047	442.7948	14.9053
-38.8047	447.11	14.9248
-38.8027	449.622	14.9443
-38.8016	440.637	14.9639
-38.7988	450.293	14.9834
-38.798	450.791	15.00293
-38.7956	444.184	15.0225
-38.7949	448.818	15.042
-38.7934	454.513	15.0615
-38.7907	442.927	15.0811
-38.7887	447.956	15.1006
-38.788	452.132	15.1201
-38.7861	450.484	15.1396
-38.78484	448.313	15.15918
-38.7834	453.768	15.1787
-38.782	446.92	15.1982
-38.7795	448.745	15.2178
-38.7784	453.176	15.2373
-38.7766	452.712	15.2568
-38.7741	448.095	15.2764
-38.7733	451.621	15.2959
-38.772	453.893	15.31543
-38.7704	449.9617	15.335
-38.7679	451.803	15.3545
-38.76683	454.595	15.374
-38.7653	452.083	15.3936
-38.7634	451.739	15.4131
-38.7613	456.88	15.4326
-38.7607	452.134	15.4521
-38.75795	451.167	15.47168
-38.7564	455.56	15.4912
-38.75552	457.738	15.5107
-38.7533	449.884	15.5303
-38.7535	458.024	15.5498
-38.7507	455.979	15.5693
-38.74847	452.264	15.5889
-38.7468	456.191	15.6084
-38.746	460.789	15.62793
-38.744	450.493	15.6475
-38.7413	456.468	15.667
-38.74057	458.793	15.6865
-38.7388	455.343	15.7061
-38.7368	453.732	15.7256
-38.7371	461.821	15.7451
-38.7346	454.028	15.7646
-38.732	456.298	15.78418
-38.7311	457.816	15.8037
-38.73	458.228	15.8232
-38.7272	453.4144	15.8428
-38.72665	463.427	15.8623
-38.7253	455.983	15.8818
-38.7224	456.4346	15.9014
-38.72081	458.216	15.9209
-38.7187	460.701	15.94043
-38.7182	455.363	15.96
-38.7158	455.916	15.9795
-38.7148	458.457	15.999
-38.7128	456.7373	16.0186
-38.7112	456.653	16.0381
-38.7101	461.104	16.0576
-38.7086	457.92	16.0771
-38.7055	455.556	16.09668
-38.7043	460.577	16.1162
-38.7037	460.827	16.1357
-38.7018	454.903	16.1553
-38.7006	461.726	16.1748
-38.699	463.167	16.1943
-38.6959	455.673	16.2139
-38.6962	460.904	16.2334
-38.6942	461.198	16.25293
-38.693	457.019	16.2725
-38.6902	458.89	16.292
-38.6895	463.611	16.3115
-38.6867	455.161	16.3311
-38.685	458.775	16.3506
-38.6837	463.083	16.3701
-38.6818	459.61	16.3896
-38.681	457.3374	16.40918
-38.679	462.63	16.4287
-38.6792	456.102	16.4482
-38.6764	458.012	16.4678
-38.674	460.29	16.4873
-38.6729	461.4209	16.5068
-38.6705	455.741	16.5264
-38.66853	461.509	16.5459
-38.6674	459.119	16.56543
-38.6663	456.312	16.585
-38.6639	456.9761	16.6045
-38.6622	462.2066	16.624
-38.6608	457.013	16.6436
-38.66	459.2	16.6631
-38.6566	458.594	16.6826
-38.656	458.98	16.7021
-38.6545	456.412	16.72168
-38.6529	461.64	16.7412
-38.651	459.417	16.7607
-38.6483	455.325	16.7803
-38.6472	458.764	16.7998
-38.6469	462.022	16.8193
-38.6447	454.632	16.8389
-38.6428	458.342	16.8584
-38.6409	460.832	16.87793
-38.6389	454.378	16.8975
-38.6381	457.7	16.917
-38.6355	459.501	16.9365
-38.6347	455.4014	16.9561
-38.6331	455.682	16.9756
-38.6321	463.285	16.9951
-38.63	452.996	17.0146
-38.6278	455.128	17.03418
-38.6255	458.681	17.0537
-38.6243	458.318	17.0732
-38.6241	452.975	17.0928
-38.6212	459.686	17.1123
-38.62	454.219	17.1318
-38.6192	455.158	17.1514
-38.616	457.402	17.1709
-38.6149	459.773	17.19043
-38.6139	453.467	17.21
-38.61282	457	17.2295
-38.6106	457.056	17.249
-38.6089	457.301	17.2686
-38.6079	453.687	17.2881
-38.6045	459.72	17.3076
-38.6039	455.743	17.3271
-38.6028	454.3396	17.34668
-38.6007	456.362	17.3662
-38.5997	456.469	17.3857
-38.5979	451.155	17.4053
-38.5958	458.153	17.4248
-38.594	456.181	17.4443
-38.5912	450.704	17.4639
-38.591	453.113	17.4834
-38.5898	456.761	17.50293
-38.5877	451.389	17.5225
-38.5865	451.812	17.542
-38.584	458.287	17.5615
-38.583	449.82	17.5811
-38.581	450.29	17.6006
-38.5808	458.611	17.6201
-38.5785	451.53	17.6396
-38.57526	449.308	17.65918
-38.5737	458.914	17.6787
-38.5727	452.7142	17.6982
-38.5726	449.889	17.7178
-38.5699	452.225	17.7373
-38.5683	454.978	17.7568
-38.5667	450.459	17.7764
-38.5659	455.6239	17.7959
-38.5644	451.755	17.81543
-38.5623	451.486	17.835
-38.5602	450.295	17.8545
-38.558	455.144	17.874
-38.5565	448.707	17.8936
-38.5548	449.763	17.9131
-38.554	452.75	17.9326
-38.551	454.11	17.9521
-38.5499	445.2034	17.97168
-38.5496	453.994	17.9912
-38.5482	449.9949	18.0107
-38.5449	450.317	18.0303
-38.5423	450.267	18.0498
-38.5425	451.692	18.0693
-38.5396	444.484	18.0889
-38.5404	451.016	18.1084
-38.5377	454.398	18.12793
-38.5349	446.962	18.1475
-38.5333	447.0116	18.167
-38.5321	452.701	18.1865
-38.5301	446.586	18.2061
-38.5286	445.522	18.2256
-38.5279	452.677	18.2451
-38.5259	446.22	18.2646
-38.5243	444.2236	18.28418
-38.5225	452.509	18.3037
-38.5209	448.495	18.3232
-38.5193	442.55	18.3428
-38.5177	451.511	18.3623
-38.5155	447.99	18.3818
-38.5143	445.724	18.4014
-38.5121	447.598	18.4209
-38.5102	449.904	18.44043
-38.5106	444.254	18.46
-38.5087	449.617	18.4795
-38.5071	447.788	18.499
-38.5052	444.613	18.5186
-38.50333	444.5975	18.5381
-38.5006	452.4931	18.5576
-38.4995	446.425	18.5771
-38.4985	444.448	18.59668
-38.4969	447.248	18.6162
-38.4939	447.895	18.6357
-38.493	441.151	18.6553
-38.4933	448.959	18.6748
-38.4902	447.296	18.6943
-38.4893	445.1138	18.7139
-38.486	444.925	18.7334
-38.4856	450.421	18.75293
-38.4843	440.88	18.7725
-38.4826	445.989	18.792
-38.48016	449.645	18.8115
-38.478	443.7229	18.8311
-38.47715	441.583	18.8506
-38.4754	449.569	18.8701
-38.4737	444.777	18.8896
-38.4729	442.892	18.90918
-38.4719	448.485	18.9287
-38.4691	443.998	18.9482
-38.4669	439.256	18.9678
-38.4649	448.584	18.9873
-38.4642	446.314	19.0068
-38.4621	440.008	19.0264
-38.4608	446.129	19.0459
-38.4602	445.6077	19.06543
-38.4572	441.1152	19.085
-38.456	444.088	19.1045
-38.4542	447.033	19.124
-38.4528	440.533	19.1436
-38.4514	443.263	19.1631
-38.45	444.825	19.1826
-38.4477	444.42	19.2021
-38.4456	438.858	19.22168
-38.4441	448.3967	19.2412
-38.4431	445.454	19.2607
-38.4407	441.099	19.2803
-38.4393	442.096	19.2998
-38.4374	446.417	19.3193
-38.4357	439.234	19.3389
-38.4348	445.18	19.3584
-38.4334	446.232	19.37793
-38.4321	440.7092	19.3975
-38.431	439.743	19.417
-38.42907	448.943	19.4365
-38.4262	440.006	19.4561
-38.4239	441.506	19.4756
-38.4233	445.053	19.4951
-38.42173	441.982	19.5146
-38.4201	437.376	19.53418
-38.4185	445.133	19.5537
-38.4164	442.757	19.5732
-38.4145	439.3219	19.5928
-38.4133	445.386	19.6123
-38.412	443.086	19.6318
-38.41156	435.822	19.6514
-38.4088	444.715	19.6709
-38.406	446.1561	19.69043
-38.4057	438.1828	19.71
-38.4035	442.637	19.7295
-38.4017	441.219	19.749
-38.4002	439.545	19.7686
-38.3984	441.557	19.7881
-38.3971	445.224	19.8076
-38.39677	440.217	19.8271
-38.39349	440.718	19.84668
-38.3921	442.415	19.8662
-38.3903	442.767	19.8857
-38.3872	436.89	19.9053
-38.3872	444.03	19.9248
-38.3858	443.56	19.9443
-38.3835	440.136	19.9639
-38.3833	440.132	19.9834
-38.3816	445.723	20.00293
-38.37978	442.998	20.0127

Data Header:			0.254_solid_uprint_typeiv_090_r0			Time:	30.8262	s	4/14/2019 1:33:16 AM
Data Acquisition:	Timed
Station Name:	ft40.cfg
Test File Name:	monotonic_0.2540_typeiv_solid_090_uprint.tst
Displacement	Force	Running Time
mm	N	s
-38.3789	437.38	20.0225
-38.3788	434.568	20.0322
-38.3774	441.4693	20.042
-38.37669	443.07	20.0518
-38.3767	444.895	20.0615
-38.3741	442.631	20.0713
-38.3742	438.693	20.0811
-38.3738	438.634	20.09082
-38.37225	436.767	20.1006
-38.3726	441.508	20.1104
-38.371	446.171	20.1201
-38.3702	443.456	20.1299
-38.3691	438.45	20.1396
-38.3693	434.829	20.1494
-38.3689	436.741	20.15918
-38.3676	441.4324	20.1689
-38.3657	443.67	20.1787
-38.3664	443.299	20.1885
-38.3637	442.247	20.1982
-38.3638	437.738	20.208
-38.3614	434.673	20.2178
-38.3624	438.668	20.2275
-38.3619	443.581	20.2373
-38.36047	446.044	20.24707
-38.3595	441.795	20.2568
-38.358	436.887	20.2666
-38.3586	437.565	20.2764
-38.3578	438.1091	20.2861
-38.3568	443.003	20.2959
-38.356	442.585	20.3057
-38.35487	443.867	20.31543
-38.3538	441.438	20.3252
-38.35413	434.891	20.335
-38.353	438.764	20.3447
-38.352	440.746	20.3545
-38.3508	444.9758	20.3643
-38.3494	443.642	20.374
-38.3502	438.16	20.3838
-38.3479	438.23	20.3936
-38.347	438.572	20.40332
-38.3464	440.129	20.4131
-38.3464	441.799	20.4229
-38.346	441.085	20.4326
-38.3432	444.021	20.4424
-38.3435	438.659	20.4521
-38.343	436.838	20.4619
-38.3432	437.774	20.47168
-38.3404	440.091	20.4814
-38.3412	442.712	20.4912
-38.3392	440.4263	20.501
-38.3399	440.3616	20.5107
-38.3375	438.6174	20.5205
-38.3365	437.572	20.5303
-38.33651	439.24	20.54
-38.335	439.692	20.5498
-38.3345	442.838	20.55957
-38.3339	442.27	20.5693
-38.332	437.89	20.5791
-38.3311	434.903	20.5889
-38.3316	437.326	20.5986
-38.3309	441.037	20.6084
-38.3301	442.712	20.6182
-38.32909	442.396	20.62793
-38.3272	439.678	20.6377
-38.3261	439.058	20.6475
-38.3267	435.968	20.6572
-38.3256	436.994	20.667
-38.3244	441.9411	20.6768
-38.3235	444.311	20.6865
-38.3228	441.233	20.6963
-38.3225	436.605	20.7061
-38.3216	434.2261	20.71582
-38.3209	438.64	20.7256
-38.3198	438.16	20.7354
-38.3188	445.296	20.7451
-38.3189	442.065	20.7549
-38.3176	440.54	20.7646
-38.316	436.711	20.7744
-38.3144	432.7038	20.78418
-38.31525	437.474	20.7939
-38.3133	444.58	20.8037
-38.3128	443.808	20.8135
-38.312	439.811	20.8232
-38.312	434.042	20.833
-38.31	436.31	20.8428
-38.3107	439.417	20.8525
-38.3088	441.022	20.8623
-38.3084	443.31	20.87207
-38.3073	440.206	20.8818
-38.3067	436.902	20.8916
-38.3064	433.893	20.9014
-38.3047	435.445	20.9111
-38.3049	441.194	20.9209
-38.3035	443.284	20.9307
-38.3028	441.262	20.94043
-38.3014	437.3446	20.9502
-38.3005	434.906	20.96
-38.3012	437.203	20.9697
-38.29921	439.149	20.9795
-38.2983	440.694	20.9893
-38.2991	445.286	20.999
-38.2962	441.165	21.0088
-38.2965	435.033	21.0186
-38.2964	435.847	21.02832
-38.2956	438.173	21.0381
-38.2938	441.106	21.0479
-38.2925	443.087	21.0576
-38.2932	438.804	21.0674
-38.2909	438.775	21.0771
-38.2915	437.179	21.0869
-38.2898	439.036	21.09668
-38.2876	439.007	21.1064
-38.2898	440.241	21.1162
-38.2873	444.518	21.126
-38.2865	436.838	21.1357
-38.2849	437.29	21.1455
-38.2839	434.642	21.1553
-38.2845	438.39	21.165
-38.2829	442.478	21.1748
-38.2832	438.294	21.18457
-38.2814	440.439	21.1943
-38.2806	439.055	21.2041
-38.2803	436.666	21.2139
-38.2791	436.825	21.2236
-38.278	437.869	21.2334
-38.277	443.14	21.2432
-38.277	443.351	21.25293
-38.2757	438.361	21.2627
-38.2746	436.236	21.2725
-38.2748	435.158	21.2822
-38.2743	438.636	21.292
-38.2725	439.802	21.3018
-38.2718	442.3627	21.3115
-38.27169	442.387	21.3213
-38.2703	437.714	21.3311
-38.2691	434.02	21.34082
-38.2684	435.958	21.3506
-38.2671	437.8002	21.3604
-38.2685	443.712	21.3701
-38.2659	443.016	21.3799
-38.2649	436.615	21.3896
-38.2639	435.31	21.3994
-38.2632	435.153	21.40918
-38.2629	437.171	21.4189
-38.2624	442.214	21.4287
-38.2613	440.856	21.4385
-38.2601	439.755	21.4482
-38.2599	435.318	21.458
-38.2584	432.5585	21.4678
-38.2576	434.476	21.4775
-38.2574	441.687	21.4873
-38.2568	442.557	21.49707
-38.2558	438.753	21.5068
-38.2552	433.492	21.5166
-38.2547	434.042	21.5264
-38.2522	433.649	21.5361
-38.2524	438.397	21.5459
-38.2517	441.867	21.5557
-38.2499	440.482	21.56543
-38.2496	439.313	21.5752
-38.2493	431.549	21.585
-38.2477	435.3894	21.5947
-38.2473	439.122	21.6045
-38.2453	441.992	21.6143
-38.2446	440.283	21.624
-38.24456	434.302	21.6338
-38.2439	434.859	21.6436
-38.2444	435.5639	21.65332
-38.242	434.079	21.6631
-38.2413	438.221	21.6729
-38.2414	440.11	21.6826
-38.2408	439.406	21.6924
-38.2401	434.912	21.7021
-38.2386	432.238	21.7119
-38.2378	434.712	21.72168
-38.2373	440.866	21.7314
-38.2368	440.245	21.7412
-38.2354	437.944	21.751
-38.2347	437.213	21.7607
-38.2342	436.298	21.7705
-38.2322	436.03	21.7803
-38.2315	435.923	21.79
-38.2306	437.983	21.7998
-38.2301	442.069	21.80957
-38.22953	437.225	21.8193
-38.2285	437.308	21.8291
-38.2278	433.013	21.8389
-38.2267	435.769	21.8486
-38.2265	439.1908	21.8584
-38.2244	437.019	21.8682
-38.22435	440.304	21.87793
-38.2229	437.954	21.8877
-38.223	435.282	21.8975
-38.2222	432.546	21.9072
-38.2207	433.997	21.917
-38.2209	439.837	21.9268
-38.2185	441.507	21.9365
-38.2196	440.004	21.9463
-38.2183	435.77	21.9561
-38.2174	432.254	21.96582
-38.21595	436.514	21.9756
-38.2147	437.248	21.9854
-38.215	440.91	21.9951
-38.2132	441.495	22.0049
-38.2136	437.1069	22.0146
-38.2119	433.803	22.0244
-38.213	431.576	22.03418
-38.2105	436.668	22.0439
-38.2097	442.1911	22.0537
-38.2106	440.968	22.0635
-38.2079	436.807	22.0732
-38.2068	433.724	22.083
-38.2063	434.801	22.0928
-38.2061	434.127	22.1025
-38.2054	439.717	22.1123
-38.2045	441.239	22.12207
-38.2038	440.813	22.1318
-38.2028	434.555	22.1416
-38.2022	430.708	22.1514
-38.2016	433.074	22.1611
-38.1997	438.861	22.1709
-38.1996	442.935	22.1807
-38.1988	438.481	22.19043
-38.198	435.751	22.2002
-38.1966	433.63	22.21
-38.1957	432.344	22.2197
-38.19479	437.399	22.2295
-38.19516	439.065	22.2393
-38.1937	441.342	22.249
-38.1933	439.603	22.2588
-38.1917	432.433	22.2686
-38.1911	434.481	22.27832
-38.1894	436.427	22.2881
-38.19	440.666	22.2979
-38.1879	440.843	22.3076
-38.1891	435.276	22.3174
-38.1867	437.017	22.3271
-38.18652	432.969	22.3369
-38.1854	435.615	22.34668
-38.1852	435.997	22.3564
-38.1844	440.02	22.3662
-38.1835	441.844	22.376
-38.182	435.03	22.3857
-38.181	433.63	22.3955
-38.1807	434.301	22.4053
-38.18	437.369	22.415
-38.1797	438.1116	22.4248
-38.17934	439.377	22.43457
-38.17802	438.3	22.4443
-38.1767	437.137	22.4541
-38.1753	433.683	22.4639
-38.1756	433.461	22.4736
-38.1748	437.513	22.4834
-38.1727	440.805	22.4932
-38.1723	438.06	22.50293
-38.1718	437.773	22.5127
-38.17075	433.087	22.5225
-38.1697	435.444	22.5322
-38.1696	435.659	22.542
-38.16901	437.255	22.5518
-38.1683	440.267	22.5615
-38.16684	439.7431	22.5713
-38.1656	437.689	22.5811
-38.1654	433.116	22.59082
-38.1651	433.437	22.6006
-38.1633	439.121	22.6104
-38.1624	439.861	22.6201
-38.1621	442.51	22.6299
-38.1614	434.711	22.6396
-38.1608	434.331	22.6494
-38.159	434.178	22.65918
-38.1596	434.388	22.6689
-38.158	439.415	22.6787
-38.1581	441.755	22.6885
-38.1564	439.77	22.6982
-38.1549	434.4747	22.708
-38.1538	430.832	22.7178
-38.1531	435.4267	22.7275
-38.1532	440.7583	22.7373
-38.1521	439.038	22.74707
-38.1506	438.321	22.7568
-38.1504	434.114	22.7666
-38.1498	432.615	22.7764
-38.1476	431.778	22.7861
-38.1485	436.9097	22.7959
-38.1476	441.005	22.8057
-38.1456	440.9426	22.81543
-38.1464	435.89	22.8252
-38.1444	430.111	22.835
-38.1439	432.59	22.8447
-38.1431	437.184	22.8545
-38.1421	440.794	22.8643
-38.1415	439.162	22.874
-38.1402	436.051	22.8838
-38.1397	435.088	22.8936
-38.1388	431.294	22.90332
-38.1379	436.459	22.9131
-38.1369	438.42	22.9229
-38.1365	441.621	22.9326
-38.1352	437.583	22.9424
-38.1348	432.165	22.9521
-38.1334	432.579	22.9619
-38.13295	433.7988	22.97168
-38.1325	438.49	22.9814
-38.1308	439.534	22.9912
-38.1306	434.928	23.001
-38.1307	436.2395	23.0107
-38.12854	432.361	23.0205
-38.1289	432.824	23.0303
-38.1277	432.918	23.04
-38.1278	437.135	23.0498
-38.1263	439.56	23.05957
-38.1254	434.305	23.0693
-38.1247	433.86	23.0791
-38.123	434.42	23.0889
-38.1238	435.78	23.0986
-38.1215	436.771	23.1084
-38.1216	435.408	23.1182
-38.11969	438.581	23.12793
-38.1195	438.359	23.1377
-38.119	433.075	23.1475
-38.1186	431.5058	23.1572
-38.1175	433.48	23.167
-38.1173	438.844	23.1768
-38.115	438.6879	23.1865
-38.1146	437.297	23.1963
-38.1132	433.84	23.2061
-38.113	433.059	23.21582
-38.1135	434.231	23.2256
-38.1109	435.023	23.2354
-38.1098	437.7832	23.2451
-38.1102	439.221	23.2549
-38.1086	437.898	23.2646
-38.1087	431.817	23.2744
-38.1069	431.419	23.28418
-38.1058	438.166	23.2939
-38.1066	438.706	23.3037
-38.1048	440.954	23.3135
-38.1039	435.298	23.3232
-38.1031	433.082	23.333
-38.1028	433.611	23.3428
-38.1024	430.8725	23.3525
-38.1012	438.061	23.3623
-38.1011	441.813	23.37207
-38.0994	440.2222	23.3818
-38.0971	433.508	23.3916
-38.0975	428.517	23.4014
-38.0967	433.616	23.4111
-38.0959	438.605	23.4209
-38.0962	439.75	23.4307
-38.0952	439.147	23.44043
-38.0934	436.532	23.4502
-38.0923	433.5155	23.46
-38.0919	430.914	23.4697
-38.0908	435.217	23.4795
-38.0897	440.087	23.4893
-38.0897	440.641	23.499
-38.0878	436.818	23.5088
-38.0885	432.0087	23.5186
-38.0869	430.441	23.52832
-38.0866	437.106	23.5381
-38.0863	439.122	23.5479
-38.0847	438.409	23.5576
-38.0838	437.456	23.5674
-38.0828	435.652	23.5771
-38.0818	431.447	23.5869
-38.08	432.819	23.59668
-38.0808	436.479	23.6064
-38.0804	441.885	23.6162
-38.0777	439.034	23.626
-38.0777	432.832	23.6357
-38.0769	432.679	23.6455
-38.0765	432.774	23.6553
-38.0757	435.491	23.665
-38.0738	437.105	23.6748
-38.0735	436.767	23.68457
-38.0731	438.344	23.6943
-38.0723	433.75	23.7041
-38.0715	434.547	23.7139
-38.071	432.939	23.7236
-38.07085	437.06	23.7334
-38.0699	440.785	23.7432
-38.0688	433.783	23.75293
-38.0659	436.258	23.7627
-38.0665	433.131	23.7725
-38.0668	433.62	23.7822
-38.0648	435.47	23.792
-38.0648	436.057	23.8018
-38.0633	437.671	23.8115
-38.0621	440.007	23.8213
-38.062	433.029	23.8311
-38.0607	431.439	23.84082
-38.0608	433.98	23.8506
-38.0595	438.195	23.8604
-38.05788	438.482	23.8701
-38.0574	436.6886	23.8799
-38.0575	434.897	23.8896
-38.0565	433.711	23.8994
-38.0561	432.351	23.90918
-38.0541	433.053	23.9189
-38.0533	436.706	23.9287
-38.054	440.813	23.9385
-38.0514	437.763	23.9482
-38.0508	431.735	23.958
-38.0516	431.711	23.9678
-38.049	433.698	23.9775
-38.0493	436.971	23.9873
-38.0481	439.941	23.99707
-38.0476	436.213	24.0068
-38.0469	435.4082	24.0166
-38.045	431.7308	24.0264
-38.0447	430.548	24.0361
-38.0448	436.565	24.0459
-38.042	440.585	24.0557
-38.0425	439.986	24.06543
-38.0417	435.741	24.0752
-38.0401	430.063	24.085
-38.0407	433.08	24.0947
-38.0396	434.045	24.1045
-38.039	440.0675	24.1143
-38.03756	437.505	24.124
-38.0362	436.067	24.1338
-38.036	434.604	24.1436
-38.0355	428.888	24.15332
-38.0337	433.497	24.1631
-38.034	438.753	24.1729
-38.0328	440.815	24.1826
-38.03159	439.117	24.1924
-38.0312	432.047	24.2021
-38.0296	430.874	24.2119
-38.0285	433.465	24.22168
-38.0289	435.085	24.2314
-38.0273	439.0022	24.2412
-38.0274	436.961	24.251
-38.0257	436.397	24.2607
-38.0253	431.706	24.2705
-38.0248	433.233	24.2803
-38.0237	435.267	24.29
-38.0213	438.73	24.2998
-38.0221	437.608	24.30957
-38.0213	433.252	24.3193
-38.0218	433.718	24.3291
-38.0194	432.848	24.3389
-38.0178	434.343	24.3486
-38.0176	436.353	24.3584
-38.0172	436.659	24.3682
-38.01622	438.522	24.37793
-38.0158	433.704	24.3877
-38.0161	431.806	24.3975
-38.0131	430.353	24.4072
-38.0134	436.42	24.417
-38.01268	438.053	24.4268
-38.0118	436.06	24.4365
-38.0104	436.619	24.4463
-38.0105	434.018	24.4561
-38.0099	432.77	24.46582
-38.0096	432.926	24.4756
-38.0072	432.657	24.4854
-38.0075	439.061	24.4951
-38.0062	438.466	24.5049
-38.005	435.388	24.5146
-38.0034	429.716	24.5244
-38.0026	431.052	24.53418
-38.0019	435.467	24.5439
-38.002	435.538	24.5537
-38.0009	438.626	24.5635
-37.9998	436.1911	24.5732
-38.0005	433.336	24.583
-37.9984	432.712	24.5928
-37.9985	431.077	24.6025
-37.9956	436.09	24.6123
-37.9957	440.607	24.62207
-37.9949	437.205	24.6318
-37.9944	432.893	24.6416
-37.9924	430.009	24.6514
-37.99229	433.5466	24.6611
-37.9921	435.325	24.6709
-37.99	438.1496	24.6807
-37.9902	436.373	24.69043
-37.9896	437.444	24.7002
-37.9884	432.677	24.71
-37.9874	429.581	24.7197
-37.9872	433.933	24.7295
-37.9869	438.571	24.7393
-37.9847	440.847	24.749
-37.9842	434.105	24.7588
-37.9852	431.47	24.7686
-37.98344	431.035	24.77832
-37.9818	432.976	24.7881
-37.981	438.28	24.7979
-37.9799	437.19	24.8076
-37.9798	436.939	24.8174
-37.97876	435.7673	24.8271
-37.9778	426.865	24.8369
-37.9781	431.396	24.84668
-37.9759	436.271	24.8564
-37.9742	439.924	24.8662
-37.97496	437.799	24.876
-37.9743	432.213	24.8857
-37.9728	432.721	24.8955
-37.9722	432.364	24.9053
-37.9716	436.253	24.915
-37.9712	436.197	24.9248
-37.9695	435.885	24.93457
-37.9692	437.19	24.9443
-37.9684	430.745	24.9541
-37.9687	431.871	24.9639
-37.968	433.772	24.9736
-37.966	436.554	24.9834
-37.9647	439.414	24.9932
-37.9647	436.911	25.00293
-37.963	433.193	25.0127
-37.9626	434.8494	25.0225
-37.9629	431.33	25.0322
-37.9603	431.947	25.042
-37.9603	437.895	25.0518
-37.9599	438.376	25.0615
-37.958	436.35	25.0713
-37.9577	433.33	25.0811
-37.95631	428.284	25.09082
-37.95665	434.119	25.1006
-37.9549	436.705	25.1104
-37.9532	435.152	25.1201
-37.954	436.44	25.1299
-37.9523	434.971	25.1396
-37.9518	432.62	25.1494
-37.95118	432.415	25.15918
-37.9503	430.9437	25.1689
-37.949	437.525	25.1787
-37.9484	439.192	25.1885
-37.9482	436.099	25.1982
-37.9477	429.978	25.208
-37.9462	429.905	25.2178
-37.9447	434.209	25.2275
-37.94508	434.859	25.2373
-37.9438	439.543	25.24707
-37.9435	437.236	25.2568
-37.9428	432.573	25.2666
-37.9409	432.864	25.2764
-37.9413	429.42	25.2861
-37.9394	435.479	25.2959
-37.9398	439.771	25.3057
-37.938	438.352	25.31543
-37.9369	434.108	25.3252
-37.93578	428.591	25.335
-37.93655	431.873	25.3447
-37.9361	432.6333	25.3545
-37.9331	437.28	25.3643
-37.9336	439.304	25.374
-37.9333	436.966	25.3838
-37.9326	432.624	25.3936
-37.9308	427.359	25.40332
-37.9301	430.5134	25.4131
-37.929	437.496	25.4229
-37.9287	439.544	25.4326
-37.9291	436.878	25.4424
-37.9267	431.646	25.4521
-37.9252	430.11	25.4619
-37.9263	432.108	25.47168
-37.92458	434.766	25.4814
-37.9229	437.056	25.4912
-37.9219	436.0123	25.501
-37.9221	435.164	25.5107
-37.9205	428.22	25.5205
-37.92083	431.293	25.5303
-37.9203	433.144	25.54
-37.9184	437.227	25.5498
-37.918	438.276	25.55957
-37.9184	431.244	25.5693
-37.9154	435.128	25.5791
-37.9151	430.572	25.5889
-37.91481	433.745	25.5986
-37.9139	434.263	25.6084
-37.9126	436.27	25.6182
-37.9116	438.167	25.62793
-37.91188	430.175	25.6377
-37.91169	431.66	25.6475
-37.9102	431.491	25.6572
-37.9085	433.796	25.667
-37.9074	437.753	25.6768
-37.9069	435.155	25.6865
-37.9072	435.2583	25.6963
-37.9056	433.52	25.7061
-37.9043	431.375	25.71582
-37.90517	431.961	25.7256
-37.9039	433.9408	25.7354
-37.9028	440.286	25.7451
-37.9011	437.5	25.7549
-37.9018	434.728	25.7646
-37.89991	431.153	25.7744
-37.8986	431.856	25.78418
-37.8991	433.663	25.7939
-37.8989	434.35	25.8037
-37.8969	437.403	25.8135
-37.8964	434.88	25.8232
-37.8948	432.5412	25.833
-37.8944	429.521	25.8428
-37.8931	431.252	25.8525
-37.8935	436.142	25.8623
-37.892	437.526	25.87207
-37.8911	436.535	25.8818
-37.8896	430.897	25.8916
-37.889	430.146	25.9014
-37.889	432.631	25.9111
-37.887	432.6665	25.9209
-37.8874	438.441	25.9307
-37.8859	436.13	25.94043
-37.8855	434.495	25.9502
-37.88488	429.419	25.96
-37.8855	427.594	25.9697
-37.8824	433.946	25.9795
-37.883	439.76	25.9893
-37.8815	437.384	25.999
-37.8803	434.702	26.0088
-37.8789	428.582	26.0186
-37.8789	432.997	26.02832
-37.8782	429.517	26.0381
-37.8774	435.479	26.0479
-37.87701	436.628	26.0576
-37.8755	436.877	26.0674
-37.8745	434.466	26.0771
-37.8732	427.506	26.0869
-37.8735	429.384	26.09668
-37.8715	436.226	26.1064
-37.8712	437.486	26.1162
-37.8712	436.364	26.126
-37.86932	431.062	26.1357
-37.8689	432.196	26.1455
-37.8692	429.855	26.1553
-37.8685	432.449	26.165
-37.8654	434.971	26.1748
-37.8652	436.596	26.18457
-37.8651	433.967	26.1943
-37.8649	428.648	26.2041
-37.8634	429.611	26.2139
-37.8619	431.786	26.2236
-37.8621	435.832	26.2334
-37.8609	436.091	26.2432
-37.8605	433.308	26.25293
-37.85981	433.165	26.2627
-37.85886	430.199	26.2725
-37.856	431.189	26.2822
-37.857	431.876	26.292
-37.8556	433.962	26.3018
-37.8554	438.383	26.3115
-37.8547	430.566	26.3213
-37.8541	431.602	26.3311
-37.8534	429.504	26.34082
-37.85144	432.732	26.3506
-37.8517	435.214	26.3604
-37.8514	433.742	26.3701
-37.8494	435.704	26.3799
-37.8482	433.981	26.3896
-37.8483	430.9288	26.3994
-37.8472	431.086	26.40918
-37.8456	430.941	26.4189
-37.8473	437.603	26.4287
-37.8441	436.368	26.4385
-37.8435	433.139	26.4482
-37.8437	431.122	26.458
-37.8435	429.122	26.4678
-37.8403	434.688	26.4775
-37.8394	434.621	26.4873
-37.8412	435.261	26.49707
-37.8394	438.426	26.5068
-37.8378	432.855	26.5166
-37.8378	428.808	26.5264
-37.8376	429.9939	26.5361
-37.8362	433.009	26.5459
-37.8344	438.486	26.5557
-37.8345	435.825	26.56543
-37.8341	432.639	26.5752
-37.8327	430.228	26.585
-37.83128	430.806	26.5947
-37.8307	430.272	26.6045
-37.8299	436.503	26.6143
-37.82832	436.872	26.624
-37.8287	437.437	26.6338
-37.82674	430.445	26.6436
-37.8278	425.616	26.65332
-37.8255	431.49	26.6631
-37.8249	434.53	26.6729
-37.82476	437.441	26.6826
-37.8223	434.966	26.6924
-37.8226	430.139	26.7021
-37.8213	430.491	26.7119
-37.8213	428.258	26.72168
-37.82	432.7966	26.7314
-37.8196	436.807	26.7412
-37.8183	435.835	26.751
-37.81863	433.7262	26.7607
-37.8182	427.652	26.7705
-37.8153	429.101	26.7803
-37.8148	432.9903	26.79
-37.8153	434.196	26.7998
-37.8143	436.583	26.80957
-37.8122	431.5173	26.8193
-37.8127	431.308	26.8291
-37.8122	428.789	26.8389
-37.8109	430.281	26.8486
-37.8099	433.82	26.8584
-37.8092	436.307	26.8682
-37.808	437.291	26.87793
-37.8063	430.642	26.8877
-37.80595	428.429	26.8975
-37.8058	430.471	26.9072
-37.805	432.91	26.917
-37.8044	433.059	26.9268
-37.8034	433.169	26.9365
-37.80154	433.462	26.9463
-37.8016	430.456	26.9561
-37.8005	431.182	26.96582
-37.8003	428.32	26.9756
-37.79929	434.306	26.9854
-37.799	436.173	26.9951
-37.7978	432.76	27.0049
-37.797	432.451	27.0146
-37.7965	428.859	27.0244
-37.7952	432.243	27.03418
-37.794	433.054	27.0439
-37.7941	431.9007	27.0537
-37.79314	435.841	27.0635
-37.7921	433.509	27.0732
-37.7902	432.555	27.083
-37.7903	428.382	27.0928
-37.7893	428.3486	27.1025
-37.7882	435.757	27.1123
-37.7876	435.074	27.12207
-37.7864	434.935	27.1318
-37.7867	432.084	27.1416
-37.7849	428.835	27.1514
-37.7853	430.817	27.1611
-37.783	430.808	27.1709
-37.7828	434.337	27.1807
-37.781	437.733	27.19043
-37.7816	433.286	27.2002
-37.7807	429.279	27.21
-37.77998	426.967	27.2197
-37.7776	431.315	27.2295
-37.7793	435.214	27.2393
-37.776	436.837	27.249
-37.7773	430.853	27.2588
-37.7755	430.874	27.2686
-37.7744	427.708	27.27832
-37.773	427.222	27.2881
-37.773	434.093	27.2979
-37.772	436.03	27.3076
-37.7707	435.722	27.3174
-37.7701	429.433	27.3271
-37.7693	426.421	27.3369
-37.7691	429.4895	27.34668
-37.76849	433.744	27.3564
-37.7675	438.218	27.3662
-37.7666	433.508	27.376
-37.7656	431.503	27.3857
-37.7651	431.113	27.3955
-37.7641	425.383	27.4053
-37.76366	432.024	27.415
-37.7621	434.5188	27.4248
-37.7619	436.356	27.43457
-37.7617	433.6261	27.4443
-37.7599	426.126	27.4541
-37.7593	428.661	27.4639
-37.7579	431.383	27.4736
-37.7567	433.0842	27.4834
-37.7571	436.307	27.4932
-37.756	432.5058	27.50293
-37.7552	432.964	27.5127
-37.75415	427.754	27.5225
-37.75386	428.971	27.5322
-37.7527	431.699	27.542
-37.752	433.999	27.5518
-37.7505	435.025	27.5615
-37.7504	431.02	27.5713
-37.7489	428.0799	27.5811
-37.7481	429.958	27.59082
-37.7481	430.856	27.6006
-37.7475	433.077	27.6104
-37.7457	433.037	27.6201
-37.7451	434.156	27.6299
-37.7439	433.381	27.6396
-37.7441	429.74	27.6494
-37.7424	427.32	27.65918
-37.742	432.832	27.6689
-37.7419	435.467	27.6787
-37.7415	432.938	27.6885
-37.7397	432.304	27.6982
-37.7399	429.571	27.708
-37.7375	430.132	27.7178
-37.7365	430.2355	27.7275
-37.7362	431.634	27.7373
-37.7359	436.174	27.74707
-37.7354	433.914	27.7568
-37.73431	432.043	27.7666
-37.7329	426.187	27.7764
-37.7336	427.628	27.7861
-37.7316	433.411	27.7959
-37.73074	433.305	27.8057
-37.7302	436.333	27.81543
-37.729	431.132	27.8252
-37.7292	429.8038	27.835
-37.7271	429.541	27.8447
-37.72691	428.049	27.8545
-37.726	434.172	27.8643
-37.72514	436.773	27.874
-37.72308	433.327	27.8838
-37.7242	429.567	27.8936
-37.7233	426.037	27.90332
-37.72311	429.343	27.9131
-37.7215	433.397	27.9229
-37.7204	435.981	27.9326
-37.7201	435.517	27.9424
-37.7189	431.3215	27.9521
-37.717	428.241	27.9619
-37.7168	427.119	27.97168
-37.7152	429.799	27.9814
-37.71566	435.911	27.9912
-37.7138	438.107	28.001
-37.7128	431.248	28.0107
-37.7123	425.423	28.0205
-37.7113	427.805	28.0303
-37.7108	432.429	28.04
-37.7096	434.141	28.0498
-37.7098	434.244	28.05957
-37.709	434.2464	28.0693
-37.7068	430.002	28.0791
-37.7068	425.845	28.0889
-37.706	428.823	28.0986
-37.7058	433.076	28.1084
-37.7056	436.606	28.1182
-37.7032	434.038	28.12793
-37.7037	427.79	28.1377
-37.7024	428.388	28.1475
-37.7015	429.635	28.1572
-37.6989	431.649	28.167
-37.7	432.928	28.1768
-37.6987	432.119	28.1865
-37.6984	433.425	28.1963
-37.69714	426.809	28.2061
-37.6972	429.2919	28.21582
-37.6968	429.1488	28.2256
-37.6958	431.483	28.2354
-37.6943	436.493	28.2451
-37.6937	430.977	28.2549
-37.692	429.864	28.2646
-37.69109	429.6723	28.2744
-37.6906	429.656	28.28418
-37.68996	430.854	28.2939
-37.6902	430.633	28.3037
-37.6884	434.861	28.3135
-37.688	433.257	28.3232
-37.6869	427.099	28.333
-37.686	427.087	28.3428
-37.6851	427.757	28.3525
-37.6849	433.578	28.3623
-37.6847	433.513	28.37207
-37.6826	432.307	28.3818
-37.6822	429.113	28.3916
-37.6806	428.402	28.4014
-37.6805	428.8425	28.4111
-37.681	428.477	28.4209
-37.678	434.818	28.4307
-37.6767	436.347	28.44043
-37.6768	432.561	28.4502
-37.6764	426.666	28.46
-37.676	428.1322	28.4697
-37.6739	430.619	28.4795
-37.6733	432.301	28.4893
-37.6735	435.131	28.499
-37.6721	432.689	28.5088
-37.6715	429.052	28.5186
-37.6699	427.8	28.52832
-37.6705	423.486	28.5381
-37.6697	431.372	28.5479
-37.6688	434.591	28.5576
-37.6675	434.9386	28.5674
-37.6659	429.607	28.5771
-37.666	423.982	28.5869
-37.6664	428.353	28.59668
-37.6635	430.318	28.6064
-37.663	433.345	28.6162
-37.66317	433.852	28.626
-37.66259	430.971	28.6357
-37.6615	428.2804	28.6455
-37.66032	422.996	28.6553
-37.659	427.9361	28.665
-37.658	433.325	28.6748
-37.6577	433.96	28.68457
-37.6567	432.075	28.6943
-37.6557	426.106	28.7041
-37.6546	427.642	28.7139
-37.6544	429.245	28.7236
-37.6536	433.64	28.7334
-37.6539	431.643	28.7432
-37.6519	432.0943	28.75293
-37.6514	431.087	28.7627
-37.651	425.951	28.7725
-37.6498	426.9476	28.7822
-37.6488	430.099	28.792
-37.6483	434.528	28.8018
-37.647	432.666	28.8115
-37.6461	429.085	28.8213
-37.6459	427.231	28.8311
-37.6446	428.011	28.84082
-37.644	429.544	28.8506
-37.6435	429.568	28.8604
-37.6414	433.3172	28.8701
-37.641	433.223	28.8799
-37.64	426.49	28.8896
-37.6394	426.954	28.8994
-37.6392	426.776	28.90918
-37.6384	430.173	28.9189
-37.6377	434.974	28.9287
-37.6363	429.638	28.9385
-37.6354	429.703	28.9482
-37.6353	427.842	28.958
-37.6346	425.618	28.9678
-37.6321	428.1069	28.9775
-37.6324	428.504	28.9873
-37.6318	433.425	28.99707
-37.6311	433.112	29.0068
-37.6288	428.976	29.0166
-37.6295	426.164	29.0264
-37.629	427.0181	29.0361
-37.6283	432.478	29.0459
-37.6268	430.143	29.0557
-37.6253	430.044	29.06543
-37.6244	431.317	29.0752
-37.6234	427.634	29.085
-37.6237	425.685	29.0947
-37.6225	427.519	29.1045
-37.6211	430.858	29.1143
-37.621	434.695	29.124
-37.621	430.039	29.1338
-37.6189	426.748	29.1436
-37.6178	424.37	29.15332
-37.6177	427.9996	29.1631
-37.61742	429.97	29.1729
-37.6162	431.771	29.1826
-37.6154	431.808	29.1924
-37.6145	430.656	29.2021
-37.6139	424.93	29.2119
-37.6127	422.639	29.22168
-37.6126	428.336	29.2314
-37.6115	432.982	29.2412
-37.6109	433.784	29.251
-37.6102	427.526	29.2607
-37.6088	423.631	29.2705
-37.607	426.458	29.2803
-37.60738	425.708	29.29
-37.6073	431.45	29.2998
-37.606	433.153	29.30957
-37.6045	430.797	29.3193
-37.6043	428.343	29.3291
-37.6033	421.413	29.3389
-37.60144	426.477	29.3486
-37.6014	431.496	29.3584
-37.60041	432.36	29.3682
-37.5992	431.569	29.37793
-37.5986	426.593	29.3877
-37.5983	425.451	29.3975
-37.5968	426.28	29.4072
-37.5971	428.976	29.417
-37.597	430.3522	29.4268
-37.595	431.916	29.4365
-37.593	429.644	29.4463
-37.5946	424.06	29.4561
-37.5932	423.6713	29.46582
-37.5918	428.496	29.4756
-37.5903	430.378	29.4854
-37.5898	430.885	29.4951
-37.5898	428.19	29.5049
-37.58913	425.617	29.5146
-37.5879	426.486	29.5244
-37.5877	426.418	29.53418
-37.5861	426.909	29.5439
-37.5849	430.906	29.5537
-37.5836	431.833	29.5635
-37.5843	425.916	29.5732
-37.5828	425.917	29.583
-37.5816	423.143	29.5928
-37.581	428.112	29.6025
-37.5802	429.716	29.6123
-37.5802	428.2905	29.62207
-37.5783	430.576	29.6318
-37.5783	427.2522	29.6416
-37.5775	426.422	29.6514
-37.5756	424.124	29.6611
-37.5752	426.406	29.6709
-37.5735	432.361	29.6807
-37.574	428.841	29.69043
-37.57349	427.425	29.7002
-37.57267	423.892	29.71
-37.571	422.949	29.7197
-37.5692	428.307	29.7295
-37.5704	424.684	29.7393
-37.5692	429.702	29.749
-37.5682	430.194	29.7588
-37.56728	424.985	29.7686
-37.56731	421.672	29.77832
-37.5655	422.438	29.7881
-37.5652	427.135	29.7979
-37.5637	431.373	29.8076
-37.56345	427.618	29.8174
-37.5623	423.365	29.8271
-37.56189	421.2301	29.8369
-37.5616	423.434	29.84668
-37.55975	425.182	29.8564
-37.5588	428.558	29.8662
-37.558	429.711	29.876
-37.5576	427.833	29.8857
-37.5576	420.864	29.8955
-37.555	417.5217	29.9053
-37.5556	423.886	29.915
-37.5536	428.539	29.9248
-37.554	428.846	29.93457
-37.5529	425.1774	29.9443
-37.5519	420.613	29.9541
-37.5512	420.299	29.9639
-37.5501	419.231	29.9736
-37.5487	425.197	29.9834
-37.549	424.835	29.9932
-37.54731	425.81	30.00293
-37.5463	422.032	30.0127
-37.547	413.817	30.0225
-37.5453	417.857	30.0322
-37.5451	420.354	30.042
-37.544	423.81	30.0518
-37.5422	424.336	30.0615
-37.54174	417.708	30.0713
-37.5416	417.313	30.0811
-37.5393	413.04	30.09082
-37.5407	415.563	30.1006
-37.5395	416.176	30.1104
-37.5378	418.192	30.1201
-37.5367	416.339	30.1299
-37.53598	407.16	30.1396
-37.536	403.971	30.1494
-37.5344	400.084	30.15918
-37.5306	-85.3767	30.1689
-37.5297	-29.2197	30.1787
-37.5296	-22.2578	30.1885
-37.5295	-41.0945	30.1982
-37.5292	-46.3642	30.208
-37.52927	-48.24577	30.2178
-37.528	-41.3221	30.2275
-37.5273	-41.2368	30.2373
-37.5266	-35.6626	30.24707
-37.5265	-42.1315	30.2568
-37.5245	-42.6952	30.2666
-37.5242	-46.0877	30.2764
-37.524	-42.3135	30.2861
-37.5218	-41.3308	30.2959
-37.5221	-41.887	30.3057
-37.5212	-40.7116	30.31543
-37.51973	-42.2685	30.3252
-37.5196	-43.8691	30.335
-37.5193	-46.2824	30.3447
-37.5179	-45.21088	30.3545
-37.5176	-38.4241	30.3643
-37.5165	-39.2319	30.374
-37.51495	-40.1674	30.3838
-37.5147	-43.9969	30.3936
-37.5137	-44.4072	30.40332
-37.5129	-42.68021	30.4131
-37.5116	-42.7102	30.4229
-37.5114	-38.3201	30.4326
-37.5103	-37.6302	30.4424
-37.5093	-42.698	30.4521
-37.5086	-45.0571	30.4619
-37.5075	-48.3996	30.47168
-37.5067	-40.8249	30.4814
-37.5077	-37.88356	30.4912
-37.5054	-39.0511	30.501
-37.5053	-41.80566	30.5107
-37.5051	-45.002	30.5205
-37.50272	-44.47686	30.5303
-37.5028	-45.6481	30.54
-37.5018	-38.6671	30.5498
-37.5009	-37.3947	30.55957
-37.5009	-38.2599	30.5693
-37.4991	-44.2731	30.5791
-37.4995	-46.7586	30.5889
-37.4986	-45.8663	30.5986
-37.4974	-39.0071	30.6084
-37.4959	-37.44146	30.6182
-37.4958	-40.23	30.62793
-37.4943	-43.6507	30.6377
-37.4929	-43.7982	30.6475
-37.4925	-45.6988	30.6572
-37.492	-41.1962	30.667
-37.4909	-39.4137	30.6768
-37.4909	-36.1223	30.6865
-37.4893	-40.9055	30.6963
-37.4884	-47.2385	30.7061
-37.4873	-46.6915	30.71582
-37.4865	-43.176	30.7256
-37.4862	-37.2262	30.7354
-37.4858	-38.88224	30.7451
-37.4858	-42.4934	30.7549
-37.48391	-40.097	30.7646
-37.4834	-45.4466	30.7744
-37.4821	-44.8418	30.78418
-37.482	-42.626	30.7939
-37.4796	-38.8455	30.8037
-37.48037	-38.2567	30.8135