File: data/processed_data_files/tensile/0.254_hd_uprint_typeiv_4545_r(9).dat
MTS793|BTW|ENU|1|2|.|/|:|1|0|0|A

Data Header:			0.254_hd_uprint_typeiv_4545_r0			Time:	20.0178	s	4/13/2019 7:55:32 PM
Data Acquisition:	Timed
Station Name:	ft40.cfg
Test File Name:	monotonic_0.2540_typeiv_hd_4545_uprint.tst
Displacement	Force	Running Time
mm	N	s
-40.0349	-255.454	0.0227051
-40.0346	-249.6694	0.0422363
-40.034	-248.92	0.0617676
-40.033	-253.18	0.0812988
-40.0319	-251.223	0.10083
-40.0286	-246.845	0.120361
-40.0275	-246.672	0.139893
-40.02536	-250.872	0.159424
-40.0251	-245.075	0.178955
-40.0239	-243.984	0.198486
-40.0215	-245.011	0.218018
-40.02	-244.1674	0.237549
-40.0189	-237.579	0.25708
-40.01659	-244.685	0.276611
-40.01437	-239.428	0.296143
-40.01305	-233.126	0.315674
-40.0119	-239.4498	0.335205
-40.0102	-241.337	0.354736
-40.0083	-230.257	0.374268
-40.0069	-237.563	0.393799
-40.0052	-235.403	0.41333
-40.0039	-231.205	0.432861
-40.0023	-231.449	0.452393
-40.0011	-236.967	0.471924
-39.99918	-226.968	0.491455
-39.9973	-229.155	0.510986
-39.9967	-232.202	0.530518
-39.9931	-227.029	0.550049
-39.9925	-222.204	0.56958
-39.9902	-230.879	0.589111
-39.9886	-224.316	0.608643
-39.9876	-222.333	0.628174
-39.9866	-225.136	0.647705
-39.9844	-221.561	0.667236
-39.9826	-218.85	0.686768
-39.9818	-223.1922	0.706299
-39.98035	-222.896	0.72583
-39.9781	-215.754	0.745361
-39.975	-217.306	0.764893
-39.97324	-218.176	0.784424
-39.9735	-217.626	0.803955
-39.97049	-211.847	0.823486
-39.96867	-217.312	0.843018
-39.9674	-213.064	0.862549
-39.9662	-209.996	0.88208
-39.9651	-211.125	0.901611
-39.9633	-213.248	0.921143
-39.9617	-203.503	0.940674
-39.9596	-211.709	0.960205
-39.95821	-208.491	0.979736
-39.9557	-201.806	0.999268
-39.9544	-204.519	1.0188
-39.9534	-210.173	1.03833
-39.9505	-199.454	1.05786
-39.9502	-200.675	1.07739
-39.9474	-204.814	1.09692
-39.9462	-197.644	1.11646
-39.9442	-197.157	1.13599
-39.944	-203.674	1.15552
-39.9412	-194.79	1.17505
-39.9397	-194.266	1.19458
-39.938	-198.9921	1.21411
-39.9371	-193.317	1.23364
-39.9348	-190.885	1.25317
-39.933	-195.7576	1.27271
-39.9327	-194.713	1.29224
-39.9307	-187.947	1.31177
-39.929	-190.02	1.3313
-39.9261	-190.185	1.35083
-39.92646	-187.667	1.37036
-39.9242	-187.096	1.38989
-39.9224	-190.429	1.40942
-39.9203	-181.983	1.42896
-39.9187	-181.269	1.44849
-39.9183	-185.588	1.46802
-39.9147	-184.283	1.48755
-39.9135	-175.8	1.50708
-39.9124	-184.025	1.52661
-39.9105	-180.002	1.54614
-39.9097	-176.467	1.56567
-39.90839	-178.214	1.58521
-39.9067	-180.491	1.60474
-39.9039	-171.027	1.62427
-39.90308	-178.838	1.6438
-39.9015	-176.177	1.66333
-39.9002	-169.605	1.68286
-39.8972	-171.151	1.70239
-39.8965	-176.787	1.72192
-39.8951	-168.318	1.74146
-39.8932	-167.906	1.76099
-39.8899	-171.909	1.78052
-39.8896	-165.087	1.80005
-39.8882	-165.753	1.81958
-39.88599	-170.566	1.83911
-39.8846	-164.109	1.85864
-39.88446	-160.353	1.87817
-39.8818	-165.865	1.89771
-39.8806	-163.508	1.91724
-39.8793	-157.996	1.93677
-39.8774	-159.333	1.9563
-39.8749	-163.377	1.97583
-39.8737	-155.645	1.99536
-39.8723	-156.142	2.01489
-39.8691	-155.847	2.03442
-39.8699	-155.904	2.05396
-39.8666	-150.992	2.07349
-39.865	-158.37	2.09302
-39.8635	-150.756	2.11255
-39.8633	-147.273	2.13208
-39.8598	-153.358	2.15161
-39.85862	-153.578	2.17114
-39.8581	-143.193	2.19067
-39.8558	-149.353	2.21021
-39.8535	-148.941	2.22974
-39.8517	-142.653	2.24927
-39.8507	-144.995	2.2688
-39.8488	-148.7533	2.28833
-39.847	-139.802	2.30786
-39.84515	-142.361	2.32739
-39.8439	-145.961	2.34692
-39.8432	-137.961	2.36646
-39.84145	-137.031	2.38599
-39.8391	-142.339	2.40552
-39.83728	-137.0533	2.42505
-39.8355	-134.057	2.44458
-39.8342	-138.646	2.46411
-39.83247	-132.9998	2.48364
-39.8317	-132.978	2.50317
-39.8285	-135.74	2.52271
-39.8281	-133.548	2.54224
-39.8259	-125.23	2.56177
-39.8245	-129.678	2.5813
-39.8231	-130.313	2.60083
-39.8219	-125.529	2.62036
-39.8187	-124.077	2.63989
-39.8178	-129.403	2.65942
-39.8164	-123.699	2.67896
-39.81469	-122.419	2.69849
-39.8135	-125.161	2.71802
-39.8111	-124.049	2.73755
-39.8094	-116.522	2.75708
-39.8088	-123.7638	2.77661
-39.8064	-120.6367	2.79614
-39.8055	-113.969	2.81567
-39.8032	-118.783	2.83521
-39.8017	-119.7311	2.85474
-39.7995	-110.578	2.87427
-39.7977	-115.5904	2.8938
-39.7965	-115.87	2.91333
-39.7948	-109.631	2.93286
-39.7935	-110.432	2.95239
-39.7923	-116.03	2.97192
-39.7902	-105.554	2.99146
-39.7887	-107.105	3.01099
-39.7873	-111.208	3.03052
-39.7851	-105.103	3.05005
-39.7835	-103.039	3.06958
-39.7827	-106.8961	3.08911
-39.7805	-105.3549	3.10864
-39.7782	-99.1991	3.12817
-39.777	-104.729	3.14771
-39.7769	-101.82	3.16724
-39.7741	-98.2751	3.18677
-39.7724	-100.443	3.2063
-39.7703	-101.984	3.22583
-39.7691	-93.4647	3.24536
-39.76799	-95.7534	3.26489
-39.7665	-97.5179	3.28442
-39.7656	-95.6411	3.30396
-39.7635	-88.547	3.32349
-39.762	-97.3247	3.34302
-39.7599	-89.4135	3.36255
-39.7571	-87.1697	3.38208
-39.7559	-89.5947	3.40161
-39.7553	-89.9834	3.42114
-39.753	-81.8259	3.44067
-39.7509	-90.4029	3.46021
-39.7501	-89.7702	3.47974
-39.7479	-80.2624	3.49927
-39.7467	-84.35424	3.5188
-39.7445	-88.5292	3.53833
-39.7429	-80.3034	3.55786
-39.7419	-79.2879	3.57739
-39.7398	-83.5363	3.59692
-39.7378	-77.0672	3.61646
-39.73719	-77.0041	3.63599
-39.7354	-81.0215	3.65552
-39.733	-74.5971	3.67505
-39.7335	-71.8614	3.69458
-39.7309	-78.7144	3.71411
-39.7283	-72.18943	3.73364
-39.7275	-70.2045	3.75317
-39.7251	-72.1628	3.77271
-39.7239	-74.2112	3.79224
-39.7233	-66.6898	3.81177
-39.7207	-70.4573	3.8313
-39.72	-68.1822	3.85083
-39.7173	-66.0559	3.87036
-39.7153	-64.6332	3.88989
-39.7143	-70.0782	3.90942
-39.7128	-60.6645	3.92896
-39.7108	-60.1664	3.94849
-39.7094	-63.8008	3.96802
-39.7079	-63.3317	3.98755
-39.705	-55.7126	4.00708
-39.7036	-62.1385	4.02661
-39.70285	-58.5209	4.04614
-39.7007	-53.6295	4.06567
-39.7002	-58.2837	4.08521
-39.6991	-58.0655	4.10474
-39.6955	-50.089	4.12427
-39.6946	-55.1993	4.1438
-39.6927	-56.9859	4.16333
-39.6901	-47.50386	4.18286
-39.6898	-51.16312	4.20239
-39.6872	-53.2503	4.22192
-39.6867	-48.9047	4.24146
-39.6839	-46.2306	4.26099
-39.6835	-49.6173	4.28052
-39.6819	-44.0428	4.30005
-39.6793	-44.6281	4.31958
-39.6778	-46.8842	4.33911
-39.6778	-44.6337	4.35864
-39.6755	-37.907	4.37817
-39.6733	-43.9591	4.39771
-39.6713	-42.4827	4.41724
-39.6709	-38.2901	4.43677
-39.6688	-36.6154	4.4563
-39.6669	-42.1512	4.47583
-39.6654	-34.6483	4.49536
-39.6629	-34.1113	4.51489
-39.6618	-36.1771	4.53442
-39.6608	-34.96	4.55396
-39.6577	-29.8184	4.57349
-39.6568	-37.3186	4.59302
-39.656	-30.6841	4.61255
-39.6553	-26.3392	4.63208
-39.6516	-31.8658	4.65161
-39.6512	-30.8727	4.67114
-39.6482	-23.9427	4.69067
-39.6465	-28.9766	4.71021
-39.6458	-28.1505	4.72974
-39.6441	-22.253	4.74927
-39.642	-26.2983	4.7688
-39.6409	-26.4409	4.78833
-39.6383	-19.5901	4.80786
-39.6373	-22.1729	4.82739
-39.6369	-25.3782	4.84692
-39.6342	-14.5834	4.86646
-39.6323	-18.0034	4.88599
-39.6311	-20.656	4.90552
-39.6301	-17.3347	4.92505
-39.6276	-12.5547	4.94458
-39.6266	-17.4979	4.96411
-39.6241	-13.2844	4.98364
-39.6242	-11.45876	5.00317
-39.6225	-13.8363	5.02271
-39.619	-13.4274	5.04224
-39.6189	-5.92747	5.06177
-39.6173	-10.725	5.0813
-39.6146	-10.5337	5.10083
-39.614	-8.20216	5.12036
-39.612	-3.80147	5.13989
-39.6089	-9.26037	5.15942
-39.6071	-2.218	5.17896
-39.6074	-1.05121	5.19849
-39.6038	-4.15534	5.21802
-39.6032	-2.65598	5.23755
-39.6012	2.23152	5.25708
-39.6004	-4.83702	5.27661
-39.5998	0.508798	5.29614
-39.5973	6.81447	5.31567
-39.59581	1.126375	5.33521
-39.594	-1.39826	5.35474
-39.5909	7.92285	5.37427
-39.591	5.00414	5.3938
-39.5885	1.22604	5.41333
-39.5872	11.95521	5.43286
-39.5866	6.75266	5.45239
-39.584	6.3865	5.47192
-39.5813	11.59	5.49146
-39.5805	13.81108	5.51099
-39.5787	8.25778	5.53052
-39.5773	15.195	5.55005
-39.5763	16.2517	5.56958
-39.5739	13.413	5.58911
-39.5715	12.71042	5.60864
-39.5705	20.1633	5.62817
-39.5689	16.4249	5.64771
-39.5675	19.1321	5.66724
-39.5655	19.1613	5.68677
-39.5649	20.879	5.7063
-39.563	15.8829	5.72583
-39.5614	27.6273	5.74536
-39.5592	25.1921	5.76489
-39.5575	20.9349	5.78442
-39.5569	24.44766	5.80396
-39.5542	30.2133	5.82349
-39.5537	23.7595	5.84302
-39.5508	27.364	5.86255
-39.5494	32.2398	5.88208
-39.5479	27.8331	5.90161
-39.546	29.2955	5.92114
-39.5442	36.97	5.94067
-39.5442	29.1868	5.96021
-39.5424	30.6585	5.97974
-39.5412	40.3765	5.99927
-39.5381	33.96	6.0188
-39.5363	32.5042	6.03833
-39.53492	39.5097	6.05786
-39.53307	39.9118	6.07739
-39.5309	37.7837	6.09692
-39.5309	44.1457	6.11646
-39.5273	39.7789	6.13599
-39.5268	38.6289	6.15552
-39.52557	43.2296	6.17505
-39.5243	48.1863	6.19458
-39.5226	41.4779	6.21411
-39.5199	46.5809	6.23364
-39.5194	48.4716	6.25317
-39.517	48.4791	6.27271
-39.5165	46.2597	6.29224
-39.5137	50.9779	6.31177
-39.5123	50.0571	6.3313
-39.5109	51.445	6.35083
-39.5097	53.1928	6.37036
-39.5072	53.6657	6.38989
-39.5053	48.7079	6.40942
-39.505	58.1274	6.42896
-39.5025	59.0314	6.44849
-39.5007	54.2459	6.46802
-39.5003	55.4801	6.48755
-39.4982	62.5153	6.50708
-39.4965	55.9052	6.52661
-39.4952	59.36425	6.54614
-39.4924	66.37439	6.56567
-39.4912	58.6868	6.58521
-39.4907	60.2723	6.60474
-39.48838	66.5448	6.62427
-39.4853	63.32235	6.6438
-39.4854	61.5736	6.66333
-39.4824	71.5387	6.68286
-39.4805	67.5469	6.70239
-39.4794	66.6567	6.72192
-39.4774	70.5802	6.74146
-39.4765	72.9094	6.76099
-39.4747	68.8681	6.78052
-39.4737	75.4237	6.80005
-39.4726	73.887	6.81958
-39.46941	71.43222	6.83911
-39.469	73.445	6.85864
-39.4673	79.5173	6.87817
-39.4655	76.6621	6.89771
-39.46384	77.8598	6.91724
-39.4617	80.1187	6.93677
-39.4605	80.3431	6.9563
-39.4596	76.8279	6.97583
-39.4578	84.1521	6.99536
-39.455	83.2447	7.01489
-39.4538	81.1088	7.03442
-39.4523	83.9733	7.05396
-39.4501	88.0203	7.07349
-39.4488	82.3811	7.09302
-39.447	87.90461	7.11255
-39.4464	92.3621	7.13208
-39.4441	84.4091	7.15161
-39.4414	85.89537	7.17114
-39.4408	93.1213	7.19067
-39.4395	90.4169	7.21021
-39.43726	90.30323	7.22974
-39.4358	97.213	7.24927
-39.43457	91.8145	7.2688
-39.4328	92.7164	7.28833
-39.4312	99.8453	7.30786
-39.4288	98.5768	7.32739
-39.428	94.9414	7.34692
-39.426	102.345	7.36646
-39.4237	100.241	7.38599
-39.4232	99.1196	7.40552
-39.4211	100.434	7.42505
-39.4191	104.987	7.44458
-39.4177	102.5179	7.46411
-39.41626	105.911	7.48364
-39.41407	105.817	7.50317
-39.4127	104.784	7.52271
-39.4112	104.046	7.54224
-39.40918	112.496	7.56177
-39.4082	108.963	7.5813
-39.4069	108.111	7.60083
-39.4043	110.9962	7.62036
-39.40279	115.012	7.63989
-39.4018	110.584	7.65942
-39.4007	115.019	7.67896
-39.39809	115.913	7.69849
-39.396	111.615	7.71802
-39.3943	115.733	7.73755
-39.3936	120.949	7.75708
-39.3925	114.852	7.77661
-39.39019	115.705	7.79614
-39.3885	124.845	7.81567
-39.3859	118.022	7.83521
-39.3846	119.333	7.85474
-39.385	125.183	7.87427
-39.3821	123.901	7.8938
-39.3811	120.776	7.91333
-39.3786	129.976	7.93286
-39.3763	125.239	7.95239
-39.3751	127.1612	7.97192
-39.3732	129.628	7.99146
-39.3732	131.441	8.01099
-39.3707	125.802	8.03052
-39.3684	132.553	8.05005
-39.3687	132.12	8.06958
-39.3652	131.966	8.08911
-39.36433	132.721	8.10864
-39.3616	137.87	8.12817
-39.3607	134.93	8.14771
-39.359	136.479	8.16724
-39.3579	138.044	8.18677
-39.3564	137.95	8.2063
-39.3539	134.556	8.22583
-39.3524	142.569	8.24536
-39.3512	143.3	8.26489
-39.3491	137.965	8.28442
-39.3475	142.31	8.30396
-39.3461	146.635	8.32349
-39.3446	142.139	8.34302
-39.342	146.653	8.36255
-39.3417	150.587	8.38208
-39.3387	144	8.40161
-39.3388	148.189	8.42114
-39.336	151.876	8.44067
-39.3353	148.465	8.46021
-39.3326	148.109	8.47974
-39.33215	157.106	8.49927
-39.32959	150.752	8.5188
-39.3289	150.72	8.53833
-39.327	157.3569	8.55786
-39.32542	157.228	8.57739
-39.3237	155.3483	8.59692
-39.3221	160.298	8.61646
-39.319	156.98	8.63599
-39.3182	157.26	8.65552
-39.3175	160.735	8.67505
-39.3165	163.553	8.69458
-39.3144	159.0513	8.71411
-39.3116	162.998	8.73364
-39.311	164.228	8.75317
-39.3087	165.303	8.77271
-39.30772	162.168	8.79224
-39.3061	168.99	8.81177
-39.3049	168.3407	8.8313
-39.3022	164.33	8.85083
-39.2998	170.403	8.87036
-39.2989	170.701	8.88989
-39.2966	165.355	8.90942
-39.2956	172.456	8.92896
-39.2942	175.3152	8.94849
-39.2929	168.218	8.96802
-39.2916	173.308	8.98755
-39.2895	177.638	9.00708
-39.2873	173.507	9.02661
-39.2859	174.765	9.04614
-39.2839	180.952	9.06567
-39.2824	173.912	9.08521
-39.28104	180.039	9.10474
-39.2797	184.212	9.12427
-39.2784	180.167	9.1438
-39.2763	177.665	9.16333
-39.274	185.802	9.18286
-39.2726	183.2382	9.20239
-39.2712	183.408	9.22192
-39.2698	184.074	9.24146
-39.2681	188.437	9.26099
-39.2665	185.894	9.28052
-39.26445	190.448	9.30005
-39.2633	189.156	9.31958
-39.2625	188.052	9.33911
-39.2597	188.33	9.35864
-39.2573	196.185	9.37817
-39.2572	192.1982	9.39771
-39.2552	189.927	9.41724
-39.2539	194.499	9.43677
-39.2512	196.117	9.4563
-39.2492	192.839	9.47583
-39.2484	198.257	9.49536
-39.2469	200.256	9.51489
-39.2446	194.528	9.53442
-39.2431	201.221	9.55396
-39.2429	202.527	9.57349
-39.2411	195.774	9.59302
-39.2389	200.828	9.61255
-39.2366	208.53	9.63208
-39.237	200.607	9.65161
-39.233	203.653	9.67114
-39.232	208.219	9.69067
-39.2313	206.561	9.71021
-39.2291	205.831	9.72974
-39.2277	211.849	9.74927
-39.2257	204.754	9.7688
-39.2248	208.927	9.78833
-39.2237	212.7142	9.80786
-39.2219	211.362	9.82739
-39.2194	208.514	9.84692
-39.218	215.724	9.86646
-39.2157	214.252	9.88599
-39.2155	211.885	9.90552
-39.2133	214.929	9.92505
-39.2104	218.478	9.94458
-39.2102	215.677	9.96411
-39.2081	218.9295	9.98364
-39.2061	221.28	10.0032
-39.2058	218.307	10.0227
-39.2019	219.308	10.0422
-39.2008	224.3557	10.0618
-39.2004	223.148	10.0813
-39.1987	218.8813	10.10083
-39.1968	226.405	10.1204
-39.1956	226.358	10.1399
-39.19305	223.926	10.1594
-39.1916	227.659	10.179
-39.1892	231.5311	10.1985
-39.1879	225.026	10.218
-39.1865	231.662	10.2375
-39.1855	233.574	10.25708
-39.1831	227.709	10.2766
-39.18219	232	10.2961
-39.1791	239.954	10.3157
-39.1803	230.09	10.3352
-39.1775	234.105	10.3547
-39.1761	237.264	10.3743
-39.174	237.851	10.3938
-39.1735	236.12	10.41333
-39.1713	244.202	10.4329
-39.1682	237.255	10.4524
-39.167	238.72	10.4719
-39.166	242.23	10.4915
-39.1642	245.261	10.511
-39.1636	240.071	10.5305
-39.1615	246.094	10.55
-39.1594	246.884	10.56958
-39.1576	244.294	10.5891
-39.1559	246.282	10.6086
-39.1548	249.574	10.6282
-39.1534	248.719	10.6477
-39.1502	248.284	10.6672
-39.1494	251.914	10.6868
-39.1487	250.964	10.7063
-39.1466	247.644	10.72583
-39.1447	254.907	10.7454
-39.1433	256.815	10.7649
-39.14122	249.903	10.7844
-39.1405	255.84	10.804
-39.1385	259.178	10.8235
-39.1357	253.003	10.843
-39.1345	256.814	10.8625
-39.1337	262.338	10.88208
-39.1315	255.954	10.9016
-39.12986	263.65	10.9211
-39.1285	263.505	10.9407
-39.1269	258.8414	10.9602
-39.1248	261.11	10.9797
-39.1249	269.734	10.9993
-39.1213	262.617	11.0188
-39.1199	264.185	11.03833
-39.1187	266.932	11.0579
-39.1166	268.615	11.0774
-39.1159	267.0416	11.0969
-39.1139	271.933	11.1165
-39.1138	269.199	11.136
-39.10994	268.236	11.1555
-39.1081	271.356	11.175
-39.1077	275.88	11.19458
-39.1054	271.472	11.2141
-39.1048	272.18	11.2336
-39.10252	278.0509	11.2532
-39.10046	276.944	11.2727
-39.0992	274.654	11.2922
-39.0968	280.352	11.3118
-39.0955	279.31	11.3313
-39.0948	275.346	11.35083
-39.0936	282.046	11.3704
-39.0906	281.474	11.3899
-39.0889	279.009	11.4094
-39.0888	282.992	11.429
-39.0867	288.61	11.4485
-39.0848	279.047	11.468
-39.0828	285.993	11.4875
-39.0814	288.007	11.50708
-39.0802	285.04	11.5266
-39.0776	288.335	11.5461
-39.0761	293.569	11.5657
-39.0753	283.6124	11.5852
-39.0728	290.292	11.6047
-39.0712	293.822	11.6243
-39.0707	290.5683	11.6438
-39.0672	289.689	11.66333
-39.0667	297.307	11.6829
-39.0653	295.29	11.7024
-39.0636	292.665	11.7219
-39.0608	297.294	11.7415
-39.0608	299.033	11.761
-39.0583	295.954	11.7805
-39.0572	298.717	11.8
-39.0552	299.2258	11.81958
-39.0533	296.9852	11.8391
-39.0516	298.72	11.8586
-39.0499	305.323	11.8782
-39.0486	301.652	11.8977
-39.0471	299.801	11.9172
-39.0456	307.344	11.9368
-39.0437	304.047	11.9563
-39.0427	301.976	11.97583
-39.0404	308.484	11.9954
-39.0375	310.771	12.0149
-39.0368	302.07	12.0344
-39.0362	312.024	12.054
-39.034	310.789	12.0735
-39.033	305.924	12.093
-39.0302	313.431	12.1125
-39.0283	317.671	12.13208
-39.0282	308.032	12.1516
-39.0261	314.017	12.1711
-39.0252	315.895	12.1907
-39.0228	314.342	12.2102
-39.0208	314.062	12.2297
-39.0197	320.15	12.2493
-39.0183	312.75	12.2688
-39.0159	316.468	12.28833
-39.0151	322.223	12.3079
-39.01329	321.006	12.3274
-39.012	317.646	12.3469
-39.0099	324.338	12.3665
-39.0076	324.907	12.386
-39.006	321.306	12.4055
-39.0052	323.973	12.425
-39.0026	326.627	12.44458
-39.0017	323.919	12.4641
-38.9989	327.1037	12.4836
-38.9983	329.065	12.5032
-38.9966	325.14	12.5227
-38.9948	326.577	12.5422
-38.9918	332.541	12.5618
-38.9919	331.828	12.5813
-38.99	325.309	12.60083
-38.9886	335.049	12.6204
-38.986	333.244	12.6399
-38.985	330.775	12.6594
-38.9852	337.203	12.679
-38.98283	338.776	12.6985
-38.9808	329.977	12.718
-38.9787	340.1824	12.7375
-38.9762	340.276	12.75708
-38.975	336.393	12.7766
-38.9732	339.02	12.7961
-38.9729	345.567	12.8157
-38.9712	339.177	12.8352
-38.9695	341.593	12.8547
-38.9683	344.217	12.8743
-38.9657	342.467	12.8938
-38.9645	341.965	12.91333
-38.9614	348.427	12.9329
-38.9619	344.5127	12.9524
-38.9586	342.407	12.9719
-38.9575	348.047	12.9915
-38.9557	349.421	13.011
-38.9539	345.71	13.0305
-38.9532	349.705	13.05
-38.9521	352.043	13.06958
-38.9499	347.7052	13.0891
-38.9473	351.033	13.1086
-38.9459	354.288	13.1282
-38.94545	352.986	13.1477
-38.943	352.1481	13.1672
-38.94252	358.488	13.1868
-38.9397	352.79	13.2063
-38.9384	352.6019	13.22583
-38.936	360.953	13.2454
-38.93504	361.551	13.2649
-38.9334	351.858	13.2844
-38.9327	361.669	13.304
-38.9308	359.988	13.3235
-38.929	357.784	13.343
-38.9268	361.866	13.3625
-38.9248	366.8822	13.38208
-38.9233	355.898	13.4016
-38.9221	365.504	13.4211
-38.9193	366.798	13.4407
-38.9181	363.08	13.4602
-38.9166	364.0795	13.4797
-38.9147	370.863	13.4993
-38.9139	366.205	13.5188
-38.9122	366.35	13.53833
-38.9106	369.648	13.5579
-38.9094	370.256	13.5774
-38.9075	369.778	13.5969
-38.906	373.928	13.6165
-38.9033	371.0665	13.636
-38.9021	368.155	13.6555
-38.90049	373.965	13.675
-38.8992	378.145	13.69458
-38.8976	373.068	13.7141
-38.8969	372.764	13.7336
-38.8943	380.6922	13.7532
-38.8927	375.276	13.7727
-38.8899	374.82	13.7922
-38.88924	381.728	13.8118
-38.888	380.145	13.8313
-38.8862	375.58	13.85083
-38.8851	387.258	13.8704
-38.8835	380.699	13.8899
-38.8817	379.546	13.9094
-38.8799	385.299	13.929
-38.8784	389.351	13.9485
-38.877	378.778	13.968
-38.8744	386.442	13.9875
-38.8735	388.854	14.00708
-38.8711	384.93	14.0266
-38.8702	388.238	14.0461
-38.8686	392.323	14.0657
-38.8683	384.053	14.0852
-38.8652	388.644	14.1047
-38.8628	392.843	14.1243
-38.8608	390.099	14.1438
-38.8598	389.727	14.16333
-38.8575	397.217	14.1829
-38.857	393.822	14.2024
-38.85421	391.872	14.2219
-38.8539	395.521	14.2415
-38.8518	397.396	14.261
-38.8507	394.169	14.2805
-38.8486	396.353	14.3
-38.8471	400.3483	14.31958
-38.8444	393.798	14.3391
-38.8427	399.289	14.3586
-38.8411	404.518	14.3782
-38.8404	400.6405	14.3977
-38.8398	396.317	14.4172
-38.8372	406.497	14.4368
-38.8357	401.328	14.4563
-38.8333	398.747	14.47583
-38.8329	405.414	14.4954
-38.831	405.312	14.5149
-38.8296	400.246	14.5344
-38.8261	410.713	14.554
-38.8256	408.873	14.5735
-38.8253	403.291	14.593
-38.8234	410.783	14.6125
-38.8211	415.552	14.63208
-38.8199	405.656	14.6516
-38.8176	411.287	14.6711
-38.8159	413.256	14.6907
-38.8151	408.175	14.7102
-38.8124	411.218	14.7297
-38.8114	417.299	14.7493
-38.8095	409.821	14.7688
-38.807	412.9917	14.78833
-38.80574	417.872	14.8079
-38.8062	415.916	14.8274
-38.8042	413.929	14.8469
-38.801	419.1376	14.8665
-38.7997	419.587	14.886
-38.7978	415.697	14.9055
-38.7964	420.151	14.925
-38.7948	420.635	14.94458
-38.7932	419.267	14.9641
-38.7909	420.004	14.9836
-38.7901	426.591	15.0032
-38.7881	419.251	15.0227
-38.7871	422.331	15.0422
-38.7853	429.282	15.0618
-38.7845	426.299	15.0813
-38.7826	419.394	15.10083
-38.7816	429.83	15.1204
-38.7787	426.158	15.1399
-38.7761	424.538	15.1594
-38.7759	429.101	15.179
-38.7743	431.93	15.1985
-38.7727	422.741	15.218
-38.76923	432.979	15.2375
-38.7683	431.969	15.25708
-38.7669	427.283	15.2766
-38.7661	428.679	15.2961
-38.7641	438.087	15.3157
-38.7634	428.386	15.3352
-38.7601	431.999	15.3547
-38.75959	435.99	15.3743
-38.7575	433.105	15.3938
-38.7549	434.203	15.41333
-38.7541	439.602	15.4329
-38.7533	435.475	15.4524
-38.751	434.7948	15.4719
-38.7499	440.823	15.4915
-38.7476	441.621	15.511
-38.745	437.535	15.5305
-38.7445	439.7485	15.55
-38.74358	444.631	15.56958
-38.7418	437.056	15.5891
-38.7393	441.914	15.6086
-38.738	445.498	15.6282
-38.7359	442.397	15.6477
-38.7348	440.2179	15.6672
-38.7326	449.032	15.6868
-38.7313	441.255	15.7063
-38.7297	443.187	15.72583
-38.7287	450.364	15.7454
-38.7268	450.787	15.7649
-38.7246	440.851	15.7844
-38.7224	452.227	15.804
-38.7219	449.206	15.8235
-38.72	445.381	15.843
-38.7193	450.246	15.8625
-38.7163	453.1532	15.88208
-38.7149	445.371	15.9016
-38.7135	452.122	15.9211
-38.7129	454.739	15.9407
-38.7111	448.097	15.9602
-38.70797	448.979	15.9797
-38.7065	457.771	15.9993
-38.7061	452.752	16.0188
-38.7038	449.993	16.03833
-38.7006	456.943	16.0579
-38.7003	454.687	16.0774
-38.6991	453.358	16.0969
-38.6983	457.869	16.1165
-38.6968	458.763	16.136
-38.6952	453.8685	16.1555
-38.6921	457.993	16.175
-38.6908	461.772	16.19458
-38.6896	458.633	16.2141
-38.6881	456.424	16.2336
-38.6861	465.377	16.2532
-38.6837	459.172	16.2727
-38.6834	460.781	16.2922
-38.6804	465.091	16.3118
-38.6792	462.57	16.3313
-38.677	457.912	16.35083
-38.67683	468.71	16.3704
-38.67474	464.236	16.3899
-38.6727	460.958	16.4094
-38.6709	467.444	16.429
-38.6701	469.986	16.4485
-38.6676	460.447	16.468
-38.6659	467.551	16.4875
-38.6651	468.2337	16.50708
-38.6623	464.723	16.5266
-38.6599	468.682	16.5461
-38.6585	472.191	16.5657
-38.6581	464.055	16.5852
-38.6564	467.956	16.6047
-38.65485	474.255	16.6243
-38.6536	468.977	16.6438
-38.6503	468.774	16.66333
-38.6483	472.237	16.6829
-38.6483	471.928	16.7024
-38.6473	469.384	16.7219
-38.6455	474.172	16.7415
-38.6441	473.206	16.761
-38.6421	471.495	16.7805
-38.6404	473.259	16.8
-38.6388	479.353	16.81958
-38.6382	469.293	16.8391
-38.6348	476.2832	16.8586
-38.6346	479.784	16.8782
-38.6318	476.258	16.8977
-38.6317	472.146	16.9172
-38.6292	483.198	16.9368
-38.6271	476.801	16.9563
-38.6263	476.168	16.97583
-38.624	482.582	16.9954
-38.6217	481.862	17.0149
-38.62133	473.759	17.0344
-38.61832	485.005	17.054
-38.6174	483.329	17.0735
-38.616	476.2467	17.093
-38.6142	481.373	17.1125
-38.6137	485.253	17.13208
-38.6116	477.511	17.1516
-38.6096	482.033	17.1711
-38.6079	484.897	17.1907
-38.6053	480.821	17.2102
-38.6042	483.953	17.2297
-38.6024	487.182	17.2493
-38.6006	482.126	17.2688
-38.599	482.811	17.28833
-38.5984	489.9855	17.3079
-38.5968	485.4216	17.3274
-38.594	483.779	17.3469
-38.5931	486.825	17.3665
-38.5904	489.428	17.386
-38.5903	483.484	17.4055
-38.5889	487.831	17.425
-38.5864	488.838	17.44458
-38.5853	487.623	17.4641
-38.5831	484.797	17.4836
-38.582	494.041	17.5032
-38.5809	484.354	17.5227
-38.5783	486.251	17.5422
-38.5771	494.045	17.5618
-38.5748	491.45	17.5813
-38.5729	484.069	17.60083
-38.5719	494.366	17.6204
-38.5701	489.99	17.6399
-38.5685	490.042	17.6594
-38.5673	494.342	17.679
-38.5652	493.743	17.6985
-38.5646	486.395	17.718
-38.5629	494.146	17.7375
-38.5592	495.664	17.75708
-38.559	488.309	17.7766
-38.557	491.758	17.7961
-38.5552	497.637	17.8157
-38.554	490.275	17.8352
-38.5523	491.429	17.8547
-38.5495	496.394	17.8743
-38.5492	491.579	17.8938
-38.5469	493.406	17.91333
-38.5463	497.245	17.9329
-38.5439	495.929	17.9524
-38.543	490.9729	17.9719
-38.5398	497.9155	17.9915
-38.539	497.78	18.011
-38.5369	495.21	18.0305
-38.5364	493.838	18.05
-38.5342	500.601	18.06958
-38.5326	493.464	18.0891
-38.5329	496.172	18.1086
-38.5305	499.521	18.1282
-38.5277	495.116	18.1477
-38.5271	491.618	18.1672
-38.5246	502.756	18.1868
-38.52372	493.666	18.2063
-38.5213	494.922	18.22583
-38.5201	501.953	18.2454
-38.5188	500.081	18.2649
-38.516	491.04	18.2844
-38.5154	499.8	18.304
-38.5131	498.668	18.3235
-38.5114	495.141	18.343
-38.51001	499.736	18.3625
-38.5084	501.514	18.38208
-38.50721	493.826	18.4016
-38.50462	499.2543	18.4211
-38.5029	502.764	18.4407
-38.502	495.589	18.4602
-38.5008	496.469	18.4797
-38.4977	501.448	18.4993
-38.4973	498.173	18.5188
-38.4955	496.272	18.53833
-38.49416	499.483	18.5579
-38.4917	496.606	18.5774
-38.4909	496.889	18.5969
-38.4894	500.466	18.6165
-38.4879	502.772	18.636
-38.4864	493.67	18.6555
-38.484	500.944	18.675
-38.4816	504.422	18.69458
-38.4818	498.8	18.7141
-38.47871	497.156	18.7336
-38.4787	505.506	18.7532
-38.4761	496.639	18.7727
-38.4741	497.982	18.7922
-38.4729	503.927	18.8118
-38.4711	498.863	18.8313
-38.4692	494.982	18.85083
-38.4676	505.505	18.8704
-38.4663	501.3125	18.8899
-38.4642	495.551	18.9094
-38.4635	502.026	18.929
-38.4612	503.11	18.9485
-38.4596	494.908	18.968
-38.4571	501.442	18.9875
-38.4563	499.485	19.00708
-38.4554	495.342	19.0266
-38.4533	501.507	19.0461
-38.4516	502.554	19.0657
-38.4495	496.469	19.0852
-38.4484	497.223	19.1047
-38.44585	504.474	19.1243
-38.4447	497.35	19.1438
-38.44347	497.619	19.16333
-38.4416	500.425	19.1829
-38.4403	501.616	19.2024
-38.4386	495.666	19.2219
-38.4366	501.083	19.2415
-38.4348	499.362	19.261
-38.433	498.16	19.2805
-38.43219	498.254	19.3
-38.4299	505.388	19.31958
-38.4283	494.421	19.3391
-38.4275	498.107	19.3586
-38.4257	504.114	19.3782
-38.4247	498.116	19.3977
-38.4223	493.7565	19.4172
-38.4211	502.729	19.4368
-38.4191	496.745	19.4563
-38.416	496.259	19.47583
-38.4161	503.085	19.4954
-38.4145	500.2417	19.5149
-38.4125	490.5	19.5344
-38.4111	501.858	19.554
-38.4092	498.773	19.5735
-38.4076	491.91	19.593
-38.4061	498.136	19.6125
-38.40416	500.37	19.63208
-38.40107	493.718	19.6516
-38.401	497.704	19.6711
-38.3992	499.883	19.6907
-38.398	494.7587	19.7102
-38.3967	498.813	19.7297
-38.3937	500.3512	19.7493
-38.3925	497.787	19.7688
-38.392	494.296	19.78833
-38.3898	501.663	19.8079
-38.3884	499.1268	19.8274
-38.3851	495.512	19.8469
-38.3847	497.232	19.8665
-38.3828	501.081	19.886
-38.3818	492.044	19.9055
-38.3798	497.822	19.925
-38.3785	500.081	19.94458
-38.3775	495.775	19.9641
-38.3747	493.625	19.9836
-38.372	503.051	20.0032
-38.3724	499.522	20.0129

Data Header:			0.254_hd_uprint_typeiv_4545_r0			Time:	40.0181	s	4/13/2019 7:55:52 PM
Data Acquisition:	Timed
Station Name:	ft40.cfg
Test File Name:	monotonic_0.2540_typeiv_hd_4545_uprint.tst
Displacement	Force	Running Time
mm	N	s
-38.3718	492.1665	20.0227
-38.3713	493.932	20.0422
-38.3676	500.6972	20.0618
-38.36771	497.053	20.0813
-38.36652	491.9762	20.10083
-38.3642	500.991	20.1204
-38.3627	495.117	20.1399
-38.3596	492.424	20.1594
-38.3583	498.543	20.179
-38.3565	498.386	20.1985
-38.35569	490.182	20.218
-38.3542	495.272	20.2375
-38.3522	500.269	20.25708
-38.3513	491.817	20.2766
-38.34808	495.467	20.2961
-38.3466	498.282	20.3157
-38.3458	494.131	20.3352
-38.3434	493.216	20.3547
-38.3422	498.051	20.3743
-38.3401	492.786	20.3938
-38.3387	494.878	20.41333
-38.3381	497.886	20.4329
-38.3365	496.977	20.4524
-38.3339	489.226	20.4719
-38.3336	497.4137	20.4915
-38.3311	494.96	20.511
-38.3299	493.338	20.5305
-38.3272	492.319	20.55
-38.326	499.603	20.56958
-38.325	490.552	20.5891
-38.3232	494.425	20.6086
-38.3227	500.375	20.6282
-38.3189	492.643	20.6477
-38.3189	491.476	20.6672
-38.3153	499.244	20.6868
-38.3155	493.098	20.7063
-38.31287	490.196	20.72583
-38.3109	497.647	20.7454
-38.3094	496.559	20.7649
-38.30822	488.879	20.7844
-38.3061	497.222	20.804
-38.3054	495.834	20.8235
-38.3031	490.393	20.843
-38.302	497.331	20.8625
-38.29948	495.446	20.88208
-38.2979	489.584	20.9016
-38.2975	492.443	20.9211
-38.2951	498.755	20.9407
-38.2933	491.341	20.9602
-38.2922	492.697	20.9797
-38.29034	495.3107	20.9993
-38.2889	493.645	21.0188
-38.2872	490.565	21.03833
-38.285	496.599	21.0579
-38.284	493.541	21.0774
-38.2823	492.1275	21.0969
-38.28	493.552	21.1165
-38.2795	498.297	21.136
-38.2771	487.56	21.1555
-38.275	495.086	21.175
-38.2736	498.446	21.19458
-38.2727	491.69	21.2141
-38.2702	489.19	21.2336
-38.2696	496.89	21.2532
-38.2677	489.382	21.2727
-38.2671	491.634	21.2922
-38.2649	498.694	21.3118
-38.26144	492.741	21.3313
-38.2605	487.578	21.35083
-38.2593	497.577	21.3704
-38.2575	493.396	21.3899
-38.2556	488.972	21.4094
-38.2545	494.661	21.429
-38.2516	496.489	21.4485
-38.2523	489.42	21.468
-38.2484	493.982	21.4875
-38.2477	494.013	21.50708
-38.2465	487.737	21.5266
-38.2444	494.0379	21.5461
-38.24287	495.242	21.5657
-38.24147	490.1821	21.5852
-38.2393	488.754	21.6047
-38.2386	497.644	21.6243
-38.2369	490.339	21.6438
-38.2352	490.376	21.66333
-38.2338	492.583	21.6829
-38.2318	494.374	21.7024
-38.2301	487.095	21.7219
-38.22821	494.811	21.7415
-38.2264	494.316	21.761
-38.2259	489.63	21.7805
-38.2232	491.288	21.8
-38.2218	497.572	21.81958
-38.2205	487.424	21.8391
-38.2193	490.62	21.8586
-38.2171	497.149	21.8782
-38.2165	491.238	21.8977
-38.214	487.352	21.9172
-38.2127	495.563	21.9368
-38.21069	488.332	21.9563
-38.2082	487.319	21.97583
-38.20755	495.488	21.9954
-38.2057	491.831	22.0149
-38.2046	485.525	22.0344
-38.2023	493.596	22.054
-38.2001	492.733	22.0735
-38.1986	487.545	22.093
-38.1971	490.609	22.1125
-38.1956	493.596	22.13208
-38.1942	487.94	22.1516
-38.1924	490.93	22.1711
-38.1911	493.997	22.1907
-38.189	486.353	22.2102
-38.1884	490.2879	22.2297
-38.1862	493.231	22.2493
-38.1839	490.874	22.2688
-38.1829	487.814	22.28833
-38.18103	494.259	22.3079
-38.181	493.57	22.3274
-38.17823	489.2908	22.3469
-38.1769	490.155	22.3665
-38.1746	494.547	22.386
-38.1733	486.917	22.4055
-38.1722	493.849	22.425
-38.1698	494.7431	22.44458
-38.1681	489.015	22.4641
-38.16732	488.156	22.4836
-38.1649	497.082	22.5032
-38.1643	487.913	22.5227
-38.1605	485.6734	22.5422
-38.1613	494.707	22.5618
-38.1587	491.54	22.5813
-38.1564	487.413	22.60083
-38.1547	494.544	22.6204
-38.1547	490.004	22.6399
-38.1526	486.328	22.6594
-38.15	493.3454	22.679
-38.1487	492.182	22.6985
-38.1476	483.368	22.718
-38.1456	492.044	22.7375
-38.1435	493.12	22.75708
-38.1428	487.275	22.7766
-38.1407	490.8645	22.7961
-38.1398	492.6969	22.8157
-38.1376	488.549	22.8352
-38.1359	486.276	22.8547
-38.1339	493.68	22.8743
-38.1328	487.661	22.8938
-38.1308	488.34	22.91333
-38.1301	491.802	22.9329
-38.1273	493.544	22.9524
-38.1255	484.999	22.9719
-38.1255	491.062	22.9915
-38.1224	493.618	23.011
-38.1212	487.3717	23.0305
-38.11974	487.142	23.05
-38.1186	492.932	23.06958
-38.1165	486.292	23.0891
-38.1137	490.21	23.1086
-38.1118	495.177	23.1282
-38.1097	488.269	23.1477
-38.1096	484.793	23.1672
-38.1081	494.313	23.1868
-38.1069	486.3194	23.2063
-38.105	487.114	23.22583
-38.1033	492.089	23.2454
-38.1014	490.36	23.2649
-38.0991	484.692	23.2844
-38.0984	491.692	23.304
-38.0972	491.091	23.3235
-38.0958	485.624	23.343
-38.0938	492.474	23.3625
-38.0912	491.977	23.38208
-38.0901	486.439	23.4016
-38.0896	487.823	23.4211
-38.08699	493.255	23.4407
-38.0852	487.465	23.4602
-38.0832	488.363	23.4797
-38.0821	490.801	23.4993
-38.0803	488.366	23.5188
-38.0793	486.411	23.53833
-38.0774	492.3562	23.5579
-38.0754	490.007	23.5774
-38.074	486.905	23.5969
-38.072	488.629	23.6165
-38.0709	493.922	23.636
-38.0688	484.86	23.6555
-38.0675	489.305	23.675
-38.06517	492.888	23.69458
-38.0641	489.824	23.7141
-38.0627	485.165	23.7336
-38.0606	493.923	23.7532
-38.0595	486.495	23.7727
-38.0568	487.117	23.7922
-38.0559	493.364	23.8118
-38.0535	488.545	23.8313
-38.0531	483.926	23.85083
-38.0516	493.728	23.8704
-38.0489	489.127	23.8899
-38.0469	483.174	23.9094
-38.0457	491.186	23.929
-38.0443	489.002	23.9485
-38.0443	484.4939	23.968
-38.0414	490.119	23.9875
-38.0399	489.24	24.00708
-38.0376	483.657	24.0266
-38.037	489.921	24.0461
-38.0346	492.545	24.0657
-38.03355	487.519	24.0852
-38.0316	486.383	24.1047
-38.0304	492.2691	24.1243
-38.0283	489.111	24.1438
-38.0263	488.365	24.16333
-38.0244	488.037	24.1829
-38.023	489.711	24.2024
-38.0219	483.587	24.2219
-38.0204	491.305	24.2415
-38.019	491.7403	24.261
-38.0172	487.6955	24.2805
-38.0147	487.251	24.3
-38.0138	494.084	24.31958
-38.0116	486.386	24.3391
-38.01144	486.238	24.3586
-38.00906	492.632	24.3782
-38.0065	489.945	24.3977
-38.0057	484.9682	24.4172
-38.0046	493.382	24.4368
-38.00264	487.293	24.4563
-38.0012	485.418	24.47583
-37.9987	493.353	24.4954
-37.9984	490.125	24.5149
-37.9961	481.627	24.5344
-37.9944	491.124	24.554
-37.9918	489.614	24.5735
-37.9912	483.8017	24.593
-37.9901	489.128	24.6125
-37.9878	489.561	24.63208
-37.9867	484.0499	24.6516
-37.9847	486.276	24.6711
-37.98259	492.804	24.6907
-37.982	483.97	24.7102
-37.9791	488.363	24.7297
-37.9781	491.463	24.7493
-37.9758	490.218	24.7688
-37.9747	483.957	24.78833
-37.97332	491.073	24.8079
-37.9714	488.286	24.8274
-37.9709	486.396	24.8469
-37.9671	489.293	24.8665
-37.9672	490.5036	24.886
-37.9637	482.669	24.9055
-37.9622	488.827	24.925
-37.9614	490.283	24.94458
-37.9605	485.728	24.9641
-37.9588	482.6395	24.9836
-37.9562	494.334	25.0032
-37.9552	485.145	25.0227
-37.9542	483.832	25.0422
-37.952	490.085	25.0618
-37.9505	487.493	25.0813
-37.9474	482.732	25.10083
-37.94635	489.867	25.1204
-37.94487	486.177	25.1399
-37.9439	481.633	25.1594
-37.9422	491.087	25.179
-37.9402	487.7854	25.1985
-37.9398	481.384	25.218
-37.9368	484.3696	25.2375
-37.9355	488.362	25.25708
-37.9347	482.375	25.2766
-37.9325	488.444	25.2961
-37.9307	489.74	25.3157
-37.9289	485.45	25.3352
-37.9276	484.35	25.3547
-37.9259	491.649	25.3743
-37.9254	484.983	25.3938
-37.9228	484.667	25.41333
-37.921	487.336	25.4329
-37.91964	488.7	25.4524
-37.9177	482.789	25.4719
-37.9162	488.392	25.4915
-37.9145	489.602	25.511
-37.9128	485.631	25.5305
-37.9112	486.281	25.55
-37.9093	492.015	25.56958
-37.9083	481.1333	25.5891
-37.9064	486.971	25.6086
-37.9051	492.411	25.6282
-37.9033	486.347	25.6477
-37.9015	481.811	25.6672
-37.8995	490.974	25.6868
-37.8978	485.111	25.7063
-37.8964	483.354	25.72583
-37.8953	489.063	25.7454
-37.8933	485.931	25.7649
-37.8902	481.731	25.7844
-37.891	488.985	25.804
-37.8895	486.194	25.8235
-37.8865	479.173	25.843
-37.8845	487.662	25.8625
-37.883	489.231	25.88208
-37.8825	482.244	25.9016
-37.8808	484.072	25.9211
-37.8793	489.126	25.9407
-37.8778	483.439	25.9602
-37.8754	485.746	25.9797
-37.8742	486.885	25.9993
-37.8718	485.894	26.0188
-37.8714	481.156	26.03833
-37.8685	488.906	26.0579
-37.86676	488.729	26.0774
-37.8654	482.547	26.0969
-37.8642	484.011	26.1165
-37.863	488.751	26.136
-37.8608	481.363	26.1555
-37.85807	487.075	26.175
-37.8576	488.97	26.19458
-37.8556	484.169	26.2141
-37.8541	484.66	26.2336
-37.8528	491.048	26.2532
-37.8518	482.6716	26.2727
-37.84877	483.35	26.2922
-37.8475	489.954	26.3118
-37.8462	486.4794	26.3313
-37.8431	478.931	26.35083
-37.8422	488.889	26.3704
-37.8413	485.5199	26.3899
-37.8396	481.9931	26.4094
-37.83889	488.265	26.429
-37.8362	487.818	26.4485
-37.8349	480.175	26.468
-37.8335	486.676	26.4875
-37.8307	487.929	26.50708
-37.8296	481.2355	26.5266
-37.8283	484.799	26.5461
-37.8269	489.247	26.5657
-37.8256	483.928	26.5852
-37.8232	482.953	26.6047
-37.8219	488.518	26.6243
-37.8208	483.63	26.6438
-37.8186	485.23	26.66333
-37.81776	485.966	26.6829
-37.8152	487.321	26.7024
-37.8139	479.581	26.7219
-37.8122	488.118	26.7415
-37.8106	487.895	26.761
-37.808	484.247	26.7805
-37.8071	481.56	26.8
-37.8062	490.321	26.81958
-37.80455	482.0014	26.8391
-37.80188	485.542	26.8586
-37.80027	489.985	26.8782
-37.7988	484.165	26.8977
-37.7973	482.801	26.9172
-37.7958	491.469	26.9368
-37.7949	483.887	26.9563
-37.79237	482.203	26.97583
-37.7908	489.509	26.9954
-37.7888	485.947	27.0149
-37.7888	479.4	27.0344
-37.7854	486.64	27.054
-37.784	486.53	27.0735
-37.7826	481.374	27.093
-37.7813	488.328	27.1125
-37.7786	486.922	27.13208
-37.7778	479.492	27.1516
-37.7757	484.745	27.1711
-37.773	488.545	27.1907
-37.7731	482.097	27.2102
-37.77187	484.71	27.2297
-37.7705	488.296	27.2493
-37.7684	486.742	27.2688
-37.7663	481.489	27.28833
-37.7657	488.642	27.3079
-37.7628	485.491	27.3274
-37.76162	484.078	27.3469
-37.7594	486.199	27.3665
-37.7583	488.4487	27.386
-37.7559	479.69	27.4055
-37.755	486.041	27.425
-37.7547	490.053	27.44458
-37.7517	482.992	27.4641
-37.7502	481.612	27.4836
-37.74815	490.5636	27.5032
-37.7463	483.992	27.5227
-37.74519	484.172	27.5422
-37.7438	489.432	27.5618
-37.74128	485.159	27.5813
-37.7405	481.306	27.60083
-37.7383	489.817	27.6204
-37.7378	486.39	27.6399
-37.7349	479.971	27.6594
-37.7335	487.985	27.679
-37.7326	487.811	27.6985
-37.7306	480.854	27.718
-37.72987	486.943	27.7375
-37.727	487.464	27.75708
-37.7258	479.676	27.7766
-37.7237	485.697	27.7961
-37.7223	487.864	27.8157
-37.7215	482.6189	27.8352
-37.7192	481.525	27.8547
-37.717	489.09	27.8743
-37.7165	483.679	27.8938
-37.7146	483.767	27.91333
-37.7126	484.809	27.9329
-37.7112	487.2142	27.9524
-37.7089	481.716	27.9719
-37.7088	486.963	27.9915
-37.7068	485.627	28.011
-37.7041	482.556	28.0305
-37.7028	482.6506	28.05
-37.7003	490.4487	28.06958
-37.6995	481.041	28.0891
-37.6977	483.402	28.1086
-37.6958	489.21	28.1282
-37.6947	484.173	28.1477
-37.6929	480.437	28.1672
-37.6921	487.8685	28.1868
-37.6894	483.614	28.2063
-37.6889	481.014	28.22583
-37.68671	488.795	28.2454
-37.6849	484.5618	28.2649
-37.6825	477.896	28.2844
-37.681	486.44	28.304
-37.6799	486.518	28.3235
-37.6782	478.981	28.343
-37.6778	485.845	28.3625
-37.6751	487.528	28.38208
-37.674	481.141	28.4016
-37.67181	482.752	28.4211
-37.6692	487.874	28.4407
-37.6691	480.795	28.4602
-37.6682	484.324	28.4797
-37.6649	487.328	28.4993
-37.6644	484.059	28.5188
-37.6625	480.201	28.53833
-37.6599	487.646	28.5579
-37.6591	486.0607	28.5774
-37.6564	482.226	28.5969
-37.6563	483.463	28.6165
-37.6549	486.988	28.636
-37.6528	479.903	28.6555
-37.6517	486.622	28.675
-37.6492	487.505	28.69458
-37.648	481.176	28.7141
-37.6458	480.875	28.7336
-37.6446	489.697	28.7532
-37.6429	480.059	28.7727
-37.64027	481.309	28.7922
-37.64	487.081	28.8118
-37.6379	484.841	28.8313
-37.6352	479.3569	28.85083
-37.6337	487.947	28.8704
-37.6322	482.718	28.8899
-37.6315	479.26	28.9094
-37.6297	486.7038	28.929
-37.6281	485.363	28.9485
-37.6265	477.542	28.968
-37.62516	484.061	28.9875
-37.62323	487.722	29.00708
-37.6218	477.931	29.0266
-37.6194	481.739	29.0461
-37.6186	485.6734	29.0657
-37.6162	480.953	29.0852
-37.6159	481.454	29.1047
-37.6132	487.327	29.1243
-37.6114	481.335	29.1438
-37.6097	482.266	29.16333
-37.6082	484.6156	29.1829
-37.60778	486.093	29.2024
-37.6049	476.63	29.2219
-37.60413	484.957	29.2415
-37.6021	485.747	29.261
-37.6012	481.886	29.2805
-37.5996	480.82	29.3
-37.59811	489	29.31958
-37.5958	479.355	29.3391
-37.5939	485.5408	29.3586
-37.5926	488.506	29.3782
-37.591	481.66	29.3977
-37.5901	477.837	29.4172
-37.5874	488.495	29.4368
-37.5854	482.391	29.4563
-37.58382	479.011	29.47583
-37.5823	488.157	29.4954
-37.5813	484.032	29.5149
-37.57864	478.292	29.5344
-37.5782	485.369	29.554
-37.5761	483.827	29.5735
-37.5731	477.8931	29.593
-37.572	485.116	29.6125
-37.5713	485.739	29.63208
-37.5689	480.439	29.6516
-37.5682	480.443	29.6711
-37.5664	486.11	29.6907
-37.5645	480.982	29.7102
-37.5627	481.903	29.7297
-37.5619	484.492	29.7493
-37.5601	482.098	29.7688
-37.5578	478.961	29.78833
-37.5546	487.251	29.8079
-37.5546	482.1756	29.8274
-37.5526	480.214	29.8469
-37.5518	483.355	29.8665
-37.5483	486.308	29.886
-37.5472	478.136	29.9055
-37.5469	482.423	29.925
-37.5452	485.643	29.94458
-37.5433	482.577	29.9641
-37.5415	480.135	29.9836
-37.5407	486.517	30.0032
-37.5387	478.475	30.0227
-37.53759	480.551	30.0422
-37.5351	487.659	30.0618
-37.5346	482.347	30.0813
-37.5307	477.147	30.10083
-37.53035	486.952	30.1204
-37.5292	482.82	30.1399
-37.5261	479.2948	30.1594
-37.5256	484.937	30.179
-37.5242	484.504	30.1985
-37.5231	478.35	30.218
-37.5207	485.2796	30.2375
-37.5185	486.615	30.25708
-37.5175	478.74	30.2766
-37.5151	481.728	30.2961
-37.5136	485.224	30.3157
-37.5119	480.081	30.3352
-37.51086	479.586	30.3547
-37.5091	486.672	30.3743
-37.5077	480.52	30.3938
-37.5064	482.158	30.41333
-37.50441	484.569	30.4329
-37.5027	484.854	30.4524
-37.5007	477.379	30.4719
-37.4988	485.041	30.4915
-37.4974	485.358	30.511
-37.49675	479.858	30.5305
-37.4949	480.85	30.55
-37.4925	488.573	30.56958
-37.4904	478.945	30.5891
-37.489	483.498	30.6086
-37.4879	485.363	30.6282
-37.4861	480.968	30.6477
[...]
-37.45985	478.473	30.9602
-37.4589	481.547	30.9797
-37.4573	485.694	30.9993
-37.456	482.867	31.0188
-37.4543	479.163	31.03833
-37.4512	484.077	31.0579
-37.4514	482.556	31.0774
-37.4496	479.648	31.0969
-37.4462	482.6669	31.1165
-37.4456	485.061	31.136
-37.4434	475.601	31.1555
-37.4425	483.972	31.175
-37.4402	486.099	31.19458
-37.43922	480.466	31.2141
-37.438	478.107	31.2336
-37.4356	486.605	31.2532
-37.4335	479.772	31.2727
-37.4326	481.326	31.2922
-37.4312	485.087	31.3118
-37.4295	480.992	31.3313
-37.4273	475.849	31.35083
-37.4258	486.77	31.3704
-37.4256	481.457	31.3899
-37.423	476.361	31.4094
-37.4223	484.38	31.429
-37.4194	484.41	31.4485
-37.4176	476.2	31.468
-37.4159	481.916	31.4875
-37.415	485.147	31.50708
-37.413	477.394	31.5266
-37.4123	482.88	31.5461
-37.41	483.792	31.5657
-37.4078	478.592	31.5852
-37.4063	480.422	31.6047
-37.4051	485.5762	31.6243
-37.403	481.688	31.6438
-37.4019	481.093	31.66333
-37.40097	482.947	31.6829
-37.3987	484.656	31.7024
-37.3973	477.529	31.7219
-37.3948	483.55	31.7415
-37.39323	481.979	31.761
-37.39259	479.298	31.7805
-37.3901	481	31.8
-37.3896	485.786	31.81958
-37.3877	476.211	31.8391
-37.3858	480.748	31.8586
-37.3835	486.8205	31.8782
-37.3824	481.534	31.8977
-37.3802	476.642	31.9172
-37.379	485.286	31.9368
-37.3766	480.529	31.9563
-37.3759	479.606	31.97583
-37.3739	486.111	31.9954
-37.3728	482.21	32.0149
-37.3697	475.221	32.0344
-37.3697	485.613	32.054
-37.3672	482.458	32.0735
-37.3653	476.642	32.093
-37.3629	482.415	32.1125
-37.3629	484.71	32.13208
-37.362	477.739	32.1516
-37.3592	481.15	32.1711
-37.3577	483.711	32.1907
-37.3567	478.454	32.2102
-37.3542	481.717	32.2297
-37.3524	484.163	32.2493
-37.3511	479.699	32.2688
-37.3506	476.745	32.28833
-37.3482	486.248	32.3079
-37.3466	482.101	32.3274
-37.3458	478.323	32.3469
-37.3435	480.899	32.3665
-37.3419	484.761	32.386
-37.3397	477.918	32.4055
-37.3378	484.006	32.425
-37.3367	484.668	32.44458
-37.3354	480.519	32.4641
-37.3334	478.001	32.4836
-37.3315	486.982	32.5032
-37.3295	477.3093	32.5227
-37.3292	478.386	32.5422
-37.3281	486.7088	32.5618
-37.3256	483.06	32.5813
-37.32325	476.044	32.60083
-37.3227	482.708	32.6204
-37.3207	480.07	32.6399
-37.3197	476.6091	32.6594
-37.31731	484.559	32.679
-37.316	483.753	32.6985
-37.3141	475.142	32.718
-37.3123	481.665	32.7375
-37.3107	484.863	32.75708
-37.31073	476.211	32.7766
-37.3085	480.241	32.7961
-37.3061	482.926	32.8157
-37.3036	478.361	32.8352
-37.3023	478.394	32.8547
-37.3006	482.937	32.8743
-37.2991	477.634	32.8938
-37.2969	479.501	32.91333
-37.2962	482.9436	32.9329
-37.29398	483.159	32.9524
-37.2934	475.8262	32.9719
-37.2908	482.254	32.9915
-37.2893	482.909	33.011
-37.2883	479.297	33.0305
-37.2869	477.164	33.05
-37.2837	484.855	33.06958
-37.2832	477.413	33.0891
-37.28093	480.4494	33.1086
-37.2789	485.746	33.1282
-37.2781	480.179	33.1477
-37.2764	476.996	33.1672
-37.2745	486.435	33.1868
-37.2729	478.259	33.2063
-37.2702	476.066	33.22583
-37.2707	482.2	33.2454
-37.26738	483.327	33.2649
-37.2671	475.513	33.2844
-37.2662	483.1	33.304
-37.2634	480.5715	33.3235
-37.2615	474.9317	33.343
-37.2608	481.769	33.3625
-37.2583	485.207	33.38208
-37.2574	476.075	33.4016
-37.25573	480.225	33.4211
-37.2534	484.1745	33.4407
-37.2524	476.698	33.4602
-37.2507	479.105	33.4797
-37.2492	483.59	33.4993
-37.2475	478.8688	33.5188
-37.24453	476.319	33.53833
-37.244	483.81	33.5579
-37.2412	478.673	33.5774
-37.2415	478.858	33.5969
-37.2392	480.23	33.6165
-37.2373	483.507	33.636
-37.2357	475.87	33.6555
-37.234	478.927	33.675
-37.2326	483.367	33.69458
-37.2317	479.885	33.7141
-37.2296	476.742	33.7336
-37.2268	484.922	33.7532
-37.2255	478.075	33.7727
-37.2237	477.955	33.7922
-37.2227	484.196	33.8118
-37.2214	479.875	33.8313
-37.2203	475.28	33.85083
-37.2172	484.776	33.8704
-37.2161	480.058	33.8899
-37.2142	475.45	33.9094
-37.2122	481.179	33.929
-37.2113	482.441	33.9485
-37.2101	474.632	33.968
-37.2086	480.487	33.9875
-37.2076	482.483	34.00708
-37.2044	475.139	34.0266
-37.2032	481.0329	34.0461
-37.201	484.491	34.0657
-37.2003	476.325	34.0852
-37.1987	478.525	34.1047
-37.1975	482.9899	34.1243
-37.1951	477.088	34.1438
-37.1931	478.085	34.16333
-37.191	480.092	34.1829
-37.1888	479.723	34.2024
-37.1888	475.409	34.2219
-37.187	482.728	34.2415
-37.18512	479.656	34.261
-37.1828	475.917	34.2805
-37.1816	477.852	34.3
-37.1814	485.005	34.31958
-37.1786	474.623	34.3391
-37.1775	478.202	34.3586
-37.1759	482.144	34.3782
-37.1734	480.7934	34.3977
-37.1721	476.173	34.4172
-37.1702	483.447	34.4368
-37.1696	477.479	34.4563
-37.1675	476.352	34.47583
-37.165	483.373	34.4954
-37.1642	481.227	34.5149
-37.1628	472.3797	34.5344
-37.1607	482.192	34.554
-37.1597	479.362	34.5735
-37.1584	476.6123	34.593
-37.1554	480.522	34.6125
-37.1543	482.23	34.63208
-37.1533	474.079	34.6516
-37.1511	478.944	34.6711
-37.14978	483.213	34.6907
-37.1476	474.37	34.7102
-37.1455	476.759	34.7297
-37.1443	483.301	34.7493
-37.1421	476.88	34.7688
-37.1409	475.5817	34.78833
-37.1398	480.866	34.8079
-37.1381	479.577	34.8274
-37.1355	477.243	34.8469
-37.1346	479.1	34.8665
-37.1324	479.996	34.886
-37.1318	473.674	34.9055
-37.1294	481.344	34.925
-37.1289	481.093	34.94458
-37.1262	476.954	34.9641
-37.1256	475.396	34.9836
-37.1233	486.465	35.0032
-37.1217	476.021	35.0227
-37.1197	477.3096	35.0422
-37.1193	483.607	35.0618
-37.1173	479.281	35.0813
-37.11628	473.295	35.10083
-37.1133	482.96	35.1204
-37.1124	478.147	35.1399
-37.11	474.288	35.1594
-37.1089	481.374	35.179
-37.1061	482.7547	35.1985
-37.1057	471.894	35.218
-37.1034	479.216	35.2375
-37.10178	479.598	35.25708
-37.1011	475.162	35.2766
-37.0993	479.74	35.2961
-37.0979	482.068	35.3157
-37.0956	475.983	35.3352
-37.09473	477.707	35.3547
-37.0923	482.047	35.3743
-37.09124	476.353	35.3938
-37.0893	477.941	35.41333
-37.0871	481.436	35.4329
-37.0863	479.853	35.4524
-37.0836	476.021	35.4719
-37.0831	479.65	35.4915
-37.0808	478.92	35.511
-37.0813	478.4632	35.5305
-37.0783	477.259	35.55
-37.0757	481.553	35.56958
-37.07423	474.391	35.5891
-37.0726	478.042	35.6086
-37.0715	481.882	35.6282
-37.0693	479.003	35.6477
-37.06794	473.743	35.6672
-37.06665	484.877	35.6868
-37.0654	475.925	35.7063
-37.0634	475.822	35.72583
-37.06081	480.1673	35.7454
-37.0594	480.9455	35.7649
-37.0593	471.8616	35.7844
-37.0574	481.673	35.804
-37.0552	479.15	35.8235
-37.0528	472.932	35.843
-37.0515	478.6246	35.8625
-37.05	483.768	35.88208
-37.0493	473.189	35.9016
-37.0463	476.693	35.9211
-37.04554	480.891	35.9407
-37.0427	475.741	35.9602
-37.042	476.143	35.9797
-37.0396	481.672	35.9993
-37.0383	475.171	36.0188
-37.0374	475.043	36.03833
-37.0364	481.49	36.0579
-37.0338	478.868	36.0774
-37.0327	475.417	36.0969
-37.031	478.095	36.1165
-37.0284	480.933	36.136
-37.0277	474.4115	36.1555
-37.0258	478.652	36.175
-37.0243	479.511	36.19458
-37.0231	477.8497	36.2141
-37.0209	475.774	36.2336
-37.0179	481.739	36.2532
-37.0191	473.435	36.2727
-37.0152	474.2988	36.2922
-37.0147	481.458	36.3118
-37.0125	478.396	36.3313
-37.0111	472.732	36.35083
-37.0095	483.213	36.3704
-37.0066	476.297	36.3899
-37.0051	474.934	36.4094
-37.0047	481.176	36.429
-37.0026	480.729	36.4485
-37.0013	472.755	36.468
-37.0002	480.143	36.4875
-36.9978	480.264	36.50708
-36.9954	473.3389	36.5266
-36.9953	476.666	36.5461
-36.9937	481.569	36.5657
-36.9899	473.945	36.5852
-36.9905	476.194	36.6047
-36.988	478.941	36.6243
-36.987	475.1012	36.6438
-36.9852	475.33	36.66333
-36.9827	479.295	36.6829
-36.9813	476.564	36.7024
-36.9798	471.48	36.7219
-36.9775	480.154	36.7415
-36.97665	480.683	36.761
-36.9744	474.908	36.7805
-36.9745	474.953	36.8
-36.9724	480.051	36.81958
-36.9713	473.797	36.8391
-36.9686	477.785	36.8586
-36.9677	479.882	36.8782
-36.9665	475.671	36.8977
-36.9641	474.896	36.9172
-36.9618	482.851	36.9368
-36.9611	474.445	36.9563
-36.959	473.837	36.97583
-36.9572	478.602	36.9954
-36.9563	479.5249	37.0149
-36.9537	469.469	37.0344
-36.9534	480.345	37.054
-36.9508	476.343	37.0735
-36.9495	472.925	37.093
-36.9473	477.173	37.1125
-36.9459	480.75	37.13208
-36.9448	470.422	37.1516
-36.9425	476.711	37.1711
-36.94136	478.982	37.1907
-36.9398	475.014	37.2102
-36.9374	473.397	37.2297
-36.9366	479.234	37.2493
-36.935	474.541	37.2688
-36.9335	474.555	37.28833
-36.9311	478.7153	37.3079
-36.929	475.939	37.3274
-36.9276	473.619	37.3469
-36.9259	477.217	37.3665
-36.9242	478.8786	37.386
-36.9234	470.092	37.4055
-36.9207	476.865	37.425
-36.9201	478.126	37.44458
-36.9178	474.869	37.4641
-36.9154	472.191	37.4836
-36.9147	480.076	37.5032
-36.9137	472.85	37.5227
-36.9113	473.735	37.5422
-36.9098	478.9071	37.5618
-36.9088	476.321	37.5813
-36.9062	469.913	37.60083
-36.9048	479.958	37.6204
-36.9034	475.0856	37.6399
-36.9013	472.013	37.6594
-36.90052	476.4274	37.679
-36.8981	479.082	37.6985
-36.8979	469.514	37.718
-36.896	477.866	37.7375
-36.8949	475.717	37.75708
-36.8914	472.397	37.7766
-36.8902	476.0177	37.7961
-36.8892	480.7876	37.8157
-36.887	470.17	37.8352
-36.8861	473.266	37.8547
-36.8837	478.146	37.8743
-36.8832	474.377	37.8938
-36.8813	473.151	37.91333
-36.8786	479.23	37.9329
-36.8775	473.905	37.9524
-36.8761	472.397	37.9719
-36.8739	477.102	37.9915
-36.8735	474.563	38.011
-36.8708	472.523	38.0305
-36.8694	474.9455	38.05
-36.8675	478.048	38.06958
-36.8667	471.098	38.0891
-36.8647	473.8255	38.1086
-36.8633	478.38	38.1282
-36.8617	474.342	38.1477
-36.86	471.034	38.1672
-36.8591	478.998	38.1868
-36.8571	473.981	38.2063
-36.8557	472.966	38.22583
-36.8535	477.889	38.2454
-36.8523	478.104	38.2649
-36.8499	467.552	38.2844
-36.849	477.332	38.304
-36.8459	476.903	38.3235
-36.8445	471.384	38.343
-36.8436	474.004	38.3625
-36.8425	477.9075	38.38208
-36.8397	470.1344	38.4016
-36.8388	475.4389	38.4211
-36.83696	476.337	38.4407
-36.8361	472.329	38.4602
-36.8338	471.7171	38.4797
-36.8325	479.296	38.4993
-36.8303	471.925	38.5188
-36.8303	471.588	38.53833
-36.82806	476.0824	38.5579
-36.8254	476.5231	38.5774
-36.8228	470.753	38.5969
-36.8226	475.9996	38.6165
-36.8203	474.916	38.636
-36.8197	472.325	38.6555
-36.8173	475.73	38.675
-36.81543	476.049	38.69458
-36.8143	472.1171	38.7141
-36.8117	472.177	38.7336
-36.81078	477.687	38.7532
-36.8086	472.299	38.7727
-36.8068	473.522	38.7922
-36.8059	476.57	38.8118
-36.8045	475.928	38.8313
-36.8016	470.224	38.85083
-36.8009	478.314	38.8704
-36.7985	473.2	38.8899
-36.7975	470.77	38.9094
-36.7971	476.517	38.929
-36.7946	477.124	38.9485
-36.7921	466.27	38.968
-36.7913	474.402	38.9875
-36.7893	477.268	39.00708
-36.7877	471.1431	39.0266
-36.7855	472.6293	39.0461
-36.7851	477.962	39.0657
-36.7845	470.6445	39.0852
-36.7814	473.26	39.1047
-36.7795	476.226	39.1243
-36.7795	472.993	39.1438
-36.7771	470.932	39.16333
-36.775	477.162	39.1829
-36.7734	473.69	39.2024
-36.7727	471.137	39.2219
-36.77005	474.57	39.2415
-36.7692	473.4762	39.261
-36.7673	471.538	39.2805
-36.7656	471.475	39.3
-36.7632	474.594	39.31958
-36.7622	469.001	39.3391
-36.7596	471.171	39.3586
-36.7591	476.122	39.3782
-36.7571	472.4	39.3977
-36.7561	469.564	39.4172
-36.7544	476.637	39.4368
-36.7524	473.022	39.4563
-36.7504	468.798	39.47583
-36.749	474.54	39.4954
-36.7476	474.369	39.5149
-36.7459	467.22	39.5344
-36.74432	477.785	39.554
-36.7422	473.365	39.5735
-36.7407	468.422	39.593
-36.7387	473.848	39.6125
-36.7372	479.093	39.63208
-36.7364	467.107	39.6516
-36.7356	473.515	39.6711
-36.7321	474.586	39.6907
-36.7316	470.834	39.7102
-36.7294	470.723	39.7297
-36.7276	476.248	39.7493
-36.7251	467.554	39.7688
-36.72459	469.069	39.78833
-36.7226	473.355	39.8079
-36.7215	471.089	39.8274
-36.7199	467.102	39.8469
-36.71804	474.047	39.8665
-36.7153	471.9209	39.886
-36.7155	468.174	39.9055
-36.7126	469.482	39.925
-36.7107	472.529	39.94458
-36.7111	468.283	39.9641
-36.7086	468.843	39.9836
-36.70647	475.058	40.0032
-36.7058	471.6701	40.0129

Data Header:			0.254_hd_uprint_typeiv_4545_r0			Time:	43.1367	s	4/13/2019 7:55:55 PM
Data Acquisition:	Timed
Station Name:	ft40.cfg
Test File Name:	monotonic_0.2540_typeiv_hd_4545_uprint.tst
Displacement	Force	Running Time
mm	N	s
-36.7057	467.831	40.0227
-36.7052	468.507	40.0325
-36.7042	466.998	40.0422
-36.7024	468.016	40.052
-36.7017	472.3027	40.0618
-36.70105	471.006	40.0715
-36.7	471.76	40.0813
-36.69965	466.1297	40.0911
-36.6991	464.5462	40.10083
-36.6965	470.061	40.1106
-36.6961	473.28	40.1204
-36.6964	473.447	40.1301
-36.6957	471.539	40.1399
-36.6943	467.682	40.1497
-36.6933	467.1817	40.1594
-36.6922	467.093	40.1692
-36.6909	473.125	40.179
-36.6915	475.824	40.1887
-36.6911	472.959	40.1985
-36.6898	469.408	40.2083
-36.6895	463.556	40.218
-36.6868	466.834	40.2278
-36.6872	472.868	40.2375
-36.6872	473.274	40.2473
-36.6856	472.051	40.25708
-36.6845	467.053	40.2668
-36.6847	466.592	40.2766
-36.6827	465.524	40.2864
-36.68227	469.317	40.2961
-36.6824	471.677	40.3059
-36.6805	474.88	40.3157
-36.6799	469.978	40.3254
-36.6796	465.242	40.3352
-36.6779	462.858	40.345
-36.677	469.315	40.3547
-36.6776	472.164	40.3645
-36.6763	470.586	40.3743
-36.6743	471.501	40.384
-36.6738	468.585	40.3938
-36.6738	465.071	40.4036
-36.673	466.666	40.41333
-36.6713	467.418	40.4231
-36.671	471.879	40.4329
-36.6702	470.669	40.4426
-36.6684	465.845	40.4524
-36.6684	464.827	40.4622
-36.6678	464.398	40.4719
-36.6668	467.71	40.4817
-36.6661	468.545	40.4915
-36.665	468.247	40.5012
-36.6641	470.5105	40.511
-36.6632	467.274	40.5208
-36.66283	464.579	40.5305
-36.6613	464.849	40.5403
-36.6604	467.602	40.55
-36.6607	471.94	40.5598
-36.65937	469.732	40.56958
-36.6584	466.81	40.5793
-36.6577	464.981	40.5891
-36.6572	464.807	40.5989
-36.6552	467.257	40.6086
-36.6561	466.711	40.6184
-36.6534	468.877	40.6282
-36.6542	470.278	40.6379
-36.6527	464.998	40.6477
-36.6521	463.705	40.6575
-36.6512	462.568	40.6672
-36.6495	467.1	40.677
-36.6486	469.762	40.6868
-36.6492	469.154	40.6965
-36.6481	465.539	40.7063
-36.647	464.219	40.7161
-36.6464	462.583	40.72583
-36.6458	463.537	40.7356
-36.645	467.966	40.7454
-36.6433	470.1828	40.7551
-36.6429	468.272	40.7649
-36.6421	460.431	40.7747
-36.6406	458.956	40.7844
-36.6415	462.037	40.7942
-36.64	467.892	40.804
-36.6392	471.102	40.8137
-36.6382	465.111	40.8235
-36.6367	463.862	40.8333
-36.6367	460.3992	40.843
-36.6357	459.759	40.8528
-36.6352	465.077	40.8625
-36.6343	467.922	40.8723
-36.6323	469.666	40.88208
-36.6335	462.191	40.8918
-36.63076	457.817	40.9016
-36.6311	459.097	40.9114
-36.6308	464.162	40.9211
-36.6281	465.627	40.9309
-36.6278	465.814	40.9407
-36.6274	461.27	40.9504
-36.6274	459.116	40.9602
-36.62661	457.731	40.97
-36.6255	458.588	40.9797
-36.6246	461.7	40.9895
-36.6235	465.618	40.9993
-36.6219	461.343	41.009
-36.6221	457.028	41.0188
-36.6211	454.687	41.0286
-36.6203	455.832	41.03833
-36.6187	459.628	41.0481
-36.6188	459.921	41.0579
-36.6176	459.3129	41.0676
-36.6174	454.812	41.0774
-36.6156	454.975	41.0872
-36.6145	452.011	41.0969
-36.61367	452.107	41.1067
-36.6141	456.917	41.1165
-36.6124	455.509	41.1262
-36.6124	451.727	41.136
-36.6111	450.007	41.1458
-36.6109	445.373	41.1555
-36.6104	446.8541	41.1653
-36.6083	445.691	41.175
-36.6079	428.65	41.1848
-36.6052	-17.7612	41.19458
-36.6048	-25.7109	41.2043
-36.6034	-52.5398	41.2141
-36.603	-47.4899	41.2239
-36.60284	-43.6806	41.2336
-36.6022	-33.6283	41.2434
-36.6016	-41.0135	41.2532
-36.59959	-39.70253	41.2629
-36.5997	-44.6526	41.2727
-36.5997	-43.6993	41.2825
-36.5992	-43.96	41.2922
-36.5974	-45.0558	41.302
-36.597	-39.0959	41.3118
-36.5963	-36.4032	41.3215
-36.5944	-42.266	41.3313
-36.5949	-44.91806	41.3411
-36.59346	-45.631	41.35083
-36.5928	-42.063	41.3606
-36.5911	-36.2821	41.3704
-36.591	-38.8252	41.3801
-36.5905	-39.794	41.3899
-36.5903	-43.6826	41.3997
-36.5895	-45.9441	41.4094
-36.5879	-44.3555	41.4192
-36.5874	-40.24881	41.429
-36.58622	-37.6637	41.4387
-36.5862	-38.0148	41.4485
-36.5856	-45.0092	41.4583
-36.5849	-46.42765	41.468
-36.5832	-46.9662	41.4778
-36.5829	-40.3841	41.4875
-36.582	-36.9673	41.4973
-36.5811	-40.6555	41.50708
-36.581	-41.5382	41.5168
-36.5802	-44.8728	41.5266
-36.5776	-46.9545	41.5364
-36.57822	-40.0116	41.5461
-36.5778	-40.4545	41.5559
-36.5764	-36.9488	41.5657
-36.5757	-39.0766	41.5754
-36.5738	-46.612	41.5852
-36.5723	-46.4946	41.595
-36.5718	-44.627	41.6047
-36.5723	-38.998	41.6145
-36.5707	-39.14003	41.6243
-36.5709	-41.4071	41.634
-36.5694	-41.3355	41.6438
-36.5689	-45.43	41.6536
-36.569	-44.5038	41.66333
-36.56678	-41.8644	41.6731
-36.5668	-38.1864	41.6829
-36.56575	-37.941	41.6926
-36.5654	-43.6268	41.7024
-36.5647	-47.0699	41.7122
-36.5631	-44.153	41.7219
-36.5626	-41.2446	41.7317
-36.5627	-40.5814	41.7415
-36.5592	-38.6964	41.7512
-36.56094	-41.1111	41.761
-36.5594	-41.9482	41.7708
-36.5579	-44.9979	41.7805
-36.5575	-46.5017	41.7903
-36.5566	-40.6241	41.8
-36.5555	-39.1474	41.8098
-36.5548	-38.7762	41.81958
-36.55386	-42.4571	41.8293
-36.5535	-44.6732	41.8391
-36.5537	-42.7513	41.8489
-36.5518	-44.1832	41.8586
-36.5514	-40.08223	41.8684
-36.5501	-37.947	41.8782
-36.5489	-39.491	41.8879
-36.5485	-41.4191	41.8977
-36.5483	-47.3759	41.9075
-36.5469	-45.4482	41.9172
-36.5464	-39.1399	41.927
-36.5448	-40.5049	41.9368
-36.54565	-36.8051	41.9465
-36.5436	-43.4925	41.9563
-36.5427	-45.7019	41.9661
-36.5419	-45.0529	41.97583
-36.5415	-46.6571	41.9856
-36.5404	-39.7729	41.9954
-36.54	-37.6133	42.0051
-36.5384	-40.6695	42.0149
-36.5383	-46.0612	42.0247
-36.5383	-47.7983	42.0344
-36.5371	-43.8698	42.0442
-36.536	-38.6022	42.054
-36.5336	-37.35931	42.0637
-36.5345	-40.8869	42.0735
-36.5324	-42.9899	42.0833
-36.5317	-44.1153	42.093
-36.5315	-46.8119	42.1028
-36.5299	-42.6064	42.1125
-36.5301	-36.27544	42.1223
-36.5281	-36.847	42.13208
-36.5277	-42.5635	42.1418
-36.5274	-46.3326	42.1516
-36.5267	-46.5692	42.1614
-36.5257	-40.3728	42.1711
-36.5246	-38.6837	42.1809
-36.524	-39.4801	42.1907
-36.5224	-40.1983	42.2004
-36.5226	-44.4662	42.2102
-36.5209	-46.5575	42.22
-36.52055	-41.549	42.2297
-36.5198	-42.0195	42.2395
-36.5196	-37.77459	42.2493
-36.5182	-40.5962	42.259
-36.5176	-44.3675	42.2688
-36.5183	-44.8816	42.2786
-36.5153	-45.8393	42.28833
-36.5159	-39.3588	42.2981
-36.5144	-41.89241	42.3079
-36.5133	-39.8667	42.3176
-36.513	-40.2005	42.3274
-36.5119	-45.6421	42.3372
-36.51004	-45.567	42.3469
-36.51	-44.1411	42.3567
-36.5089	-40.7135	42.3665
-36.5083	-38.5585	42.3762
-36.5075	-43.9052	42.386
-36.5067	-44.067	42.3958
-36.5073	-43.4054	42.4055
-36.5055	-43.6813	42.4153
-36.5051	-41.626	42.425
-36.5045	-41.4777	42.4348
-36.504	-40.3895	42.44458
-36.5023	-41.1145	42.4543
-36.5012	-46.3883	42.4641
-36.5005	-46.9128	42.4739
-36.5002	-44.67976	42.4836
-36.49844	-40.7709	42.4934
-36.498	-40.1748	42.5032
-36.4974	-42.6893	42.5129
-36.4966	-43.7465	42.5227
-36.4953	-43.6721	42.5325
-36.495	-45.3391	42.5422
-36.49408	-43.0071	42.552
-36.4923	-41.166	42.5618
-36.4922	-37.6567	42.5715
-36.4913	-42.30056	42.5813
-36.4914	-47.95982	42.5911
-36.4904	-46.4141	42.60083
-36.4903	-42.7487	42.6106
-36.4879	-39.5435	42.6204
-36.4876	-37.9969	42.6301
-36.48624	-42.2962	42.6399
-36.486	-42.8832	42.6497
-36.486	-45.909	42.6594
-36.4844	-46.3316	42.6692
-36.4837	-41.6241	42.679
-36.4833	-37.8751	42.6887
-36.4823	-37.7653	42.6985
-36.4812	-43.6933	42.7083
-36.48024	-49.228	42.718
-36.4785	-43.8386	42.7278
-36.4786	-41.9742	42.7375
-36.4776	-38.3165	42.7473
-36.4767	-41.1089	42.75708
-36.4754	-41.0518	42.7668
-36.4759	-43.9776	42.7766
-36.4753	-48.8986	42.7864
-36.4732	-43.297	42.7961
-36.4741	-40.1397	42.8059
-36.4719	-38.1913	42.8157
-36.4712	-40.4592	42.8254
-36.4713	-46.1846	42.8352
-36.4697	-47.0241	42.845
-36.4688	-41.6843	42.8547
-36.467	-41.4996	42.8645
-36.4671	-39.5608	42.8743
-36.4665	-39.2758	42.884
-36.465	-42.72258	42.8938
-36.4652	-46.4978	42.9036
-36.4649	-45.9308	42.91333
-36.4631	-42.6472	42.9231
-36.4627	-36.6876	42.9329
-36.4616	-39.8766	42.9426
-36.4612	-42.843	42.9524
-36.4605	-45.9361	42.9622
-36.4593	-45.62772	42.9719
-36.4578	-40.6547	42.9817
-36.458	-41.8393	42.9915
-36.4564	-40.4687	43.0012
-36.4554	-40.3478	43.011
-36.4556	-44.31403	43.0208
-36.4545	-44.7802	43.0305
-36.4537	-45.0646	43.0403
-36.4521	-41.2743	43.05
-36.4521	-39.2866	43.0598
-36.452	-43.467	43.06958
-36.451	-41.4927	43.0793
-36.4488	-45.3103	43.0891
-36.4487	-44.7638	43.0989
-36.4482	-45.07962	43.1086
-36.4465	-43.0346	43.1184
-36.4466	-38.7526	43.1282