File: data/processed_data_files/tensile/0.254_solid_dimension_typeiv_4545_r(5).dat
MTS793|BTW|ENU|1|2|.|/|:|1|0|0|A

Data Header:			0.254_solid_dimension_typeiv_4545_r0			Time:	20.0173	s	4/13/2019 8:44:30 PM
Data Acquisition:	Timed
Station Name:	ft40.cfg
Test File Name:	monotonic_0.2540_typeiv_solid_4545_dimension.tst
Displacement	Force	Running Time
mm	N	s
-40.0341	-226.807	0.0219727
-40.034	-230.523	0.0415039
-40.0348	-232.513	0.0610352
-40.0335	-225.661	0.0805664
-40.0314	-225.394	0.100098
-40.0304	-229.734	0.119629
-40.0283	-223.844	0.13916
-40.0267	-226.013	0.158691
-40.0245	-226.752	0.178223
-40.02354	-221.408	0.197754
-40.0211	-216.97	0.217285
-40.0209	-222.942	0.236816
-40.0184	-219.139	0.256348
-40.0179	-217.442	0.275879
-40.0153	-216.8266	0.29541
-40.0135	-219.058	0.314941
-40.0111	-211.221	0.334473
-40.0107	-214.759	0.354004
-40.0086	-213.5085	0.373535
-40.0076	-210.15	0.393066
-40.006	-207.578	0.412598
-40.00457	-213.824	0.432129
-40.0026	-206.534	0.45166
-40.0003	-202.27	0.471191
-39.9992	-208.298	0.490723
-39.998	-207.461	0.510254
-39.9959	-199.03	0.529785
-39.994	-204.561	0.549316
-39.99258	-201.182	0.568848
-39.9916	-197.115	0.588379
-39.9889	-201.452	0.60791
-39.9871	-202.046	0.627441
-39.9856	-192.353	0.646973
-39.9845	-195.244	0.666504
-39.9832	-199.112	0.686035
-39.9813	-191.07	0.705566
-39.9798	-192.532	0.725098
-39.9778	-194.351	0.744629
-39.9765	-189.456	0.76416
-39.9739	-186.655	0.783691
-39.9726	-192.784	0.803223
-39.9713	-185.879	0.822754
-39.9692	-186.053	0.842285
-39.9687	-187.223	0.861816
-39.9659	-185.561	0.881348
-39.9639	-178.283	0.900879
-39.9628	-182.146	0.92041
-39.9618	-181.605	0.939941
-39.96	-179.097	0.959473
-39.9585	-176.488	0.979004
-39.95718	-180.139	0.998535
-39.9553	-172.794	1.01807
-39.9536	-173.67	1.0376
-39.9526	-174.0842	1.05713
-39.9494	-172.124	1.07666
-39.9476	-167.414	1.09619
-39.9468	-174.706	1.11572
-39.9448	-166.596	1.13525
-39.9442	-163.715	1.15479
-39.9415	-167.562	1.17432
-39.9418	-169.882	1.19385
-39.9394	-160.794	1.21338
-39.9369	-164.852	1.23291
-39.9353	-163.924	1.25244
-39.9343	-157.382	1.27197
-39.9326	-161.489	1.2915
-39.9308	-164.106	1.31104
-39.929	-154.934	1.33057
-39.9275	-154.77	1.3501
-39.9256	-159.54	1.36963
-39.9237	-152.174	1.38916
-39.9225	-153.185	1.40869
-39.9216	-153.92	1.42822
-39.9196	-151.447	1.44775
-39.9173	-147.628	1.46729
-39.9161	-151.5134	1.48682
-39.9135	-146.369	1.50635
-39.9132	-145.704	1.52588
-39.9111	-146.738	1.54541
-39.9098	-148.677	1.56494
-39.9084	-138.356	1.58447
-39.9067	-140.344	1.604
-39.9051	-143.344	1.62354
-39.903	-141.617	1.64307
-39.9013	-136.0739	1.6626
-39.9009	-139.538	1.68213
-39.8975	-132.158	1.70166
-39.8956	-132.282	1.72119
-39.89502	-136.459	1.74072
-39.8925	-135.196	1.76025
-39.8917	-126.999	1.77979
-39.8907	-132.597	1.79932
-39.88763	-131.713	1.81885
-39.8859	-123.923	1.83838
-39.8857	-129.176	1.85791
-39.8836	-128.902	1.87744
-39.8821	-121.3233	1.89697
-39.88	-124.4645	1.9165
-39.87788	-125.032	1.93604
-39.877	-117.72	1.95557
-39.8753	-120.6358	1.9751
-39.8734	-123.681	1.99463
-39.8717	-116.877	2.01416
-39.8709	-114.861	2.03369
-39.8684	-119.1813	2.05322
-39.8673	-114.574	2.07275
-39.8657	-112.715	2.09229
-39.864	-112.51	2.11182
-39.8622	-111.974	2.13135
-39.8608	-106.6629	2.15088
-39.86	-109.91	2.17041
-39.8578	-108.496	2.18994
-39.8554	-105.782	2.20947
-39.8534	-105.341	2.229
-39.8521	-108.492	2.24854
-39.85043	-101.745	2.26807
-39.8498	-99.7059	2.2876
-39.84774	-101.691	2.30713
-39.8452	-102.654	2.32666
-39.8445	-95.87606	2.34619
-39.8428	-101.5909	2.36572
-39.8404	-94.315	2.38525
-39.8394	-90.7072	2.40479
-39.8371	-96.3648	2.42432
-39.8363	-96.6333	2.44385
-39.83466	-88.1437	2.46338
-39.8327	-91.9352	2.48291
-39.8311	-91.6511	2.50244
-39.8293	-85.1488	2.52197
-39.8281	-87.5688	2.5415
-39.8263	-89.988	2.56104
-39.8245	-82.2153	2.58057
-39.8227	-83.2762	2.6001
-39.8218	-86.8594	2.61963
-39.8199	-78.5685	2.63916
-39.8177	-79.57457	2.65869
-39.81591	-84.085	2.67822
-39.8154	-78.3503	2.69775
-39.8128	-73.028	2.71729
-39.8108	-76.6274	2.73682
-39.8094	-75.2734	2.75635
-39.8097	-73.4718	2.77588
-39.80674	-73.0736	2.79541
-39.8058	-73.9805	2.81494
-39.8032	-66.5831	2.83447
-39.8021	-70.6059	2.854
-39.8013	-70.7685	2.87354
-39.7988	-67.3562	2.89307
-39.7969	-62.4519	2.9126
-39.7957	-67.9641	2.93213
-39.7947	-60.7976	2.95166
-39.7914	-59.0865	2.97119
-39.7905	-61.927	2.99072
-39.7879	-63.3104	3.01025
-39.7875	-53.369	3.02979
-39.7864	-62.0802	3.04932
-39.7842	-56.7951	3.06885
-39.782	-51.5746	3.08838
-39.7803	-54.5302	3.10791
-39.7788	-58.2518	3.12744
-39.7778	-48.0348	3.14697
-39.7763	-49.254	3.1665
-39.7744	-53.0599	3.18604
-39.7727	-46.6912	3.20557
-39.7713	-48.6825	3.2251
-39.7696	-50.6733	3.24463
-39.7679	-42.2211	3.26416
-39.7667	-41.8565	3.28369
-39.764	-47.3162	3.30322
-39.7624	-40.00816	3.32275
-39.7605	-38.043	3.34229
-39.759	-41.3531	3.36182
-39.7577	-40.4564	3.38135
-39.755	-34.403	3.40088
-39.7548	-37.9989	3.42041
-39.7532	-35.0053	3.43994
-39.7507	-32.9429	3.45947
-39.7497	-32.7901	3.479
-39.7487	-34.9791	3.49854
-39.7475	-26.97879	3.51807
-39.7443	-27.4144	3.5376
-39.744	-30.835	3.55713
-39.7419	-29.6288	3.57666
-39.7407	-23.1606	3.59619
-39.7389	-28.6119	3.61572
-39.7366	-24.3484	3.63525
-39.7347	-19.2476	3.65479
-39.73365	-22.1904	3.67432
-39.7313	-22.4149	3.69385
-39.7305	-14.9009	3.71338
-39.7284	-20.0129	3.73291
-39.7277	-18.8881	3.75244
-39.7259	-11.433	3.77197
-39.7232	-13.5899	3.7915
-39.7216	-18.1237	3.81104
-39.7203	-10.7028	3.83057
-39.7186	-10.8383	3.8501
-39.7166	-13.53174	3.86963
-39.71698	-6.77882	3.88916
-39.7147	-7.18782	3.90869
-39.71291	-10.705	3.92822
-39.71114	-5.45208	3.94775
-39.7091	-0.822127	3.96729
-39.7072	-6.00793	3.98682
-39.7054	-3.64037	4.00635
-39.7047	-1.73018	4.02588
-39.7033	0.117134	4.04541
-39.7019	-2.47359	4.06494
-39.6992	4.4677	4.08447
-39.6975	3.42057	4.104
-39.6962	4.70705	4.12354
-39.6951	6.90642	4.14307
-39.6932	9.69563	4.1626
-39.6921	3.1174	4.18213
-39.6884	11.17385	4.20166
-39.6874	13.4056	4.22119
-39.687	9.89901	4.24072
-39.68383	8.813385	4.26025
-39.6832	18.5025	4.27979
-39.6811	11.4621	4.29932
-39.6815	17.9542	4.31885
-39.67815	21.731	4.33838
-39.6766	15.97809	4.35791
-39.6745	14.5471	4.37744
-39.6734	25.7149	4.39697
-39.6722	21.0625	4.4165
-39.6702	19.6788	4.43604
-39.6684	26.6647	4.45557
-39.6667	27.4931	4.4751
-39.6657	21.1629	4.49463
-39.66386	28.2521	4.51416
-39.6613	31.1017	4.53369
-39.6603	26.1651	4.55322
-39.6595	33.2248	4.57275
-39.6563	34.6695	4.59229
-39.656	28.0182	4.61182
-39.6533	32.1744	4.63135
-39.6515	38.7184	4.65088
-39.6519	34.9205	4.67041
-39.6491	35.7565	4.68994
-39.648	39.4015	4.70947
-39.6467	41.0279	4.729
-39.6439	37.3515	4.74854
-39.6421	43.9703	4.76807
-39.6417	44.828	4.7876
-39.63895	42.364	4.80713
-39.6375	45.4021	4.82666
-39.6362	49.0691	4.84619
-39.6352	42.9622	4.86572
-39.6321	48.2489	4.88525
-39.6309	52.6883	4.90479
-39.6293	50.7567	4.92432
-39.6274	49.02401	4.94385
-39.6274	56.7037	4.96338
-39.6241	52.909	4.98291
-39.6236	55.3532	5.00244
-39.6216	61.495	5.02197
-39.6191	58.6921	5.0415
-39.6178	53.6984	5.06104
-39.6172	65.9227	5.08057
-39.6156	63.5544	5.1001
-39.613	58.9745	5.11963
-39.6121	64.6991	5.13916
-39.6106	67.0213	5.15869
-39.6083	61.5211	5.17822
-39.607	67.9963	5.19775
-39.6053	70.5112	5.21729
-39.6042	66.1162	5.23682
-39.6026	71.0165	5.25635
-39.5997	73.9659	5.27588
-39.5986	70.5563	5.29541
-39.59684	70.827	5.31494
-39.5956	79.0426	5.33447
-39.5944	75.3603	5.354
-39.5928	76.1469	5.37354
-39.59103	79.5828	5.39307
-39.5891	82.0493	5.4126
-39.5866	77.8526	5.43213
-39.5852	85.1262	5.45166
-39.5847	84.3673	5.47119
-39.5821	81.8562	5.49072
-39.5814	84.1612	5.51025
-39.5795	90.9672	5.52979
-39.5779	84.3063	5.54932
-39.5754	86.0842	5.56885
-39.5741	92.0075	5.58838
-39.5714	90.6924	5.60791
-39.5713	85.3613	5.62744
-39.5692	95.6436	5.64697
-39.568	92.8586	5.6665
-39.5667	92.5974	5.68604
-39.5654	98.9191	5.70557
-39.5632	97.8953	5.7251
-39.5617	92.3069	5.74463
-39.5588	101.273	5.76416
-39.5592	103.2355	5.78369
-39.5565	99.2275	5.80322
-39.5555	103.889	5.82275
-39.5535	104.802	5.84229
-39.5513	101.2769	5.86182
-39.5491	104.792	5.88135
-39.5481	110.769	5.90088
-39.5472	105.428	5.92041
-39.5454	108.5038	5.93994
-39.5436	111.689	5.95947
-39.5424	111.378	5.979
-39.5397	108.9854	5.99854
-39.5383	116.364	6.01807
-39.5368	115.608	6.0376
-39.5355	115.938	6.05713
-39.5336	116.953	6.07666
-39.5322	121.412	6.09619
-39.5305	115.42	6.11572
-39.5294	120.871	6.13525
-39.5267	124.617	6.15479
-39.5262	121.015	6.17432
-39.5235	119.612	6.19385
-39.5225	129.583	6.21338
-39.52029	126.196	6.23291
-39.5191	126.531	6.25244
-39.5174	132.037	6.27197
-39.5166	130.416	6.2915
-39.5139	125.277	6.31104
-39.5123	136.428	6.33057
-39.51046	135.356	6.3501
-39.5092	133.028	6.36963
-39.50811	137.673	6.38916
-39.506	138.2693	6.40869
-39.5052	131.833	6.42822
-39.5032	139.645	6.44775
-39.5014	141.1	6.46729
-39.4991	138.56	6.48682
-39.4991	141.556	6.50635
-39.4964	144.7576	6.52588
-39.4945	141.844	6.54541
-39.4926	142.418	6.56494
-39.4914	151.088	6.58447
-39.49	146.84	6.604
-39.4885	146.931	6.62354
-39.4872	150.15	6.64307
-39.4846	151.803	6.6626
-39.4828	147.416	6.68213
-39.4811	153.1656	6.70166
-39.4802	156.0715	6.72119
-39.4784	154.116	6.74072
-39.4766	153.484	6.76025
-39.4743	161.453	6.77979
-39.4733	155.459	6.79932
-39.4726	159.98	6.81885
-39.4709	164.818	6.83838
-39.468	160.79	6.85791
-39.46772	157.057	6.87744
-39.4659	169.939	6.89697
-39.464	165.663	6.9165
-39.4631	166.222	6.93604
-39.4617	170.405	6.95557
-39.4603	169.526	6.9751
-39.4584	164.018	6.99463
-39.4564	173.48	7.01416
-39.454	174.577	7.03369
-39.4527	168.613	7.05322
-39.4503	174.166	7.07275
-39.44944	178.3154	7.09229
-39.4479	172.136	7.11182
-39.4455	176.291	7.13135
-39.44466	181.14	7.15088
-39.4414	177.458	7.17041
-39.4412	178.94	7.18994
-39.439	182.467	7.20947
-39.4377	180.825	7.229
-39.4363	181.135	7.24854
-39.4348	187.559	7.26807
-39.4326	186.507	7.2876
-39.4319	184.117	7.30713
-39.4291	186.395	7.32666
-39.4274	192.824	7.34619
-39.4263	186.692	7.36572
-39.4247	191.397	7.38525
-39.4234	194.797	7.40479
-39.4219	192.343	7.42432
-39.4198	191.097	7.44385
-39.4179	200.594	7.46338
-39.4173	193.006	7.48291
-39.4153	195.253	7.50244
-39.4131	203.554	7.52197
-39.4126	201.455	7.5415
-39.4108	195.272	7.56104
-39.4084	205.314	7.58057
-39.4057	203.171	7.6001
-39.40501	204.042	7.61963
-39.403	207.232	7.63916
-39.4029	209.171	7.65869
-39.4002	201.434	7.67822
-39.3985	210.56	7.69775
-39.3968	213.03	7.71729
-39.3942	208.395	7.73682
-39.39452	209.632	7.75635
-39.3918	215.75	7.77588
-39.3915	210.258	7.79541
-39.389	213.514	7.81494
-39.3876	219.181	7.83447
-39.3854	215.528	7.854
-39.38459	216.194	7.87354
-39.38335	221.026	7.89307
-39.3809	219.394	7.9126
-39.3797	217.993	7.93213
-39.3777	224.341	7.95166
-39.37484	225.691	7.97119
-39.3731	223.641	7.99072
-39.3733	221.144	8.01025
-39.37204	230.204	8.02979
-39.3702	225.174	8.04932
-39.36697	229.389	8.06885
-39.36599	232.969	8.08838
-39.3632	230.26	8.10791
-39.36261	226.418	8.12744
-39.3613	238.3877	8.14697
-39.3591	233.061	8.1665
-39.3591	232.916	8.18604
-39.35535	240.048	8.20557
-39.3539	240.234	8.2251
-39.353	231.199	8.24463
-39.351	242.721	8.26416
-39.3502	241.68	8.28369
-39.3485	240.442	8.30322
-39.34771	244.088	8.32275
-39.3452	246.879	8.34229
-39.3436	239.667	8.36182
-39.3424	245.932	8.38135
-39.3401	250.964	8.40088
-39.3379	246.635	8.42041
-39.3375	247.8461	8.43994
-39.3356	251.285	8.45947
-39.334	249.8699	8.479
-39.3322	250.1694	8.49854
-39.3315	257.424	8.51807
-39.3292	254.534	8.5376
-39.3268	252.63	8.55713
-39.3274	257.537	8.57666
-39.3242	260.099	8.59619
-39.3224	255.352	8.61572
-39.3218	259.818	8.63525
-39.3197	265.661	8.65479
-39.3175	262.478	8.67432
-39.3165	258.848	8.69385
-39.3149	268.216	8.71338
-39.3121	265.376	8.73291
-39.311	265.4613	8.75244
-39.3096	270.771	8.77197
-39.3077	268.748	8.7915
-39.3062	264.012	8.81104
-39.3044	275.563	8.83057
-39.3035	272.3699	8.8501
-39.3011	270.405	8.86963
-39.3002	274.918	8.88916
-39.298	279.43	8.90869
-39.2964	273.579	8.92822
-39.2945	279.434	8.94775
-39.2926	280.1163	8.96729
-39.2908	276.578	8.98682
-39.29	281.9017	9.00635
-39.2878	287.127	9.02588
-39.2863	279.166	9.04541
-39.2855	282.276	9.06494
-39.28397	288.669	9.08447
-39.2809	286.267	9.104
-39.2799	285.88	9.12354
-39.2784	289.083	9.14307
-39.2775	288.693	9.1626
-39.2756	288.008	9.18213
-39.2734	295.006	9.20166
-39.2724	294.23	9.22119
-39.2702	292.217	9.24072
-39.2694	293.248	9.26025
-39.267	300.431	9.27979
-39.2641	294.867	9.29932
-39.2639	296.085	9.31885
-39.2619	301.576	9.33838
-39.2608	300.24	9.35791
-39.2583	296.988	9.37744
-39.2577	304.55	9.39697
-39.2561	300.506	9.4165
-39.2528	301.303	9.43604
-39.2511	308.099	9.45557
-39.2508	309.349	9.4751
-39.249	299.7597	9.49463
-39.2473	312.655	9.51416
-39.2453	310.287	9.53369
-39.2445	308.574	9.55322
-39.2422	311.513	9.57275
-39.2417	313.496	9.59229
-39.2403	307.867	9.61182
-39.2383	313.813	9.63135
-39.2364	318.296	9.65088
-39.23444	314.632	9.67041
-39.2338	315.345	9.68994
-39.2315	320.142	9.70947
-39.2293	316.412	9.729
-39.2283	316.428	9.74854
-39.226	323.889	9.76807
-39.2243	322.003	9.7876
-39.2233	322.2655	9.80713
-39.2217	323.023	9.82666
-39.2198	326.751	9.84619
-39.2179	325.2756	9.86572
-39.2171	330.177	9.88525
-39.2145	330.532	9.90479
-39.21312	327.881	9.92432
-39.2115	325.81	9.94385
-39.2106	336.25	9.96338
-39.2079	331.633	9.98291
-39.2074	331.588	10.0024
-39.2049	337.408	10.022
-39.2031	338.852	10.0415
-39.202	331.205	10.061
-39.2013	341.929	10.0806
-39.1985	337.893	10.1001
-39.1976	337.146	10.1196
-39.1946	342.966	10.13916
-39.1934	345.282	10.1587
-39.1928	336.458	10.1782
-39.1906	344.461	10.1978
-39.1892	347.356	10.2173
-39.1869	345.086	10.2368
-39.1863	346.829	10.2563
-39.18383	351.3165	10.2759
-39.1818	345.327	10.29541
-39.1813	350.194	10.3149
-39.1795	354.308	10.3345
-39.1777	351.044	10.354
-39.1749	352.129	10.3735
-39.1741	358.3	10.3931
-39.1728	356.56	10.4126
-39.171	353.241	10.4321
-39.1702	358.862	10.45166
-39.1669	360.79	10.4712
-39.167	357.297	10.4907
-39.1648	359.101	10.5103
-39.16309	364.313	10.5298
-39.1616	359.673	10.5493
-39.1596	362.112	10.5688
-39.1576	367.535	10.5884
-39.1553	366.596	10.60791
-39.1537	361.826	10.6274
-39.1519	370.671	10.647
-39.152	368.616	10.6665
-39.1494	368.2276	10.686
-39.1485	372.997	10.7056
-39.1475	372.802	10.7251
-39.1453	366.416	10.7446
-39.1436	376.911	10.76416
-39.1413	375.63	10.7837
-39.1406	371.498	10.8032
-39.1381	377.462	10.8228
-39.1362	383.417	10.8423
-39.1351	373.999	10.8618
-39.13422	379.057	10.8813
-39.1323	382.621	10.9009
-39.1312	380.072	10.92041
-39.1291	381.3963	10.9399
-39.1261	386.222	10.9595
-39.1258	382.8548	10.979
-39.1253	384.601	10.9985
-39.1229	391.044	11.0181
-39.1216	388.343	11.0376
-39.11937	386.621	11.0571
-39.1169	390.594	11.07666
-39.1166	392.484	11.0962
-39.11388	390.445	11.1157
-39.1133	394.624	11.1353
-39.1094	395.775	11.1548
-39.1097	394.2114	11.1743
-39.1086	394.277	11.1938
-39.1057	400.443	11.2134
-39.10368	395.524	11.23291
-39.10273	398.579	11.2524
-39.1017	403.251	11.272
-39.0987	404.2	11.2915
-39.0983	396.305	11.311
-39.0966	406.332	11.3306
-39.0941	403.517	11.3501
-39.0937	402.759	11.3696
-39.0926	407.107	11.38916
-39.0896	408.568	11.4087
-39.0891	401.681	11.4282
-39.0874	410.266	11.4478
-39.0843	413.159	11.4673
-39.0824	409.269	11.4868
-39.0821	409.402	11.5063
-39.0802	417.536	11.5259
-39.0795	410.708	11.54541
-39.0765	414.087	11.5649
-39.0747	417.1088	11.5845
-39.0739	416.201	11.604
-39.0719	416.063	11.6235
-39.0693	421.161	11.6431
-39.0688	418.492	11.6626
-39.0664	417.645	11.6821
-39.0653	422.744	11.70166
-39.0632	425.017	11.7212
-39.0624	421.3974	11.7407
-39.0597	421.209	11.7603
-39.0588	427.0593	11.7798
-39.058	423.274	11.7993
-39.0568	426.786	11.8188
-39.0542	430.07	11.8384
-39.0526	428.2634	11.85791
-39.0508	425.581	11.8774
-39.0499	434.854	11.897
-39.0471	430.874	11.9165
-39.0465	428.303	11.936
-39.0436	434.835	11.9556
-39.0428	437.137	11.9751
-39.0403	429.818	11.9946
-39.0394	439.33	12.01416
-39.0375	437.971	12.0337
-39.0361	436.545	12.0532
-39.0339	439.302	12.0728
-39.0322	443.914	12.0923
-39.03223	435.587	12.1118
-39.0291	443.031	12.1313
-39.0281	444.908	12.1509
-39.0265	442.8143	12.17041
-39.0252	442.325	12.1899
-39.0231	448.144	12.2095
-39.0212	444.9371	12.229
-39.02	446.457	12.2485
-39.0179	450.971	12.2681
-39.0156	449.851	12.2876
-39.0162	446.799	12.3071
-39.0142	453.852	12.32666
-39.01244	453.516	12.3462
-39.0099	449.645	12.3657
-39.0084	453.859	12.3853
-39.0069	456.768	12.4048
-39.005	454.082	12.4243
-39.0034	453.984	12.4438
-39.0019	459.556	12.4634
-39.0005	456.1232	12.48291
-39.0006	459.083	12.5024
-38.9971	463.476	12.522
-38.9955	462.136	12.5415
-38.9944	457.27	12.561
-38.993	464.801	12.5806
-38.9905	464.63	12.6001
-38.9882	462.783	12.6196
-38.9869	466.464	12.63916
-38.9853	470.065	12.6587
-38.9853	461.7644	12.6782
-38.9822	469.319	12.6978
-38.9802	470.09	12.7173
-38.9796	469.119	12.7368
-38.9775	470.74	12.7563
-38.9748	476.743	12.7759
-38.9737	469.388	12.79541
-38.9726	472.643	12.8149
-38.9711	478.103	12.8345
-38.9702	476.713	12.854
-38.9685	473.0947	12.8735
-38.9658	479.858	12.8931
-38.9642	476.9751	12.9126
-38.9633	477.549	12.9321
-38.9612	481.607	12.95166
-38.96	482.631	12.9712
-38.9576	478.817	12.9907
-38.9553	481.73	13.0103
-38.95414	486.47	13.0298
-38.953	482.552	13.0493
-38.9498	483.185	13.0688
-38.9493	487.518	13.0884
-38.94791	487.714	13.10791
-38.94672	484.503	13.1274
-38.9448	490.867	13.147
-38.9431	489.512	13.1665
-38.9421	487.999	13.186
-38.9408	492.386	13.2056
-38.9386	495.4	13.2251
-38.9369	485.75	13.2446
-38.9355	494.955	13.26416
-38.9336	495.602	13.2837
-38.932	493.015	13.3032
-38.93058	495.46	13.3228
-38.92918	501.314	13.3423
-38.9257	493.2309	13.3618
-38.9249	499.621	13.3813
-38.9233	503.06	13.4009
-38.9223	497.683	13.42041
-38.9214	498.647	13.4399
-38.9193	506.141	13.4595
-38.9177	498.88	13.479
-38.9153	499.728	13.4985
-38.9136	504.979	13.5181
-38.9124	506.015	13.5376
-38.909	502.633	13.5571
-38.9089	507.807	13.57666
-38.9068	505.028	13.5962
-38.9063	506.054	13.6157
-38.9047	509.416	13.6353
-38.9022	513.7168	13.6548
-38.9009	508.497	13.6743
-38.89922	508.923	13.6938
-38.8977	514.074	13.7134
-38.8962	513.1651	13.73291
-38.8938	511.467	13.7524
-38.8928	516.644	13.772
-38.8909	516.273	13.7915
-38.8891	511.902	13.811
-38.888	518.948	13.8306
-38.886	516.956	13.8501
-38.8844	514.4743	13.8696
-38.8828	519.727	13.88916
-38.8816	523.945	13.9087
-38.88063	512.616	13.9282
-38.8788	521.948	13.9478
-38.8769	522.687	13.9673
-38.8749	522.625	13.9868
-38.8731	522.112	14.0063
-38.8723	527.632	14.0259
-38.8704	520.079	14.04541
-38.869	525.318	14.0649
-38.86657	528.464	14.0845
-38.865	526.703	14.104
-38.8639	523.795	14.1235
-38.8621	532.284	14.1431
-38.8618	527.896	14.1626
-38.8584	527.551	14.1821
-38.8573	531.128	14.20166
-38.8557	534.19	14.2212
-38.8539	529.993	14.2407
-38.8523	533.14	14.2603
-38.85	534.094	14.2798
-38.849	531.24	14.2993
-38.847	532.848	14.3188
-38.845	537.152	14.3384
-38.8444	536.116	14.35791
-38.8426	532.335	14.3774
-38.8403	538.979	14.397
-38.8386	538.162	14.4165
-38.8369	536.6842	14.436
-38.8351	539.501	14.4556
-38.8342	544.275	14.4751
-38.8319	535.964	14.4946
-38.8309	543.385	14.51416
-38.8292	545.549	14.5337
-38.82761	538.324	14.5532
-38.8264	543.906	14.5728
-38.82449	549.162	14.5923
-38.8226	539.2934	14.6118
-38.82198	543.997	14.6313
-38.8202	547.758	14.6509
-38.8173	547.243	14.67041
-38.8167	548.066	14.6899
-38.8143	551.263	14.7095
-38.8137	545.732	14.729
-38.8125	546.983	14.7485
-38.8103	551.617	14.7681
-38.80838	553.089	14.7876
-38.8056	546.936	14.8071
-38.8052	553.339	14.82666
-38.8023	552.986	14.8462
-38.801	551.419	14.8657
-38.8004	552.812	14.8853
-38.7978	555.914	14.9048
-38.79604	551.651	14.9243
-38.7948	553.945	14.9438
-38.7936	557.8913	14.9634
-38.7927	553.683	14.98291
-38.7907	552.16	15.0024
-38.7889	559.437	15.022
-38.7868	560.233	15.0415
-38.7856	553.336	15.061
-38.784	560.109	15.0806
-38.78133	559.8432	15.1001
-38.7799	556.985	15.1196
-38.779	560.815	15.13916
-38.7776	564.967	15.1587
-38.7755	555.663	15.1782
-38.7745	563.1908	15.1978
-38.7731	565.914	15.2173
-38.77	561.999	15.2368
-38.7696	560.447	15.2563
-38.76725	568.513	15.2759
-38.7664	559.548	15.29541
-38.764	564.031	15.3149
-38.7623	567.431	15.3345
-38.7621	566.866	15.354
-38.7591	564.312	15.3735
-38.7585	570.793	15.3931
-38.7557	564.358	15.4126
-38.755	564.451	15.4321
-38.7532	568.304	15.45166
-38.7517	571.474	15.4712
-38.7497	566.413	15.4907
-38.74905	569.125	15.5103
-38.7455	570.673	15.5298
-38.7444	568.418	15.5493
-38.7433	569.942	15.5688
-38.7406	573.535	15.5884
-38.7408	570.159	15.60791
-38.7379	568.463	15.6274
-38.7368	573.787	15.647
-38.7347	572.38	15.6665
-38.7338	568.197	15.686
-38.732	573.679	15.7056
-38.7294	576.119	15.7251
-38.7282	568.302	15.7446
-38.7269	574.34	15.76416
-38.725	575.984	15.7837
-38.7233	571.739	15.8032
-38.7219	574.541	15.8228
-38.7199	579.782	15.8423
-38.7186	568.762	15.8618
-38.7167	577.65	15.8813
-38.7164	579.74	15.9009
-38.7142	576.443	15.92041
-38.712	573.418	15.9399
-38.7103	580.677	15.9595
-38.7101	574.797	15.979
-38.7073	575.686	15.9985
-38.7053	579.138	16.0181
-38.7035	578.231	16.0376
-38.7029	575.723	16.0571
-38.7008	581.097	16.07666
-38.6993	577.623	16.0962
-38.697	577.112	16.1157
-38.6954	579.517	16.1353
-38.69273	583.216	16.1548
-38.6929	578.842	16.1743
-38.6896	577.954	16.1938
-38.6899	580.938	16.2134
-38.6874	578.688	16.23291
-38.68634	580.556	16.2524
-38.6837	582.421	16.272
-38.68206	581.426	16.2915
-38.6808	575.43	16.311
-38.6798	584.3606	16.3306
-38.6777	584.1889	16.3501
-38.677	578.979	16.3696
-38.6752	582.194	16.38916
-38.67374	585.602	16.4087
-38.6711	575.466	16.4282
-38.6696	582.7182	16.4478
-38.6676	584.012	16.4673
-38.66497	580.344	16.4868
-38.6646	581.506	16.5063
-38.6641	588.902	16.5259
-38.6634	577.857	16.54541
-38.66	580.161	16.5649
-38.65889	586.199	16.5845
-38.6574	583.771	16.604
-38.6555	579.742	16.6235
-38.65485	586.121	16.6431
-38.6513	581.871	16.6626
-38.64967	581.622	16.6821
-38.6493	584.11	16.70166
-38.6471	584.994	16.7212
-38.6454	580.046	16.7407
-38.6431	583.576	16.7603
-38.6421	583.368	16.7798
-38.6403	582.465	16.7993
-38.6392	580.597	16.8188
-38.6369	585.873	16.8384
-38.6353	583.94	16.85791
-38.6345	582.024	16.8774
-38.6322	583.673	16.897
-38.6313	584.469	16.9165
-38.6291	580.393	16.936
-38.6275	586.338	16.9556
-38.6253	586.456	16.9751
-38.6246	577.352	16.9946
-38.6226	583.847	17.01416
-38.6219	585.226	17.0337
-38.6198	578.756	17.0532
-38.61824	582.032	17.0728
-38.6158	586.7229	17.0923
-38.6154	578.869	17.1118
-38.6126	584.2547	17.1313
-38.6108	585.918	17.1509
-38.6088	582.279	17.17041
-38.6077	580.906	17.1899
-38.6068	587.93	17.2095
-38.6054	581.333	17.229
-38.6032	580.475	17.2485
-38.6015	584.246	17.2681
-38.5998	584.973	17.2876
-38.598	578.602	17.3071
-38.5959	585.153	17.32666
-38.5956	581.191	17.3462
-38.5929	580.611	17.3657
-38.591	582.196	17.3853
-38.5913	586.95	17.4048
-38.5884	578.46	17.4243
-38.5866	579.62	17.4438
-38.58567	584.352	17.4634
-38.5828	581.424	17.48291
-38.5813	577.683	17.5024
-38.58017	582.5387	17.522
-38.5791	582.548	17.5415
-38.5767	576.862	17.561
-38.5743	582.4082	17.5806
-38.5739	582.4541	17.6001
-38.5715	576.899	17.6196
-38.571	580.172	17.63916
-38.5689	584.158	17.6587
-38.5685	574.57	17.6782
-38.5659	580.318	17.6978
-38.563	582.7265	17.7173
-38.5627	579.04	17.7368
-38.5608	577.22	17.7563
-38.5584	582.883	17.7759
-38.5566	574.5097	17.79541
-38.5559	579.61	17.8149
-38.5542	581.236	17.8345
-38.5522	578.448	17.854
-38.5505	576.3194	17.8735
-38.5488	583.219	17.8931
-38.5473	579.031	17.9126
-38.5473	576.344	17.9321
-38.5442	579.864	17.95166
-38.5435	581.811	17.9712
-38.5422	576.735	17.9907
-38.5391	578.9295	18.0103
-38.5384	577.976	18.0298
-38.5361	575.29	18.0493
-38.5343	575.764	18.0688
-38.5327	580.582	18.0884
-38.5317	578.188	18.10791
-38.5306	574.299	18.1274
-38.5263	578.76	18.147
-38.5263	578.8186	18.1665
-38.5242	573.086	18.186
-38.5235	577.131	18.2056
-38.5232	578.46	18.2251
-38.5206	572.2439	18.2446
-38.5183	577.134	18.26416
-38.5162	577.502	18.2837
-38.5156	571.704	18.3032
-38.5129	575.771	18.3228
-38.5115	580.181	18.3423
-38.5092	569.699	18.3618
-38.5082	573.774	18.3813
-38.5082	576.43	18.4009
-38.50515	574.226	18.42041
-38.5047	572.949	18.4399
-38.5025	577.407	18.4595
-38.5001	571.402	18.479
-38.4988	573.085	18.4985
-38.4966	577.464	18.5181
-38.4962	575.231	18.5376
-38.4945	569.604	18.5571
-38.4931	575.768	18.57666
-38.49	574.692	18.5962
-38.4887	571.8327	18.6157
-38.4874	572.092	18.6353
-38.4866	576.134	18.6548
-38.48381	570.728	18.6743
-38.4831	572.624	18.6938
-38.4807	573.85	18.7134
-38.479	571.172	18.73291
-38.4779	569.327	18.7524
-38.4761	574.707	18.772
-38.4741	572.964	18.7915
-38.4728	566.6449	18.811
-38.4702	571.745	18.8306
-38.47	572.636	18.8501
-38.4674	569.3551	18.8696
-38.4666	572.229	18.88916
-38.46553	574.0722	18.9087
-38.4638	564.523	18.9282
-38.461	571.171	18.9478
-38.4598	573.869	18.9673
-38.4573	568.811	18.9868
-38.45599	568.529	19.0063
-38.4551	576.05	19.0259
-38.4528	566.681	19.04541
-38.45113	568.638	19.0649
-38.45071	572.05	19.0845
-38.44828	569.5871	19.104
-38.4469	567.675	19.1235
-38.4452	573.614	19.1431
-38.4434	567.372	19.1626
-38.4423	567.729	19.1821
-38.4398	568.355	19.20166
-38.4398	574.601	19.2212
-38.4374	565.2099	19.2407
-38.43565	570.043	19.2603
-38.4332	570.059	19.2798
-38.4326	568.548	19.2993
-38.4309	567.284	19.3188
-38.4273	571.214	19.3384
-38.427	564.7511	19.35791
-38.426	565.924	19.3774
-38.42432	569.578	19.397
-38.4228	566.988	19.4165
-38.4196	562.795	19.436
-38.4195	568.288	19.4556
-38.419	569.821	19.4751
-38.4149	561.902	19.4946
-38.414	565.763	19.51416
-38.4124	568.6264	19.5337
-38.41003	563.608	19.5532
-38.4088	565.7204	19.5728
-38.4076	569.909	19.5923
-38.4054	561.082	19.6118
-38.4044	565.876	19.6313
-38.4021	569.809	19.6509
-38.40258	563.708	19.67041
-38.4002	562.4823	19.6899
-38.3972	569.236	19.7095
-38.397	564.555	19.729
-38.3948	564.234	19.7485
-38.3932	566.281	19.7681
-38.3905	565.218	19.7876
-38.3903	561.5741	19.8071
-38.3888	567.376	19.82666
-38.3865	565.501	19.8462
-38.3846	562.1781	19.8657
-38.3829	563.79	19.8853
-38.38121	567.292	19.9048
-38.38076	562.895	19.9243
-38.3787	563.13	19.9438
-38.3779	564.385	19.9634
-38.3751	562.124	19.98291
-38.3734	562.376	20.0024
-38.3733	561.796	20.0122

Data Header:			0.254_solid_dimension_typeiv_4545_r0			Time:	40.0173	s	4/13/2019 8:44:50 PM
Data Acquisition:	Timed
Station Name:	ft40.cfg
Test File Name:	monotonic_0.2540_typeiv_solid_4545_dimension.tst
Displacement	Force	Running Time
mm	N	s
-38.3723	567.638	20.022
-38.3696	562.592	20.0415
-38.3686	559.05	20.061
-38.3657	563.964	20.0806
-38.365	565.39	20.1001
-38.3631	558.526	20.1196
-38.3615	563.848	20.13916
-38.3609	565.618	20.1587
-38.3584	558.004	20.1782
-38.3574	562.141	20.1978
-38.3559	566.221	20.2173
-38.3543	559.67	20.2368
-38.35239	560.637	20.2563
-38.3504	567.338	20.2759
-38.3485	556.774	20.29541
-38.3476	561.522	20.3149
-38.3459	566.041	20.3345
-38.3445	563.775	20.354
-38.3425	558.936	20.3735
-38.3411	566.043	20.3931
-38.3387	560.008	20.4126
-38.3378	561.06	20.4321
-38.3372	562.99	20.45166
-38.3358	563.175	20.4712
-38.33176	558.031	20.4907
-38.3311	561.986	20.5103
-38.3291	562.343	20.5298
-38.3289	559.334	20.5493
-38.3268	558.344	20.5688
-38.3242	563.755	20.5884
-38.3227	560.857	20.60791
-38.3213	559.497	20.6274
-38.3197	560.892	20.647
-38.3177	561.445	20.6665
-38.3157	556.013	20.686
-38.3147	563.707	20.7056
-38.3128	561.656	20.7251
-38.3118	555.49	20.7446
-38.3101	561.044	20.76416
-38.3091	565.535	20.7837
-38.3058	555.2533	20.8032
-38.3052	557.673	20.8228
-38.30283	562.471	20.8423
-38.302	555.545	20.8618
-38.2998	559.19	20.8813
-38.2987	561.98	20.9009
-38.2984	557.399	20.92041
-38.2947	557.679	20.9399
-38.2933	564.603	20.9595
-38.292	555.19	20.979
-38.29	555.5871	20.9985
-38.2889	560.3183	21.0181
-38.2872	562.131	21.0376
-38.2846	555.468	21.0571
-38.2834	559.206	21.07666
-38.2828	555.885	21.0962
-38.2803	557.886	21.1157
-38.27951	558.695	21.1353
-38.2771	561.202	21.1548
-38.2761	554.8584	21.1743
-38.2751	557.599	21.1938
-38.2736	559.702	21.2134
-38.27206	557.721	21.23291
-38.2689	555.513	21.2524
-38.2675	560.7702	21.272
-38.266	558.153	21.2915
-38.2639	555.234	21.311
-38.2634	557.46	21.3306
-38.26091	557.805	21.3501
-38.2585	553.48	21.3696
-38.2579	557.281	21.38916
-38.2563	560.401	21.4087
-38.2547	553.0188	21.4282
-38.2527	555.546	21.4478
-38.2504	560.216	21.4673
-38.2503	555.724	21.4868
-38.2474	555.024	21.5063
-38.2463	560.681	21.5259
-38.245	552.851	21.54541
-38.2431	555.515	21.5649
-38.2427	558.577	21.5845
-38.2399	554.397	21.604
-38.239	553.196	21.6235
-38.2368	561.575	21.6431
-38.2354	554.6969	21.6626
-38.232	553.431	21.6821
-38.23156	555.98	21.70166
-38.2298	559.1394	21.7212
-38.2285	554.274	21.7407
-38.22588	557.721	21.7603
-38.2254	555.679	21.7798
-38.2245	555.2597	21.7993
-38.222	554.859	21.8188
-38.2203	559.651	21.8384
-38.2193	554.769	21.85791
-38.217	553.916	21.8774
-38.2161	555.848	21.897
-38.214	558.679	21.9165
-38.2108	552.753	21.936
-38.2113	557.452	21.9556
-38.2095	558.552	21.9751
-38.20697	553.121	21.9946
-38.2047	554.96	22.01416
-38.2048	556.2439	22.0337
-38.2025	551.152	22.0532
-38.20026	554.088	22.0728
-38.1988	559.038	22.0923
-38.1975	550.222	22.1118
-38.1956	552.168	22.1313
-38.195	558.481	22.1509
-38.1928	554.669	22.17041
-38.1916	552.128	22.1899
-38.1904	557.877	22.2095
-38.1881	551.107	22.229
-38.1855	552.435	22.2485
-38.1847	557.202	22.2681
-38.1824	554.649	22.2876
-38.1813	550.075	22.3071
-38.1806	555.214	22.32666
-38.1776	555.282	22.3462
-38.1769	552.374	22.3657
-38.1744	551.804	22.3853
-38.1726	557.78	22.4048
-38.1727	551.99	22.4243
-38.1704	554.1167	22.4438
-38.16909	554.415	22.4634
-38.1673	553.861	22.48291
-38.165	549.8479	22.5024
-38.1622	557.428	22.522
-38.1621	553.028	22.5415
-38.1604	548.026	22.561
-38.1589	553.002	22.5806
-38.1573	555.172	22.6001
-38.155	551.936	22.6196
-38.1526	552.823	22.63916
-38.1525	555.955	22.6587
-38.1515	549.014	22.6782
-38.1484	553.89	22.6978
-38.1464	555.93	22.7173
-38.1458	549.492	22.7368
-38.1443	549.538	22.7563
-38.1422	557.777	22.7759
-38.1411	549.725	22.79541
-38.1398	550.845	22.8149
-38.1377	553.776	22.8345
-38.1359	552.852	22.854
-38.1345	549.48	22.8735
-38.1324	558.325	22.8931
-38.1305	550.742	22.9126
-38.1299	549.91	22.9321
-38.1281	553.815	22.95166
-38.1269	555.828	22.9712
-38.1243	549.036	22.9907
-38.1222	554.023	23.0103
-38.1213	552.668	23.0298
-38.1191	552.455	23.0493
-38.1186	550.255	23.0688
-38.1181	555.063	23.0884
-38.1135	550.8067	23.10791
-38.1131	549.564	23.1274
-38.1102	553.952	23.147
-38.11	553.009	23.1665
-38.1087	547.477	23.186
-38.1064	554.556	23.2056
-38.10574	551.945	23.2251
-38.1032	548.227	23.2446
-38.1019	549.929	23.26416
-38.1007	555.261	23.2837
-38.0982	548.1012	23.3032
-38.0972	551.94	23.3228
-38.0952	553.785	23.3423
-38.0931	547.528	23.3618
-38.0917	550.021	23.3813
-38.0901	556.053	23.4009
-38.0883	549.431	23.42041
-38.0863	547.552	23.4399
-38.0858	556.398	23.4595
-38.0845	549.192	23.479
-38.0811	548.726	23.4985
-38.0807	553.055	23.5181
-38.07922	554.586	23.5376
-38.0777	547.977	23.5571
-38.0761	552.97	23.57666
-38.0742	552.365	23.5962
-38.0727	548.2229	23.6157
-38.0713	550.476	23.6353
-38.0694	554.732	23.6548
-38.0666	548.515	23.6743
-38.0666	549.6239	23.6938
-38.0649	551.449	23.7134
-38.0635	551.398	23.73291
-38.0609	547.085	23.7524
-38.058	552.888	23.772
-38.0579	550.944	23.7915
-38.0577	547.475	23.811
-38.0542	551.339	23.8306
-38.0528	553.908	23.8501
-38.0508	545.448	23.8696
-38.04929	550.315	23.88916
-38.0489	553.163	23.9087
-38.0463	545.928	23.9282
-38.0428	548.057	23.9478
-38.043	553.867	23.9673
-38.0421	547.247	23.9868
-38.0392	548.16	24.0063
-38.039	553.3985	24.0259
-38.0369	545.924	24.04541
-38.0351	547.715	24.0649
-38.0336	553.259	24.0845
-38.03159	549.6911	24.104
-38.0311	545.5141	24.1235
-38.0289	553.037	24.1431
-38.0271	549.563	24.1626
-38.0258	548.789	24.1821
-38.0241	550.536	24.20166
-38.0222	552.217	24.2212
-38.01992	546.187	24.2407
-38.0191	550.85	24.2603
-38.01635	549.399	24.2798
-38.0157	548.399	24.2993
-38.0143	547	24.3188
-38.0118	552.715	24.3384
-38.0098	549.791	24.35791
-38.00779	547.686	24.3774
-38.008	548.698	24.397
-38.0047	551.54	24.4165
-38.0034	545.946	24.436
-38.0026	551.508	24.4556
-38.0016	549.749	24.4751
-37.99984	545.375	24.4946
-37.9989	549.039	24.51416
-37.9956	552.979	24.5337
-37.9946	545.5799	24.5532
-37.9922	548.237	24.5728
-37.9908	553.982	24.5923
-37.9889	545.412	24.6118
-37.9871	546.31	24.6313
-37.98605	551.602	24.6509
-37.9842	547.135	24.67041
-37.98196	546.029	24.6899
-37.98172	553.659	24.7095
-37.9799	546.294	24.729
-37.9785	544.545	24.7485
-37.97644	550.282	24.7681
-37.9751	552.062	24.7876
-37.9727	547.542	24.8071
-37.9715	551.069	24.82666
-37.9696	548.054	24.8462
-37.9684	547.7384	24.8657
-37.9661	548.688	24.8853
-37.9647	551.988	24.9048
-37.9631	546.219	24.9243
-37.9616	547.467	24.9438
-37.9604	549.235	24.9634
-37.959	550.117	24.98291
-37.9566	543.488	25.0024
-37.9563	552.334	25.022
-37.9536	548.94	25.0415
-37.9516	545.148	25.061
-37.9501	547.318	25.0806
-37.9487	550.776	25.1001
-37.947	543.55	25.1196
-37.94603	549.368	25.13916
-37.94376	550.66	25.1587
-37.943	543.892	25.1782
-37.9395	546.927	25.1978
-37.9384	553.093	25.2173
-37.9382	545.109	25.2368
-37.9367	545.595	25.2563
-37.9341	551.54	25.2759
-37.9332	544.522	25.29541
-37.93103	543.658	25.3149
-37.9294	551.98	25.3345
-37.9268	546.8	25.354
-37.9259	544.373	25.3735
-37.9248	551.706	25.3931
-37.9226	546.672	25.4126
-37.9211	544.395	25.4321
-37.9195	547.427	25.45166
-37.9185	551.6955	25.4712
-37.9166	544.165	25.4907
-37.9142	550.124	25.5103
-37.9119	546.975	25.5298
-37.912	546.764	25.5493
-37.9105	544.7207	25.5688
-37.9088	553.066	25.5884
-37.906	546.086	25.60791
-37.9056	544.247	25.6274
-37.9026	548.5354	25.647
-37.9015	549.276	25.6665
-37.8999	543.6756	25.686
-37.8988	549.125	25.7056
-37.8966	550.424	25.7251
-37.8959	545.146	25.7446
-37.894	546.723	25.76416
-37.8912	551.656	25.7837
-37.8899	542.81	25.8032
-37.8881	547.482	25.8228
-37.8871	550.78	25.8423
-37.885	543.189	25.8618
-37.8827	544.206	25.8813
-37.8827	550.851	25.9009
-37.88	547.089	25.92041
-37.8799	544.74	25.9399
-37.877	550.932	25.9595
-37.8754	546.069	25.979
-37.8744	543.839	25.9985
-37.87328	550.995	26.0181
-37.8721	547.839	26.0376
-37.8683	542.942	26.0571
-37.8672	550.107	26.07666
-37.8648	547.588	26.0962
-37.8644	545.702	26.1157
-37.8626	545.075	26.1353
-37.8611	551.187	26.1548
-37.8602	546.444	26.1743
-37.8574	546.828	26.1938
-37.8565	546.855	26.2134
-37.8538	547.369	26.23291
-37.85323	542.945	26.2524
-37.8511	551.097	26.272
-37.8492	546.2854	26.2915
-37.8476	542.6394	26.311
-37.8463	546.357	26.3306
-37.84507	550.421	26.3501
-37.8423	541.109	26.3696
-37.8407	548.555	26.38916
-37.8403	548.856	26.4087
-37.8373	544.021	26.4282
-37.8372	544.138	26.4478
-37.8338	549.485	26.4673
-37.8341	542.097	26.4868
-37.8309	544.618	26.5063
-37.8313	551.711	26.5259
-37.8281	543.974	26.54541
-37.8254	542.554	26.5649
-37.8255	547.271	26.5845
-37.8233	546.88	26.604
-37.8215	543.995	26.6235
-37.8196	550.5694	26.6431
-37.8189	545.165	26.6626
-37.8171	544.716	26.6821
-37.8153	547.946	26.70166
-37.8133	549.459	26.7212
-37.8118	541.822	26.7407
-37.8111	547.585	26.7603
-37.8081	548.467	26.7798
-37.8075	545.826	26.7993
-37.8053	542.654	26.8188
-37.8037	549.904	26.8384
-37.8016	545.611	26.85791
-37.8008	544.754	26.8774
-37.7992	546.077	26.897
-37.7986	545.719	26.9165
-37.7959	540.224	26.936
-37.7945	548.879	26.9556
-37.7929	547.535	26.9751
-37.7899	543.633	26.9946
-37.7891	544.428	27.01416
-37.7873	549.372	27.0337
-37.7863	542.952	27.0532
-37.7844	544.98	27.0728
-37.7828	549.159	27.0923
-37.7812	542.697	27.1118
-37.7788	542.449	27.1313
-37.77758	550.688	27.1509
-37.7764	544.076	27.17041
-37.7748	541.136	27.1899
-37.7725	551.284	27.2095
-37.7707	544.028	27.229
-37.7689	542.697	27.2485
-37.7675	545.672	27.2681
-37.7664	546.792	27.2876
-37.7649	541.98	27.3071
-37.7633	548.822	27.32666
-37.76215	545.361	27.3462
-37.7604	542.139	27.3657
-37.7586	544.151	27.3853
-37.7573	550.061	27.4048
-37.7546	543.794	27.4243
-37.7536	544.493	27.4438
-37.7526	545.171	27.4634
-37.7512	545.99	27.48291
-37.7487	542.968	27.5024
-37.7472	549.313	27.522
-37.7446	543.113	27.5415
-37.7435	543.578	27.561
-37.7409	545.8363	27.5806
-37.7406	548.697	27.6001
-37.7389	541.316	27.6196
-37.7366	546.1701	27.63916
-37.7352	548.178	27.6587
-37.7339	542.995	27.6782
-37.7321	542.685	27.6978
-37.7309	549.234	27.7173
-37.7288	543.726	27.7368
-37.728	542.568	27.7563
-37.7264	548.361	27.7759
-37.7235	542.923	27.79541
-37.7222	542.636	27.8149
-37.7209	548.173	27.8345
-37.72	546.031	27.854
-37.71767	538.719	27.8735
-37.7151	548.4928	27.8931
-37.7145	545.818	27.9126
-37.7119	542.741	27.9321
-37.7116	545.0824	27.95166
-37.7086	546.284	27.9712
-37.7083	541.157	27.9907
-37.7058	547.243	28.0103
-37.7052	545.259	28.0298
-37.70348	543.545	28.0493
-37.7014	541.669	28.0688
-37.6996	549.693	28.0884
-37.6976	543.9491	28.10791
-37.697	542.013	28.1274
-37.695	544.2077	28.147
-37.6931	545.307	28.1665
-37.6917	541.531	28.186
-37.68951	548.076	28.2056
-37.6881	546.226	28.2251
-37.68716	541.164	28.2446
-37.68438	543.116	28.26416
-37.6822	547.265	28.2837
-37.6811	539.75	28.3032
-37.6804	544.418	28.3228
-37.6783	548.7453	28.3423
-37.6775	542.235	28.3618
-37.6753	540.213	28.3813
-37.6732	547.488	28.4009
-37.671	542.713	28.42041
-37.6706	540.424	28.4399
-37.6686	547.81	28.4595
-37.6675	542.053	28.479
-37.6665	539.806	28.4985
-37.665	547.519	28.5181
-37.6628	545.518	28.5376
-37.6603	540.152	28.5571
-37.6584	545.165	28.57666
-37.6565	544.528	28.5962
-37.6564	541.193	28.6157
-37.65358	543.608	28.6353
-37.6531	547.6825	28.6548
-37.65041	540.331	28.6743
-37.6489	543.81	28.6938
-37.6469	544.769	28.7134
-37.6474	542.834	28.73291
-37.6442	538.007	28.7524
-37.6427	547.209	28.772
-37.6399	543.8385	28.7915
-37.6387	541.431	28.811
-37.6374	542.742	28.8306
-37.6364	545.682	28.8501
-37.6341	540.402	28.8696
-37.633	544.8172	28.88916
-37.6324	546.132	28.9087
-37.6302	538.879	28.9282
-37.6282	540.368	28.9478
-37.6267	548.8385	28.9673
-37.6248	539.674	28.9868
-37.6235	539.842	29.0063
-37.6217	547.168	29.0259
-37.62027	540.7959	29.04541
-37.61795	539.271	29.0649
-37.6159	545.502	29.0845
-37.6149	542.617	29.104
-37.6132	538.504	29.1235
-37.61195	546.655	29.1431
-37.6096	542.661	29.1626
-37.6091	537.895	29.1821
-37.6068	543.716	29.20166
-37.6056	546.115	29.2212
-37.6043	539.855	29.2407
-37.6024	543.313	29.2603
-37.5999	542.874	29.2798
-37.5994	541.062	29.2993
-37.597	539.916	29.3188
-37.5958	547.575	29.3384
-37.5943	540.302	29.35791
-37.5915	541.873	29.3774
-37.5914	544.643	29.397
-37.5888	545.44	29.4165
-37.58802	538.008	29.436
-37.5846	545.357	29.4556
-37.5838	544.1759	29.4751
-37.5829	541.253	29.4946
-37.5812	540.816	29.51416
-37.5795	546.755	29.5337
-37.5776	539.022	29.5532
-37.5754	544.504	29.5728
-37.5737	547.649	29.5923
-37.5729	540.063	29.6118
-37.5714	538.518	29.6313
-37.5701	547.554	29.6509
-37.5686	542.488	29.67041
-37.5675	539.758	29.6899
-37.5656	545.744	29.7095
-37.56358	541.152	29.729
-37.5618	538.073	29.7485
-37.5599	545.584	29.7681
-37.55843	542.309	29.7876
-37.5565	537.992	29.8071
-37.5556	547.001	29.82666
-37.5539	545.1297	29.8462
-37.5513	539.505	29.8657
-37.5508	540.594	29.8853
-37.5488	548.065	29.9048
-37.5471	541.015	29.9243
-37.5453	541.558	29.9438
-37.5437	544.199	29.9634
-37.5416	541.693	29.98291
-37.5397	541.586	30.0024
-37.5387	547.461	30.022
-37.5361	542.257	30.0415
-37.5361	538.616	30.061
-37.5337	543.069	30.0806
-37.5326	545.229	30.1001
-37.5297	538.698	30.1196
-37.5278	544.119	30.13916
-37.5275	545.074	30.1587
-37.5255	539.94	30.1782
-37.5243	539.558	30.1978
-37.5215	546.198	30.2173
-37.5212	539.426	30.2368
-37.5201	540.389	30.2563
-37.5175	547.775	30.2759
-37.5163	539.664	30.29541
-37.5145	536.786	30.3149
-37.5122	545.787	30.3345
-37.5118	543.518	30.354
-37.5094	537.973	30.3735
-37.5086	545.097	30.3931
-37.5061	541.852	30.4126
-37.5037	537.742	30.4321
-37.5031	543.358	30.45166
-37.5012	546.227	30.4712
-37.4996	537.424	30.4907
-37.4977	542.539	30.5103
-37.4963	543.1842	30.5298
-37.4948	540.726	30.5493
-37.4929	540.3728	30.5688
-37.4914	545.464	30.5884
-37.4897	540.9	30.60791
-37.4884	542.219	30.6274
-37.4875	541.3833	30.647
-37.4845	543.367	30.6665
[...]
-37.1373	541.917	34.8462
-37.136	533.34	34.8657
-37.1325	540.281	34.8853
-37.13237	543.306	34.9048
-37.1311	536.397	34.9243
-37.1277	537.553	34.9438
-37.1271	542.813	34.9634
-37.1256	537.549	34.98291
-37.1243	537.64	35.0024
-37.12291	542.308	35.022
-37.1201	537.169	35.0415
-37.1175	537.057	35.061
-37.1172	540.029	35.0806
-37.1148	540.377	35.1001
-37.11385	534.615	35.1196
-37.1122	540.942	35.13916
-37.1107	542.438	35.1587
-37.1091	537.083	35.1782
-37.10788	535.626	35.1978
-37.1061	543.31	35.2173
-37.1036	535.27	35.2368
-37.1037	538.528	35.2563
-37.1005	542.173	35.2759
-37.0986	536.934	35.29541
-37.0977	532.312	35.3149
-37.0946	543.593	35.3345
-37.0938	538.952	35.354
-37.0927	534.608	35.3735
-37.0915	542.155	35.3931
-37.0891	541.756	35.4126
-37.0871	532.072	35.4321
-37.08654	540.7854	35.45166
-37.0847	538.831	35.4712
-37.0822	535.573	35.4907
-37.0825	539.2663	35.5103
-37.0788	541.949	35.5298
-37.0792	533.555	35.5493
-37.0756	537.088	35.5688
-37.0745	542.154	35.5884
-37.0722	536.364	35.60791
-37.0706	537.604	35.6274
-37.0698	540.957	35.647
-37.0681	537.7699	35.6665
-37.066	535.21	35.686
-37.0654	541.126	35.7056
-37.0636	539.9093	35.7251
-37.06126	536.249	35.7446
-37.0601	538.068	35.76416
-37.0592	542.141	35.7837
-37.0572	533.328	35.8032
-37.0553	539.298	35.8228
-37.0543	542.13	35.8423
-37.0511	539.274	35.8618
-37.05101	534.021	35.8813
-37.04882	542.6745	35.9009
-37.0463	534.98	35.92041
-37.0462	536.61	35.9399
-37.0442	542.669	35.9595
-37.04171	538.499	35.979
-37.0386	532.361	35.9985
-37.0394	543.26	36.0181
-37.0373	538.924	36.0376
-37.0355	535.66	36.0571
-37.0334	539.767	36.07666
-37.0332	541.761	36.0962
-37.0304	533.727	36.1157
-37.0295	539.3515	36.1353
-37.0286	539.584	36.1548
-37.0255	535.23	36.1743
-37.0246	538.456	36.1938
-37.0217	541.6214	36.2134
-37.0208	535.81	36.23291
-37.0186	535.851	36.2524
-37.0178	539.412	36.272
-37.0171	538.423	36.2915
-37.0137	535.325	36.311
-37.0124	539.105	36.3306
-37.012	537.552	36.3501
-37.0094	533.8692	36.3696
-37.0074	539.962	36.38916
-37.0071	538.422	36.4087
-37.0046	535.295	36.4282
-37.0036	536.219	36.4478
-37.0011	542.015	36.4673
-37.0003	535.394	36.4868
-36.9979	536.0296	36.5063
-36.9967	540.507	36.5259
-36.9942	538.186	36.54541
-36.9927	533.7464	36.5649
-36.9922	542.374	36.5845
-36.9907	537.564	36.604
-36.988	535.1795	36.6235
-36.98698	540.732	36.6431
-36.986	541.206	36.6626
-36.9843	531.644	36.6821
-36.9825	539.81	36.70166
-36.9794	539.625	36.7212
-36.9782	534.941	36.7407
-36.9777	538.285	36.7603
-36.9753	540.505	36.7798
-36.97374	532.9679	36.7993
-36.9728	537.724	36.8188
-36.9711	541.8266	36.8384
-36.9695	536.372	36.85791
-36.967	535.1275	36.8774
-36.9654	540.316	36.897
-36.9648	535.787	36.9165
-36.9617	534.631	36.936
-36.9602	539.252	36.9556
-36.9585	537.938	36.9751
-36.9573	535.61	36.9946
-36.9558	538.45	37.01416
-36.9542	539.39	37.0337
-36.9529	534.902	37.0532
-36.9506	537.33	37.0728
-36.9504	541.523	37.0923
-36.9488	535.98	37.1118
-36.9464	533.9184	37.1313
-36.945	542.308	37.1509
-36.9418	535.898	37.17041
-36.9405	534.996	37.1899
-36.939	540.479	37.2095
-36.9383	539.623	37.229
-36.93578	531.517	37.2485
-36.9346	541.836	37.2681
-36.9329	536.3197	37.2876
-36.932	533.6496	37.3071
-36.9307	541.433	37.32666
-36.9278	542.822	37.3462
-36.9259	532.074	37.3657
-36.9249	538.0636	37.3853
-36.9243	540.879	37.4048
-36.9215	533.891	37.4243
-36.91888	537.367	37.4438
-36.91898	540.881	37.4634
-36.9173	532.421	37.48291
-36.9155	535.919	37.5024
-36.9131	539.788	37.522
-36.91151	536.25	37.5415
-36.9101	534.085	37.561
-36.9082	539.59	37.5806
-36.907	538.485	37.6001
-36.90519	533.859	37.6196
-36.903	538.74	37.63916
-36.903	539.7533	37.6587
-36.9008	534.907	37.6782
-36.8986	535.238	37.6978
-36.8979	538.704	37.7173
-36.8957	533.768	37.7368
-36.8943	536.2265	37.7563
-36.8918	541.368	37.7759
-36.8912	536.843	37.79541
-36.88937	531.532	37.8149
-36.8872	541.18	37.8345
-36.8851	536.332	37.854
-36.8839	535.471	37.8735
-36.8825	540.272	37.8931
-36.8815	539.977	37.9126
-36.8801	531.147	37.9321
-36.8784	540.209	37.95166
-36.8762	539.371	37.9712
-36.876	534.309	37.9907
-36.8727	536.89	38.0103
-36.8705	543.697	38.0298
-36.8691	532.946	38.0493
-36.8675	537.617	38.0688
-36.8668	539.942	38.0884
-36.8642	535.941	38.10791
-36.8633	534.82	38.1274
-36.8606	541.094	38.147
-36.859	535.784	38.1665
-36.8578	535.152	38.186
-36.856	539.213	38.2056
-36.8563	538.179	38.2251
-36.8533	532.726	38.2446
-36.8522	535.332	38.26416
-36.8508	538.726	38.2837
-36.84827	534.893	38.3032
-36.8467	536.199	38.3228
-36.8456	537.891	38.3423
-36.8438	535.176	38.3618
-36.8412	535.03	38.3813
-36.8406	540.908	38.4009
-36.838	533.116	38.42041
-36.8384	533.9259	38.4399
-36.836	539.897	38.4595
-36.8331	538.226	38.479
-36.8329	531.305	38.4985
-36.83046	540.097	38.5181
-36.828	536.703	38.5376
-36.8273	534.332	38.5571
-36.8256	537.979	38.57666
-36.8237	539.572	38.5962
-36.82346	531.894	38.6157
-36.82	537.8692	38.6353
-36.81918	540.25	38.6548
-36.8172	534.478	38.6743
-36.8158	534.9032	38.6938
-36.8142	540.559	38.7134
-36.8124	532.874	38.73291
-36.8107	534.677	38.7524
-36.8102	538.173	38.772
-36.8079	535.231	38.7915
-36.806	534.811	38.811
-36.805	540.293	38.8306
-36.8024	536.024	38.8501
-36.801	534.076	38.8696
-36.7989	537.857	38.88916
-36.79818	540.009	38.9087
-36.7966	534.889	38.9282
-36.7936	536.161	38.9478
-36.7933	538.889	38.9673
-36.7918	534.7533	38.9868
-36.7886	535.513	39.0063
-36.7884	539.16	39.0259
-36.7857	536.513	39.04541
-36.7849	531.139	39.0649
-36.7838	540.1925	39.0845
-36.7817	535.983	39.104
-36.7804	532.671	39.1235
-36.7782	538.156	39.1431
-36.777	539.9801	39.1626
-36.7747	530.5343	39.1821
-36.7739	537.807	39.20166
-36.7714	537.5025	39.2212
-36.77	534.911	39.2407
-36.7677	537.464	39.2603
-36.7666	541.008	39.2798
-36.7654	530.226	39.2993
-36.7636	536.45	39.3188
-36.7624	539.871	39.3384
-36.7599	535.675	39.35791
-36.7588	534.688	39.3774
-36.7562	540.681	39.397
-36.7563	534.283	39.4165
-36.7531	534.4292	39.436
-36.7518	538.433	39.4556
-36.7501	535.93	39.4751
-36.7496	532.883	39.4946
-36.7473	537.722	39.51416
-36.7457	537.539	39.5337
-36.7446	532.281	39.5532
-36.7425	534.613	39.5728
-36.7408	539.995	39.5923
-36.7395	535.113	39.6118
-36.7374	533.1261	39.6313
-36.7356	538.618	39.6509
-36.7342	535.509	39.67041
-36.7323	533.171	39.6899
-36.7307	539.928	39.7095
-36.7281	536.852	39.729
-36.7272	530.021	39.7485
-36.7265	538.57	39.7681
-36.7242	537.636	39.7876
-36.7241	532.091	39.8071
-36.7215	535.5376	39.82666
-36.7195	540.974	39.8462
-36.7177	529.183	39.8657
-36.7159	536.797	39.8853
-36.7149	537.524	39.9048
-36.7134	534.206	39.9243
-36.7121	533.351	39.9438
-36.7102	541.071	39.9634
-36.7089	531.715	39.98291
-36.7068	534.141	40.0024
-36.7058	537.227	40.0122

Data Header:			0.254_solid_dimension_typeiv_4545_r0			Time:	45.0178	s	4/13/2019 8:44:55 PM
Data Acquisition:	Timed
Station Name:	ft40.cfg
Test File Name:	monotonic_0.2540_typeiv_solid_4545_dimension.tst
Displacement	Force	Running Time
mm	N	s
-36.7048	537.295	40.022
-36.7033	536.852	40.0317
-36.7031	536.044	40.0415
-36.7022	532.6394	40.05127
-36.7022	532.2099	40.061
-36.7007	534.5152	40.0708
-36.6994	539.017	40.0806
-36.6992	540.184	40.0903
-36.6987	535.165	40.1001
-36.6977	533.7951	40.1099
-36.697	532.658	40.1196
-36.6955	533.773	40.1294
-36.6965	537.675	40.13916
-36.69474	536.134	40.1489
-36.6943	536.7702	40.1587
-36.6933	537.35	40.1685
-36.6912	531.455	40.1782
-36.6903	531.609	40.188
-36.6903	534.478	40.1978
-36.6896	538.725	40.20752
-36.6892	536.5918	40.2173
-36.6878	536.326	40.2271
-36.6871	534.283	40.2368
-36.6864	533.158	40.2466
-36.6858	533.6908	40.2563
-36.6859	533.536	40.2661
-36.6836	537.152	40.2759
-36.6819	538.35	40.2856
-36.6823	534.6272	40.29541
-36.6813	529.063	40.3052
-36.68092	531.475	40.3149
-36.679	534.909	40.3247
-36.6801	536.881	40.3345
-36.6781	539.458	40.3442
-36.67728	533.767	40.354
-36.67627	531.6767	40.36377
-36.6759	532.226	40.3735
-36.6744	531.203	40.3833
-36.6741	536.544	40.3931
-36.6739	539.08	40.4028
-36.6728	538.892	40.4126
-36.6718	533.468	40.4224
-36.671	528.701	40.4321
-36.6704	532.692	40.4419
-36.6692	537.128	40.45166
-36.6689	537.683	40.4614
-36.6682	535.896	40.4712
-36.6669	533.562	40.481
-36.6659	533.479	40.4907
-36.665	528.873	40.5005
-36.6639	534.7926	40.5103
-36.6635	538.28	40.52002
-36.6636	538.103	40.5298
-36.6611	535.81	40.5396
-36.6614	528.82	40.5493
-36.6609	529.975	40.5591
-36.6599	535.444	40.5688
-36.6588	535.981	40.5786
-36.6576	537.097	40.5884
-36.6576	534.758	40.5981
-36.6568	532.327	40.60791
-36.6562	530.394	40.6177
-36.65498	532.049	40.6274
-36.6535	534.927	40.6372
-36.6531	538.209	40.647
-36.6523	536.72	40.6567
-36.6526	530.965	40.6665
-36.6504	530.607	40.67627
-36.6502	531.333	40.686
-36.6483	535.723	40.6958
-36.6481	534.908	40.7056
-36.6471	535.773	40.7153
-36.6462	534.144	40.7251
-36.646	531.3952	40.7349
-36.6457	530.747	40.7446
-36.6442	530.468	40.7544
-36.6426	534.959	40.76416
-36.6412	536.917	40.7739
-36.6421	534.2998	40.7837
-36.6398	534.823	40.7935
-36.6397	531.621	40.8032
-36.6395	533.623	40.813
-36.6386	533.9762	40.8228
-36.63752	535.0412	40.83252
-36.63747	536.563	40.8423
-36.6359	537.0412	40.8521
-36.6345	532.034	40.8618
-36.6341	531.836	40.8716
-36.63353	531.04	40.8813
-36.63308	537.397	40.8911
-36.63237	537.474	40.9009
-36.6298	536.3869	40.9106
-36.6294	532.463	40.92041
-36.6297	531.659	40.9302
-36.62886	531.5083	40.9399
-36.6276	532.002	40.9497
-36.6268	536.294	40.9595
-36.6259	540.285	40.9692
-36.6254	534.596	40.979
-36.6251	529.429	40.98877
-36.6237	529.4035	40.9985
-36.623	532.766	41.0083
-36.6224	536.129	41.0181
-36.62043	537.569	41.0278
-36.6201	534.103	41.0376
-36.6192	532.894	41.0474
-36.6188	529.792	41.0571
-36.61805	529.929	41.0669
-36.6179	534.573	41.07666
-36.6176	537.898	41.0864
-36.6154	538.808	41.0962
-36.61499	530.668	41.106
-36.614	528.005	41.1157
-36.6132	530.231	41.1255
-36.6122	533.201	41.1353
-36.6123	537.994	41.14502
-36.6106	534.834	41.1548
-36.6093	535.39	41.1646
-36.6095	531.969	41.1743
-36.6078	526.642	41.1841
-36.6075	533.075	41.1938
-36.6066	535.78	41.2036
-36.6058	538.074	41.2134
-36.6057	535.712	41.2231
-36.60384	528.7428	41.23291
-36.6023	528.945	41.2427
-36.6028	534.782	41.2524
-36.6016	533.544	41.2622
-36.6013	536.115	41.272
-36.6	533.979	41.2817
-36.5981	532.2981	41.2915
-36.5994	529.108	41.30127
-36.5977	529.829	41.311
-36.5971	533.82	41.3208
-36.5966	535.167	41.3306
-36.5949	536.254	41.3403
-36.5934	531.7937	41.3501
-36.5937	528.729	41.3599
-36.5924	530.382	41.3696
-36.5912	531.135	41.3794
-36.591	532.902	41.38916
-36.5893	533.879	41.3989
-36.58886	535.497	41.4087
-36.5894	534.087	41.4185
-36.5882	529.894	41.4282
-36.5871	528.875	41.438
-36.5857	533.53	41.4478
-36.5858	535.81	41.45752
-36.5858	532.769	41.4673
-36.5842	533.267	41.4771
-36.5826	530.933	41.4868
-36.5825	530.07	41.4966
-36.5817	530.413	41.5063
-36.5804	529.896	41.5161
-36.5795	535.486	41.5259
-36.5793	536.036	41.5356
-36.577	533.412	41.54541
-36.5768	527.343	41.5552
-36.5768	527.499	41.5649
-36.5759	535.263	41.5747
-36.5736	533.168	41.5845
-36.5736	535.489	41.5942
-36.5724	532.748	41.604
-36.5726	529.607	41.61377
-36.5709	530.802	41.6235
-36.5704	527.749	41.6333
-36.5698	533.1311	41.6431
-36.569	537.785	41.6528
-36.5689	534.166	41.6626
-36.5678	528.213	41.6724
-36.567	526.565	41.6821
-36.5667	530.175	41.6919
-36.5649	532.831	41.70166
-36.5634	534.746	41.7114
-36.5638	533.7619	41.7212
-36.5617	532.335	41.731
-36.562	529.144	41.7407
-36.5608	525.694	41.7505
-36.5603	531.34	41.7603
-36.5595	536.174	41.77002
-36.5583	536.273	41.7798
-36.557	531.2666	41.7896
-36.5576	526.475	41.7993
-36.55687	525.724	41.8091
-36.55542	531.214	41.8188
-36.5548	533.415	41.8286
-36.5536	533.473	41.8384
-36.5533	533.385	41.8481
-36.5529	529.913	41.85791
-36.5507	524.6156	41.8677
-36.5507	528.56	41.8774
-36.5492	531.4588	41.8872
-36.54776	536.0329	41.897
-36.54845	533.478	41.9067
-36.54752	527.3288	41.9165
-36.5458	527.562	41.92627
-36.5452	529.146	41.936
-36.54533	529.749	41.9458
-36.54332	532.316	41.9556
-36.5437	531.276	41.9653
-36.54253	532.771	41.9751
-36.54163	527.721	41.9849
-36.5399	527.217	41.9946
-36.5397	527.415	42.0044
-36.5392	530.974	42.01416
-36.5384	534.787	42.0239
-36.5375	529.442	42.0337
-36.5373	527.454	42.0435
-36.5363	528.405	42.0532
-36.5349	526.373	42.063
-36.5342	529.881	42.0728
-36.53352	528.667	42.08252
-36.532	530.877	42.0923
-36.5322	532.804	42.1021
-36.5301	526.955	42.1118
-36.52956	524.008	42.1216
-36.5295	526.541	42.1313
-36.5278	530.029	42.1411
-36.5279	530.549	42.1509
-36.5268	529.431	42.1606
-36.5249	526.127	42.17041
-36.5252	527.185	42.1802
-36.5238	524.048	42.1899
-36.5245	525.483	42.1997
-36.5231	530.338	42.2095
-36.5214	530.343	42.2192
-36.52026	528.554	42.229
-36.5207	522.304	42.23877
-36.5192	522.322	42.2485
-36.5185	526.029	42.2583
-36.5181	528.724	42.2681
-36.5173	531.086	42.2778
-36.5166	526.73	42.2876
-36.5147	523.501	42.2974
-36.51487	521.499	42.3071
-36.5133	516.539	42.3169
-36.5126	524.57	42.32666
-36.5128	530.0899	42.3364
-36.5117	526.731	42.3462
-36.5108	521.181	42.356
-36.5097	516.752	42.3657
-36.50938	517.979	42.3755
-36.5078	522.94	42.3853
-36.5073	524.502	42.39502
-36.50737	524.827	42.4048
-36.5056	521.888	42.4146
-36.504	518.876	42.4243
-36.5041	513.476	42.4341
-36.5028	516.323	42.4438
-36.5019	520.821	42.4536
-36.5018	521.722	42.4634
-36.50174	517.344	42.4731
-36.4997	511.33	42.48291
-36.4989	505.453	42.4927
-36.4931	-102.0253	42.5024
-36.4933	-61.3284	42.5122
-36.4949	-29.3789	42.522
-36.4949	-28.4044	42.5317
-36.4939	-44.5185	42.5415
-36.4929	-51.6664	42.55127
-36.49044	-44.2488	42.561
-36.4914	-43.201	42.5708
-36.491	-37.3631	42.5806
-36.4893	-39.2051	42.5903
-36.4886	-44.2191	42.6001
-36.4879	-45.9159	42.6099
-36.487	-45.8678	42.6196
-36.4864	-42.9451	42.6294
-36.4864	-43.7348	42.63916
-36.48634	-41.655	42.6489
-36.4852	-38.8369	42.6587
-36.4839	-44.0458	42.6685
-36.4821	-44.7992	42.6782
-36.4817	-45.581	42.688
-36.4818	-41.9223	42.6978
-36.4807	-39.6257	42.70752
-36.4805	-42.9258	42.7173
-36.479	-43.1306	42.7271
-36.478	-43.7936	42.7368
-36.477	-45.5293	42.7466
-36.4761	-44.1152	42.7563
-36.4772	-43.7339	42.7661
-36.4745	-39.6284	42.7759
-36.474	-38.6363	42.7856
-36.4736	-43.6878	42.79541
-36.4715	-45.9042	42.8052
-36.4718	-46.777	42.8149
-36.471	-44.2948	42.8247
-36.4703	-40.7098	42.8345
-36.4692	-42.116	42.8442
-36.4682	-41.6053	42.854
-36.46804	-44.8751	42.86377
-36.4676	-47.1838	42.8735
-36.465	-47.8918	42.8833
-36.465	-41.642	42.8931
-36.465	-38.8329	42.9028
-36.4637	-40.3116	42.9126
-36.4627	-47.2057	42.9224
-36.4613	-45.9873	42.9321
-36.4607	-46.07843	42.9419
-36.4614	-41.5835	42.95166
-36.45903	-38.5074	42.9614
-36.4588	-41.8598	42.9712
-36.4574	-41.2599	42.981
-36.4569	-46.4636	42.9907
-36.4565	-47.9304	43.0005
-36.4562	-44.0933	43.0103
-36.4561	-39.4359	43.02002
-36.4537	-37.7623	43.0298
-36.4539	-42.351	43.0396
-36.4528	-47.5818	43.0493
-36.4514	-46.42144	43.0591
-36.4512	-44.843	43.0688
-36.4512	-41.0878	43.0786
-36.4485	-39.5841	43.0884
-36.4488	-41.50182	43.0981
-36.4489	-42.3667	43.10791
-36.4474	-48.1082	43.1177
-36.4463	-45.5007	43.1274
-36.4444	-40.378	43.1372
-36.445	-38.8511	43.147
-36.44326	-40.8213	43.1567
-36.4427	-46.4736	43.1665
-36.442	-46.9456	43.17627
-36.4407	-44.79615	43.186
-36.441	-43.2394	43.1958
-36.4399	-40.7259	43.2056
-36.439	-38.99276	43.2153
-36.438	-42.4214	43.2251
-36.43821	-45.1786	43.2349
-36.4365	-45.3055	43.2446
-36.43512	-44.4721	43.2544
-36.4351	-40.70507	43.26416
-36.4333	-39.9522	43.2739
-36.4323	-41.8776	43.2837
-36.4313	-46.0943	43.2935
-36.4302	-44.4371	43.3032
-36.4305	-44.5588	43.313
-36.4292	-44.8365	43.3228
-36.4292	-41.1224	43.33252
-36.4292	-39.7255	43.3423
-36.4266	-41.319	43.3521
-36.4265	-45.0683	43.3618
-36.4264	-46.8149	43.3716
-36.4247	-44.602	43.3813
-36.4226	-39.5511	43.3911
-36.4248	-42.8372	43.4009
-36.4226	-39.9484	43.4106
-36.4221	-43.5188	43.42041
-36.4209	-45.1912	43.4302
-36.41988	-46.0753	43.4399
-36.4202	-47.19096	43.4497
-36.42	-39.4953	43.4595
-36.4176	-39.0213	43.4692
-36.4168	-42.6647	43.479
-36.41507	-45.5052	43.48877
-36.415	-48.8073	43.4985
-36.414	-42.0429	43.5083
-36.4133	-42.334	43.5181
-36.4126	-40.4819	43.5278
-36.4128	-40.3623	43.5376
-36.4099	-44.2243	43.5474
-36.4108	-45.2305	43.5571
-36.4101	-48.1286	43.5669
-36.4081	-42.0185	43.57666
-36.4086	-35.1178	43.5864
-36.4075	-39.1892	43.5962
-36.4065	-44.14624	43.606
-36.4058	-47.3456	43.6157
-36.404	-46.3214	43.6255
-36.403	-43.1454	43.6353
-36.4022	-40.5196	43.64502
-36.4016	-40.4784	43.6548
-36.4012	-40.1963	43.6646
-36.4001	-46.7517	43.6743
-36.39909	-48.2616	43.6841
-36.39772	-45.7878	43.6938
-36.39769	-40.7573	43.7036
-36.3969	-37.45887	43.7134
-36.3965	-41.7558	43.7231
-36.3948	-45.6737	43.73291
-36.3945	-46.4569	43.7427
-36.3939	-45.3159	43.7524
-36.3926	-41.0518	43.7622
-36.3922	-40.5425	43.772
-36.3917	-40.4737	43.7817
-36.3906	-42.1482	43.7915
-36.3903	-47.9545	43.80127
-36.3891	-45.3514	43.811
-36.3881	-43.631	43.8208
-36.38784	-38.979	43.8306
-36.38575	-39.1881	43.8403
-36.3853	-44.6569	43.8501
-36.3845	-44.4548	43.8599
-36.3839	-43.7819	43.8696
-36.3841	-45.1756	43.8794
-36.3833	-42.9098	43.88916
-36.3817	-39.826	43.8989
-36.3815	-38.2421	43.9087
-36.3806	-44.5373	43.9185
-36.3796	-46.3117	43.9282
-36.3787	-44.4265	43.938
-36.3784	-42.387	43.9478
-36.3775	-39.5596	43.95752
-36.37566	-41.783	43.9673
-36.3757	-43.0452	43.9771
-36.3754	-42.5987	43.9868
-36.3738	-44.5187	43.9966
-36.3725	-44.6802	44.0063
-36.3706	-42.7782	44.0161
-36.37048	-40.4719	44.0259
-36.3712	-39.9975	44.0356
-36.3702	-42.433	44.04541
-36.3684	-48.2721	44.0552
-36.36842	-43.8113	44.0649
-36.3679	-42.562	44.0747
-36.3661	-41.7462	44.0845
-36.3659	-39.0152	44.0942
-36.3647	-42.6204	44.104
-36.3641	-44.1134	44.11377
-36.3631	-46.3173	44.1235
-36.3634	-46.5955	44.1333
-36.36166	-40.4896	44.1431
-36.3599	-37.6396	44.1528
-36.3605	-40.0453	44.1626
-36.3585	-45.0473	44.1724
-36.3581	-47.1418	44.1821
-36.3575	-43.8798	44.1919
-36.3572	-44.4793	44.20166
-36.3557	-37.6702	44.2114
-36.3548	-39.5793	44.2212
-36.3544	-43.2005	44.231
-36.3538	-45.8095	44.2407
-36.3534	-47.9523	44.2505
-36.352	-43.3527	44.2603
-36.3513	-37.36982	44.27002
-36.3503	-38.4802	44.2798
-36.3492	-42.6999	44.2896
-36.3488	-46.7059	44.2993
-36.3486	-46.0199	44.3091
-36.3463	-43.75906	44.3188
-36.3451	-41.032	44.3286
-36.3455	-38.7976	44.3384
-36.3444	-41.1214	44.3481
-36.3435	-43.9329	44.35791
-36.3437	-48.1188	44.3677
-36.3416	-47.9299	44.3774
-36.3405	-42.0827	44.3872
-36.3408	-38.82135	44.397
-36.33902	-41.5444	44.4067
-36.3385	-44.8106	44.4165
-36.3391	-47.0068	44.42627
-36.337	-45.631	44.436
-36.3354	-41.7975	44.4458
-36.3355	-42.65815	44.4556
-36.3355	-40.5868	44.4653
-36.3347	-41.2086	44.4751
-36.3326	-45.7981	44.4849
-36.3327	-45.1435	44.4946
-36.3308	-46.0849	44.5044
-36.3303	-41.0257	44.51416
-36.3295	-39.64772	44.5239
-36.3279	-43.7708	44.5337
-36.3276	-44.1102	44.5435
-36.32748	-45.1587	44.5532
-36.3269	-45.9512	44.563
-36.3254	-44.4905	44.5728
-36.3247	-43.1439	44.58252
-36.3243	-37.2953	44.5923
-36.32304	-43.5186	44.6021
-36.3226	-44.8172	44.6118
-36.322	-46.8377	44.6216
-36.3211	-44.6031	44.6313
-36.3198	-41.4242	44.6411
-36.3198	-42.7842	44.6509
-36.3175	-41.848	44.6606
-36.3173	-42.2818	44.67041
-36.31736	-45.10957	44.6802
-36.3165	-47.7472	44.6899
-36.3144	-44.2294	44.6997
-36.3146	-41.4734	44.7095
-36.3125	-39.7718	44.7192
-36.3118	-43.7366	44.729
-36.3119	-46.8478	44.73877
-36.3114	-47.37989	44.7485
-36.3091	-44.4896	44.7583
-36.3098	-42.25473	44.7681
-36.3093	-40.3969	44.7778
-36.3087	-41.6693	44.7876
-36.30719	-43.8485	44.7974
-36.3061	-48.1869	44.8071
-36.3049	-48.8362	44.8169
-36.30479	-44.2775	44.82666
-36.303	-39.836	44.8364
-36.3032	-39.1038	44.8462
-36.302	-44.6399	44.856
-36.3017	-46.5248	44.8657
-36.3003	-45.3969	44.8755
-36.2992	-45.2527	44.8853
-36.2997	-39.6562	44.89502
-36.2974	-41.0187	44.9048
-36.29781	-42.2377	44.9146
-36.2961	-45.5807	44.9243
-36.2953	-51.1973	44.9341
-36.2954	-45.6613	44.9438
-36.2933	-41.6095	44.9536
-36.2928	-38.0872	44.9634
-36.29314	-41.628	44.9731
-36.29208	-45.7562	44.98291
-36.2898	-46.3672	44.9927
-36.2901	-45.7215	45.0024
-36.2895	-42.6051	45.0122