File: data/processed_data_files/tensile/0.254_solid_dimension_typeiv_090_r(2).dat
MTS793|BTW|ENU|1|2|.|/|:|1|0|0|A

Data Header:			0.254_solid_dimension_typeiv_090_r0			Time:	20.0183	s	4/14/2019 1:39:32 AM
Data Acquisition:	Timed
Station Name:	ft40.cfg
Test File Name:	monotonic_0.2540_typeiv_solid_090_dimension.tst
Displacement	Force	Running Time
mm	N	s
-40.0409	-261.743	0.0222168
-40.041	-266.573	0.041748
-40.0402	-267.426	0.0612793
-40.0415	-265.479	0.0808105
-40.0405	-261.047	0.1003418
-40.039	-265.957	0.119873
-40.0374	-264.3736	0.1394043
-40.0355	-262.982	0.158936
-40.0344	-258.52	0.1784668
-40.0331	-265.555	0.197998
-40.0313	-257.166	0.2175293
-40.0297	-256.569	0.237061
-40.0272	-259.227	0.2565918
-40.0253	-258.403	0.276123
-40.0237	-252.665	0.2956543
-40.024	-259.4913	0.315186
-40.02037	-254.13	0.3347168
-40.0187	-249.291	0.354248
-40.0177	-252.957	0.3737793
-40.0172	-257.223	0.393311
-40.0145	-244.5594	0.4128418
-40.013	-248.588	0.432373
-40.0112	-250.387	0.4519043
-40.0099	-244.167	0.471436
-40.0081	-246.776	0.4909668
-40.00692	-251.01	0.510498
-40.0052	-241.6051	0.5300293
-40.0032	-243.015	0.549561
-40.002	-246.426	0.5690918
-40.00095	-240.375	0.588623
-39.9987	-239.629	0.6081543
-39.9964	-242.505	0.627686
-39.9963	-241.022	0.6472168
-39.9936	-235.2377	0.666748
-39.99205	-239.768	0.6862793
-39.9902	-236.375	0.705811
-39.9883	-234.956	0.7253418
-39.987	-235.257	0.744873
-39.9852	-236.104	0.7644043
-39.9836	-229.625	0.783936
-39.9813	-230.446	0.8034668
-39.9805	-232.388	0.822998
-39.9799	-231.935	0.8425293
-39.97739	-225.878	0.862061
-39.9766	-231.975	0.8815918
-39.9736	-226.49	0.901123
-39.9729	-224.331	0.9206543
-39.9714	-226.0385	0.940186
-39.9683	-227.589	0.9597168
-39.9669	-218.538	0.979248
-39.9655	-226.425	0.9987793
-39.96471	-222.948	1.01831
-39.9629	-214.835	1.03784
-39.9609	-219.864	1.057373
-39.9588	-223.021	1.0769
-39.9565	-214.082	1.09644
-39.9562	-214.163	1.11597
-39.9544	-219.13	1.135498
-39.9533	-211.595	1.15503
-39.9512	-214.306	1.17456
-39.9498	-216.039	1.19409
-39.9481	-209.788	1.213623
-39.9455	-208.281	1.23315
-39.9449	-213.491	1.25269
-39.944	-208.239	1.27222
-39.9408	-205.745	1.291748
-39.94	-208.698	1.31128
-39.9379	-208.047	1.33081
-39.9365	-201.458	1.35034
-39.9357	-204.5309	1.369873
-39.933	-202.493	1.3894
-39.9309	-202.4	1.40894
-39.93063	-198.71	1.42847
-39.9285	-205.315	1.447998
-39.9261	-196.974	1.46753
-39.924	-196.994	1.48706
-39.9238	-198.672	1.50659
-39.9226	-199.437	1.526123
-39.9203	-190.906	1.54565
-39.9191	-197.1859	1.56519
-39.9169	-191.873	1.58472
-39.9161	-189.988	1.604248
-39.9137	-192.083	1.62378
-39.9123	-193.009	1.64331
-39.9117	-184.969	1.66284
-39.9091	-191.005	1.682373
-39.9073	-190.543	1.7019
-39.90472	-181.56	1.72144
-39.9047	-185.026	1.74097
-39.903	-190.235	1.760498
-39.9014	-180.631	1.78003
-39.8985	-181.893	1.79956
-39.8974	-185.097	1.81909
-39.8956	-177.511	1.838623
-39.8953	-178.969	1.85815
-39.8917	-184.198	1.87769
-39.8909	-178.846	1.89722
-39.889	-173.5923	1.916748
-39.8876	-177.5795	1.93628
-39.8856	-175.1	1.95581
-39.88512	-172.812	1.97534
-39.8836	-171.961	1.994873
-39.8814	-173.737	2.0144
-39.8792	-167.622	2.03394
-39.8771	-168.57	2.05347
-39.8761	-169.766	2.072998
-39.87603	-168.8141	2.09253
-39.8731	-163.04	2.11206
-39.8727	-171.011	2.13159
-39.8698	-163.06	2.151123
-39.8675	-160.986	2.17065
-39.86578	-164.199	2.19019
-39.86499	-165.672	2.20972
-39.8641	-156.2803	2.229248
-39.861	-162.419	2.24878
-39.85952	-159.224	2.26831
-39.8589	-154.119	2.28784
-39.8564	-156.217	2.307373
-39.8558	-161.788	2.3269
-39.8538	-151.578	2.34644
-39.8511	-154.166	2.36597
-39.8509	-157.612	2.385498
-39.8476	-149.087	2.40503
-39.847	-149.001	2.42456
-39.84481	-154.882	2.44409
-39.8446	-149.729	2.463623
-39.84148	-145.656	2.48315
-39.8408	-150.207	2.50269
-39.839	-144.677	2.52222
-39.83728	-144.482	2.541748
-39.8352	-148.675	2.56128
-39.8339	-144.194	2.58081
-39.8331	-138.87	2.60034
-39.8313	-142.893	2.619873
-39.8286	-141.474	2.6394
-39.8276	-139.382	2.65894
-39.8261	-135.821	2.67847
-39.8241	-141.288	2.697998
-39.82346	-134.817	2.71753
-39.822	-133.807	2.73706
-39.819	-135.967	2.75659
-39.8185	-134.4449	2.776123
-39.8161	-128.891	2.79565
-39.8146	-135.785	2.81519
-39.8131	-129.673	2.83472
-39.8106	-125.761	2.854248
-39.8101	-129.618	2.87378
-39.80872	-131.944	2.89331
-39.8065	-122.351	2.91284
-39.8044	-125.188	2.932373
-39.8038	-125.728	2.9519
-39.8021	-120.682	2.97144
-39.79985	-121.995	2.99097
-39.7979	-127.239	3.010498
-39.7972	-116.912	3.03003
-39.7953	-116.778	3.04956
-39.7949	-121.104	3.06909
-39.7916	-115.684	3.088623
-39.7899	-114.226	3.10815
-39.78928	-120.018	3.12769
-39.7878	-115.214	3.14722
-39.7848	-112.307	3.166748
-39.78355	-115.25	3.18628
-39.7829	-111.834	3.20581
-39.7799	-109.109	3.22534
-39.7783	-110.533	3.244873
-39.7767	-110.842	3.2644
-39.7761	-105.092	3.28394
-39.7736	-106.914	3.30347
-39.7722	-107.264	3.322998
-39.77121	-106.202	3.34253
-39.7686	-100.972	3.36206
-39.7673	-105.093	3.38159
-39.76519	-99.5262	3.401123
-39.7639	-97.2844	3.42065
-39.7634	-101.108	3.44019
-39.76	-102.024	3.45972
-39.7598	-92.5119	3.479248
-39.7575	-100.339	3.49878
-39.75539	-96.7179	3.51831
-39.7533	-91.3275	3.53784
-39.7528	-92.0801	3.557373
-39.752	-98.5117	3.5769
-39.7493	-87.629	3.59644
-39.7494	-91.6736	3.61597
-39.7464	-90.339	3.635498
-39.7439	-86.1747	3.65503
-39.7429	-85.6944	3.67456
-39.7414	-91.8061	3.69409
-39.7395	-84.05307	3.713623
-39.7388	-81.90834	3.73315
-39.7362	-87.3827	3.75269
-39.7347	-84.0972	3.77222
-39.7334	-79.4053	3.791748
-39.7321	-84.0115	3.81128
-39.7299	-81.5019	3.83081
-39.7286	-74.4089	3.85034
-39.7273	-80.0434	3.869873
-39.7239	-75.8752	3.8894
-39.7241	-73.8727	3.90894
-39.7216	-74.6576	3.92847
-39.7201	-77.5306	3.947998
-39.7183	-70.5229	3.96753
-39.7169	-70.0063	3.98706
-39.7148	-73.4338	4.00659
-39.71315	-71.6034	4.026123
-39.712	-63.151	4.04565
-39.7098	-69.4762	4.06519
-39.7095	-66.1924	4.08472
-39.70755	-61.9627	4.104248
-39.7048	-65.0817	4.12378
-39.7031	-69.2078	4.14331
-39.7017	-57.1471	4.16284
-39.7009	-63.4897	4.182373
-39.699	-63.3567	4.2019
-39.6976	-55.8765	4.22144
-39.6951	-56.6509	4.24097
-39.6937	-63.0824	4.260498
-39.6923	-54.2148	4.28003
-39.6917	-55.2869	4.29956
-39.69	-58.0336	4.31909
-39.6872	-51.4238	4.338623
-39.6859	-50.0969	4.35815
-39.6846	-55.4493	4.37769
-39.6831	-49.8993	4.39722
-39.682	-46.9472	4.416748
-39.6792	-51.9992	4.43628
-39.6777	-49.5851	4.45581
-39.6758	-45.4344	4.47534
-39.6749	-47.7843	4.494873
-39.6735	-47.9188	4.5144
-39.6715	-40.9523	4.53394
-39.6703	-43.2188	4.55347
-39.6682	-43.4031	4.572998
-39.66658	-41.9155	4.59253
-39.6643	-38.1176	4.61206
-39.6629	-42.83007	4.63159
-39.6606	-36.3816	4.651123
-39.6597	-32.2115	4.67065
-39.6586	-37.1226	4.69019
-39.6561	-38.5275	4.70972
-39.6559	-30.587	4.729248
-39.6531	-34.869	4.74878
-39.6513	-31.75716	4.76831
-39.6506	-27.999	4.78784
-39.6484	-29.6128	4.807373
-39.6473	-34.1565	4.8269
-39.6455	-23.3476	4.84644
-39.64328	-26.6401	4.86597
-39.6414	-26.896	4.885498
-39.6401	-23.1744	4.90503
-39.6381	-21.7724	4.92456
-39.6378	-28.1106	4.94409
-39.6339	-20.7815	4.963623
-39.6339	-19.4168	4.98315
-39.6324	-22.9299	5.00269
-39.6292	-18.1287	5.02222
-39.62978	-15.5628	5.041748
-39.6276	-21.2131	5.06128
-39.6262	-16.9992	5.08081
-39.62389	-12.5779	5.10034
-39.6231	-13.6685	5.119873
-39.6203	-14.5284	5.1394
-39.6189	-11.1393	5.15894
-39.6178	-10.9746	5.17847
-39.6149	-12.9317	5.197998
-39.6142	-8.20029	5.21753
-39.612	-7.731153	5.23706
-39.611	-10.3525	5.25659
-39.6101	-7.05303	5.276123
-39.6068	-1.645867	5.29565
-39.6063	-7.72661	5.31519
-39.6037	-4.61462	5.33472
-39.6017	2.33384	5.354248
-39.601	-2.18918	5.37378
-39.59956	-4.86228	5.39331
-39.5974	4.51901	5.41284
-39.5965	0.361689	5.432373
-39.5938	-0.821319	5.4519
-39.5928	5.5154	5.47144
-39.59201	5.10886	5.49097
-39.5893	-0.548572	5.510498
-39.5891	9.977046	5.53003
-39.5881	8.8137	5.54956
-39.5841	5.3732	5.56909
-39.5826	9.86432	5.588623
-39.5829	13.4556	5.60815
-39.5802	7.21347	5.62769
-39.5787	13.4984	5.64722
-39.5768	14.3379	5.666748
-39.5752	11.9524	5.68628
-39.5732	13.6583	5.70581
-39.5726	20.0284	5.72534
-39.5701	15.9846	5.744873
-39.56934	15.2821	5.7644
-39.5678	23.7829	5.78394
-39.565	21.72436	5.80347
-39.5643	20.3562	5.822998
-39.56324	21.3192	5.84253
-39.5606	24.337	5.86206
-39.5596	20.82597	5.88159
-39.558	26.4464	5.901123
-39.5564	27.93502	5.92065
-39.5555	25.889	5.94019
-39.5536	25.1548	5.95972
-39.55077	33.5966	5.979248
-39.5497	28.2788	5.99878
-39.5468	30.2121	6.01831
-39.5472	36.0861	6.03784
-39.5446	34.8716	6.057373
-39.5433	27.88376	6.0769
-39.5405	39.143	6.09644
-39.5389	36.6573	6.11597
-39.5385	34.4554	6.135498
-39.5359	41.9301	6.15503
-39.5362	41.6765	6.17456
-39.5323	34.0502	6.19409
-39.5314	42.2754	6.213623
-39.53	44.6712	6.23315
-39.5284	42.6437	6.25269
-39.5272	43.2547	6.27222
-39.52594	49.5679	6.291748
-39.5232	42.9208	6.31128
-39.5217	47.7185	6.33081
-39.5191	50.2203	6.35034
-39.5184	48.381	6.369873
-39.5172	48.8553	6.3894
-39.5159	54.2625	6.40894
-39.5135	50.4647	6.42847
-39.5112	48.6621	6.447998
-39.5097	56.0389	6.46753
-39.5079	56.917	6.48706
-39.507	55.4817	6.50659
-39.5057	54.8882	6.526123
-39.5053	60.0433	6.54565
-39.5017	56.63	6.56519
-39.5001	61.3071	6.58472
-39.4988	64.83847	6.604248
-39.49757	62.18346	6.62378
-39.4963	57.5372	6.64331
-39.4936	69.4809	6.66284
-39.492	63.7588	6.682373
-39.4892	63.7332	6.7019
-39.4888	69.0661	6.72144
-39.4878	71.0524	6.74097
-39.4875	63.0606	6.760498
-39.4845	74.1389	6.78003
-39.4834	71.5403	6.79956
-39.4797	70.708	6.81909
-39.4792	75.5644	6.838623
-39.4784	76.8261	6.85815
-39.4764	70.3363	6.87769
-39.4749	78.3281	6.89722
-39.4739	82.1241	6.916748
-39.4712	76.8832	6.93628
-39.4691	77.4442	6.95581
-39.4686	83.8412	6.97534
-39.4664	77.4643	6.994873
-39.464	80.6119	7.0144
-39.4631	86.0211	7.03394
-39.4612	82.8915	7.05347
-39.4603	84.073	7.072998
-39.457	86.4241	7.09253
-39.4561	89.1034	7.11206
-39.4554	85.805	7.13159
-39.4533	89.8769	7.151123
-39.4513	93.2514	7.17065
-39.4501	89.89	7.19019
-39.4485	88.2966	7.20972
-39.4462	95.6038	7.229248
-39.4451	91.7493	7.24878
-39.4431	94.9487	7.26831
-39.4415	101.0482	7.28784
-39.4408	99.7562	7.307373
-39.4393	92.95475	7.3269
-39.4368	103.85	7.34644
-39.4355	101.659	7.36597
-39.4344	99.5437	7.385498
-39.4325	105.141	7.40503
-39.4298	106.089	7.42456
-39.4285	99.0558	7.44409
-39.4276	107.349	7.463623
-39.4256	108.611	7.48315
-39.4234	105.857	7.50269
-39.4218	108.885	7.52222
-39.4196	112.025	7.541748
-39.41888	106.2	7.56128
-39.4178	110.396	7.58081
-39.4166	115.655	7.60034
-39.41399	111.352	7.619873
-39.4125	112.256	7.6394
-39.40987	116.616	7.65894
-39.4102	114.41	7.67847
-39.4073	116.177	7.697998
-39.4063	120.213	7.71753
-39.4044	119.982	7.73706
-39.40353	118.213	7.75659
-39.4001	121.053	7.776123
-39.3998	124.169	7.79565
-39.399	120.083	7.81519
-39.3968	123.575	7.83472
-39.39455	127.329	7.854248
-39.3929	127.732	7.87378
-39.3921	123.152	7.89331
-39.3902	131.06	7.91284
-39.3878	125.846	7.932373
-39.3865	127.476	7.9519
-39.3852	133.6627	7.97144
-39.3835	133.609	7.99097
-39.3812	125.912	8.010498
-39.3804	136.21	8.03003
-39.3774	135.061	8.04956
-39.3766	133.024	8.06909
-39.3758	135.674	8.088623
-39.3745	140.802	8.10815
-39.3722	133.188	8.12769
-39.36977	141.16	8.14722
-39.3695	141.4527	8.166748
-39.3676	140.394	8.18628
-39.36491	140.728	8.20581
-39.3645	146.74	8.22534
-39.3628	139.877	8.244873
-39.3607	144.236	8.2644
-39.3581	148.454	8.28394
-39.3569	146.399	8.30347
-39.3564	147.114	8.322998
-39.3536	149.952	8.34253
-39.3532	148.214	8.36206
-39.3511	147.779	8.38159
-39.3497	152.935	8.401123
-39.34848	153.6107	8.42065
-39.3458	151.482	8.44019
-39.3443	150.8945	8.45972
-39.3422	160.48	8.479248
-39.341	155.305	8.49878
-39.3405	155.645	8.51831
-39.3382	159.959	8.53784
-39.3366	159.079	8.557373
-39.3353	155.76	8.5769
-39.3323	165.922	8.59644
-39.3312	161.122	8.61597
-39.3281	160.005	8.635498
-39.3283	166.451	8.65503
-39.3267	166.359	8.67456
-39.3253	159.311	8.69409
-39.32291	166.883	8.713623
-39.3212	170.105	8.73315
-39.3191	166.399	8.75269
-39.31789	169.377	8.77222
-39.3168	174.285	8.791748
-39.3154	168.179	8.81128
-39.313	172.117	8.83081
-39.3112	175.69	8.85034
-39.31	173.196	8.869873
-39.3094	171.0849	8.8894
-39.3069	178.59	8.90894
-39.30479	176.169	8.92847
-39.3034	175.673	8.947998
-39.3019	179.09	8.96753
-39.30032	181.149	8.98706
-39.29882	178.111	9.00659
-39.2969	180.856	9.026123
-39.2949	184.039	9.04565
-39.295	180.337	9.06519
-39.2922	186.53	9.08472
-39.2903	189.542	9.104248
-39.2894	185.73	9.12378
-39.2873	182.5136	9.14331
-39.2852	192.358	9.16284
-39.2835	188.018	9.182373
-39.2825	188.626	9.2019
-39.2808	194.683	9.22144
-39.2794	195.049	9.24097
-39.2776	187.688	9.260498
-39.2764	195.845	9.28003
-39.2743	195.377	9.29956
-39.273	192.8783	9.31909
-39.271	199.167	9.338623
-39.2703	202.704	9.35815
-39.26825	195.169	9.37769
-39.2663	199.749	9.39722
-39.2645	203.723	9.416748
-39.2631	200.832	9.43628
-39.2624	201.261	9.45581
-39.2608	207.192	9.47534
-39.2589	201.08	9.494873
-39.2574	204.734	9.5144
-39.256	209.244	9.53394
-39.2533	206.996	9.55347
-39.2523	206.339	9.572998
-39.2502	210.631	9.59253
-39.2486	210.175	9.61206
-39.2466	208.697	9.63159
-39.2452	212.112	9.651123
-39.2438	214.2543	9.67065
-39.2431	212.18	9.69019
-39.2402	212.097	9.70972
-39.2388	217.15	9.729248
-39.238	213.593	9.74878
-39.235	216.0916	9.76831
-39.233	222.561	9.78784
-39.2323	218.33	9.807373
-39.231	214.352	9.8269
-39.2292	225.234	9.84644
-39.2275	220.191	9.86597
-39.22583	219.069	9.885498
-39.2233	225.551	9.90503
-39.2231	226.914	9.92456
-39.2206	219.13	9.94409
-39.2191	227.629	9.963623
-39.2176	228.097	9.98315
-39.2146	226.381	10.0027
-39.2144	228.356	10.0222
-39.2131	235.468	10.0417
-39.2108	225.493	10.0613
-39.2073	231.101	10.0808
-39.2073	235.596	10.1003
-39.2069	235.413	10.1199
-39.2041	233.456	10.1394
-39.2031	238.965	10.1589
-39.2014	234.255	10.1785
-39.1995	236.279	10.198
-39.1985	241.077	10.2175
-39.1963	240.841	10.2371
-39.1955	238.542	10.2566
-39.1921	241.14	10.2761
-39.1926	242.429	10.2957
-39.189	240.983	10.3152
-39.1882	242.172	10.3347
-39.1873	247.312	10.3542
-39.185	246.039	10.3738
-39.1833	244.74	10.3933
-39.1811	250.768	10.4128
-39.1803	246.953	10.4324
-39.1788	246.98	10.4519
-39.1772	254.254	10.4714
-39.1766	254.788	10.491
-39.1738	247.029	10.5105
-39.1713	256.455	10.53
-39.1698	254.905	10.5496
-39.1692	254.458	10.5691
-39.167	258.997	10.5886
-39.1648	260.476	10.6082
-39.1633	253.948	10.6277
-39.162	261.549	10.6472
-39.15984	264.0242	10.6667
-39.1584	259.753	10.6863
-39.1574	259.113	10.7058
-39.155	266.868	10.7253
-39.1541	260.373	10.7449
-39.1515	263.155	10.7644
-39.1509	266.428	10.7839
-39.1498	268.52	10.8035
-39.1471	265.466	10.823
-39.1462	269.067	10.8425
-39.1449	266.7984	10.8621
-39.1429	268.112	10.8816
-39.1411	273.555	10.9011
-39.1393	275.759	10.9207
-39.13821	270.422	10.9402
-39.1363	272.21	10.9597
-39.1341	274.77	10.9792
-39.1336	273.8873	10.9988
-39.1312	273.862	11.0183
-39.1295	280.548	11.0378
-39.1284	278.508	11.0574
-39.1267	275.674	11.0769
-39.1249	281.33	11.0964
-39.1222	281.6427	11.116
-39.122	278.567	11.1355
-39.12014	284.493	11.155
-39.1186	286.908	11.1746
-39.1176	278.891	11.1941
-39.11433	286.705	11.2136
-39.1133	288.04	11.2332
-39.1114	285.87	11.2527
-39.10965	287.321	11.2722
-39.10825	293.784	11.2917
-39.1063	284.18	11.3113
-39.1043	290.892	11.3308
-39.1037	294.368	11.3503
-39.1007	291.343	11.3699
-39.1004	291.224	11.3894
-39.0992	297.9783	11.4089
-39.0973	293.136	11.4285
-39.0951	292.509	11.448
-39.0952	297.198	11.4675
-39.0923	298.921	11.4871
-39.0905	295.0437	11.5066
-39.0886	299.027	11.5261
-39.0875	299.865	11.5457
-39.0853	297.131	11.5652
-39.0841	299.5452	11.5847
-39.0828	305.411	11.6042
-39.0817	301.764	11.6238
-39.0786	299.648	11.6433
-39.0767	306.1741	11.6628
-39.0747	305.372	11.6824
-39.0744	303.793	11.7019
-39.0723	307.61	11.7214
-39.071	309.242	11.741
-39.0701	302.689	11.7605
-39.0676	311.444	11.78
-39.0664	312.814	11.7996
-39.06329	307.18	11.8191
-39.0627	313.339	11.8386
-39.0615	315.997	11.8582
-39.0599	308.916	11.8777
-39.05788	314.712	11.8972
-39.05624	317.643	11.9167
-39.0554	314.893	11.9363
-39.0531	314.834	11.9558
-39.05212	322.012	11.9753
-39.0499	315.315	11.9949
-39.0479	317.3	12.0144
-39.046	322.9614	12.0339
-39.0436	324.0499	12.0535
-39.0442	318.089	12.073
-39.042	324.8118	12.0925
-39.0419	322.415	12.1121
-39.0384	322.912	12.1316
-39.0377	324.477	12.1511
-39.0354	328.095	12.1707
-39.0327	325.114	12.1902
-39.0326	326.794	12.2097
-39.03112	328.497	12.2292
-39.0287	326.928	12.2488
-39.0264	326.733	12.2683
-39.0266	333.382	12.2878
-39.0246	332.972	12.3074
-39.0218	327.807	12.3269
-39.0202	335.459	12.3464
-39.019	334.2821	12.366
-39.0191	334.167	12.3855
-39.0162	337.748	12.405
-39.0134	339.345	12.4246
-39.01189	331.737	12.4441
-39.0103	339.26	12.4636
-39.0089	344.007	12.4832
-39.0073	336.737	12.5027
-39.0058	339.699	12.5222
-39.0043	346.263	12.5417
-39.0043	338.278	12.5613
-38.9998	341.883	12.5808
-39.0001	346.913	12.6003
-38.9977	345.716	12.6199
-38.9965	343.3	12.6394
-38.9949	350.053	12.6589
-38.9919	344.355	12.6785
-38.9911	346.96	12.698
-38.9898	350.9043	12.7175
-38.9878	351.666	12.7371
-38.9863	347.776	12.7566
-38.9852	351.787	12.7761
-38.9838	352.594	12.7957
-38.9819	350.331	12.8152
-38.9801	352.577	12.8347
-38.9779	355.845	12.8542
-38.9771	353.987	12.8738
-38.9758	353.193	12.8933
-38.974	358.773	12.9128
-38.9719	357.185	12.9324
-38.9699	354.502	12.9519
-38.969	360.7648	12.9714
-38.9667	361.213	12.991
-38.9659	355.622	13.0105
-38.96286	360.831	13.03
-38.9613	363.651	13.0496
-38.9608	361.025	13.0691
-38.9586	364.7	13.0886
-38.9561	366.127	13.1082
-38.95694	358.103	13.1277
-38.9532	366.398	13.1472
-38.952	370.967	13.1667
-38.9512	366.073	13.1863
-38.9489	364.872	13.2058
-38.9471	373.3891	13.2253
-38.94622	366.466	13.2449
-38.9442	368.421	13.2644
-38.9429	372.049	13.2839
-38.9413	373.479	13.3035
-38.9391	369.536	13.323
-38.9378	374.749	13.3425
-38.9374	371.58	13.3621
-38.93412	372.375	13.3816
-38.9323	374.722	13.4011
-38.9312	379.793	13.4207
-38.9289	374.001	13.4402
-38.9278	376.539	13.4597
-38.9265	378.037	13.4792
-38.9236	378.196	13.4988
-38.9232	377.401	13.5183
-38.9218	383.269	13.5378
-38.9198	380.164	13.5574
-38.9173	378.1965	13.5769
-38.9168	382.156	13.5964
-38.9144	385.199	13.616
-38.913	378.8244	13.6355
-38.9117	387.366	13.655
-38.9098	388.038	13.6746
-38.9083	380.977	13.6941
-38.9076	384.008	13.7136
-38.9049	389.11	13.7332
-38.9034	386.021	13.7527
-38.9012	387.416	13.7722
-38.8997	392.882	13.7917
-38.8988	385.1882	13.8113
-38.8967	387.893	13.8308
-38.8943	394.3046	13.8503
-38.89328	392.23	13.8699
-38.8925	387.867	13.8894
-38.8908	395.826	13.9089
-38.89	390.273	13.9285
-38.8872	391.246	13.948
-38.8855	395.222	13.9675
-38.8836	397.056	13.9871
-38.882	393.336	14.0066
-38.8807	399.112	14.0261
-38.8779	398.481	14.0457
-38.8776	395.565	14.0652
-38.87521	397.026	14.0847
-38.8744	403.751	14.1042
-38.8707	398.8	14.1238
-38.8706	398.0896	14.1433
-38.8698	399.004	14.1628
-38.8672	402.262	14.1824
-38.8651	399.6734	14.2019
-38.865	406.032	14.2214
-38.8614	403.157	14.241
-38.8621	399.418	14.2605
-38.8598	404.837	14.28
-38.8575	407.834	14.2996
-38.8562	401.403	14.3191
-38.8552	405.566	14.3386
-38.8532	411.397	14.3582
-38.8521	403.0415	14.3777
-38.8504	407.804	14.3972
-38.847	411.446	14.4167
-38.8451	408.5347	14.4363
-38.8447	407.346	14.4558
-38.8431	415.665	14.4753
-38.84185	407.767	14.4949
-38.8401	408.512	14.5144
-38.8383	414.6	14.5339
-38.8375	414.629	14.5535
-38.8345	410.579	14.573
-38.8329	417.945	14.5925
-38.83194	413.065	14.6121
-38.83	413.276	14.6316
-38.8285	416.707	14.6511
-38.82674	420.686	14.6707
-38.8255	412.906	14.6902
-38.8246	418.428	14.7097
-38.822	418.841	14.7292
-38.8212	418.583	14.7488
-38.8186	416.866	14.7683
-38.8176	423.255	14.7878
-38.8157	421.1752	14.8074
-38.815	419.725	14.8269
-38.8119	419.9809	14.8464
-38.8106	423.866	14.866
-38.8085	419.231	14.8855
-38.80743	425.746	14.905
-38.806	426.183	14.9246
-38.8045	417.8078	14.9441
-38.8034	422.72	14.9636
-38.8006	428.922	14.9832
-38.7988	423.128	15.0027
-38.7973	422.591	15.0222
-38.7959	430.1622	15.0417
-38.7946	422.6962	15.0613
-38.7928	423.47	15.0808
-38.7911	430.056	15.1003
-38.7889	427.028	15.1199
-38.7868	423.707	15.1394
-38.786	432.675	15.1589
-38.7855	426.965	15.1785
-38.7828	426.853	15.198
-38.7814	430.9516	15.2175
-38.78038	433.331	15.2371
-38.7784	427.971	15.2566
-38.7766	432.994	15.2761
-38.77409	431.273	15.2957
-38.7735	431.259	15.3152
-38.772	432.045	15.3347
-38.7695	436.936	15.3542
-38.76881	430.865	15.3738
-38.7665	431.662	15.3933
-38.765	434.929	15.4128
-38.7625	436.313	15.4324
-38.7617	430.935	15.4519
-38.7612	438.22	15.4714
-38.7581	436.374	15.491
-38.7552	434.494	15.5105
-38.7549	435.98	15.53
-38.7537	440.184	15.5496
-38.7516	433.018	15.5691
-38.75082	437.8692	15.5886
-38.7487	441.859	15.6082
-38.7477	434.199	15.6277
-38.74575	436.275	15.6472
-38.7434	442.909	15.6667
-38.7419	438.433	15.6863
-38.7415	436.468	15.7058
-38.7391	445.715	15.7253
-38.7376	437.238	15.7449
-38.7355	438.596	15.7644
-38.733	445.705	15.7839
-38.7329	442.2233	15.8035
-38.7308	437.908	15.823
-38.7298	446.122	15.8425
-38.7281	441.709	15.8621
-38.7256	441.042	15.8816
-38.7248	442.312	15.9011
-38.7219	447.3699	15.9207
-38.721	442.925	15.9402
-38.7189	445.153	15.9597
-38.7177	445.612	15.9792
-38.7169	444.594	15.9988
-38.714	441.724	16.0183
-38.7134	450.917	16.0378
-38.7113	445.597	16.0574
-38.7097	442.438	16.0769
-38.7089	445.331	16.0964
-38.7056	450.334	16.116
-38.7051	441.867	16.1355
-38.7033	449.213	16.155
-38.701	449.421	16.1746
-38.7003	442.3634	16.1941
-38.6977	446.488	16.2136
-38.6965	451.809	16.2332
-38.69532	444.637	16.2527
-38.6933	447.949	16.2722
-38.6913	454.474	16.2917
-38.6903	446.811	16.3113
-38.6882	444.079	16.3308
-38.6869	454.033	16.3503
-38.6849	449.927	16.3699
-38.6828	445.9671	16.3894
-38.6819	454.3111	16.4089
-38.6806	448.397	16.4285
-38.6801	448.228	16.448
-38.6776	452.73	16.4675
-38.6754	453.694	16.4871
-38.6735	447.163	16.5066
-38.6723	454.637	16.5261
-38.6699	452.8331	16.5457
-38.6699	450.891	16.5652
-38.6671	450.384	16.5847
-38.666	456.057	16.6042
-38.6643	449.924	16.6238
-38.663	452.525	16.6433
-38.6617	452.657	16.6628
-38.6605	451.904	16.6824
-38.6577	448.0361	16.7019
-38.6556	457.87	16.7214
-38.654	454.711	16.741
-38.6532	449.725	16.7605
-38.6513	451.178	16.78
-38.6505	456.316	16.7996
-38.6479	449.327	16.8191
-38.6471	454.978	16.8386
-38.645	456.481	16.8582
-38.6428	450.821	16.8777
-38.642	451.624	16.8972
-38.6398	456.734	16.9167
-38.6383	452.528	16.9363
-38.6374	452.853	16.9558
-38.6351	459.011	16.9753
-38.6325	452.625	16.9949
-38.6327	449.103	17.0144
-38.63018	456.384	17.0339
-38.62759	454.274	17.0535
-38.6258	450.106	17.073
-38.6252	456.753	17.0925
-38.6229	452.141	17.1121
-38.622	450.687	17.1316
-38.6196	455.388	17.1511
-38.618	457.692	17.1707
-38.6169	449.689	17.1902
-38.6146	455.213	17.2097
-38.61237	455.731	17.2292
-38.6104	454.44	17.2488
-38.6109	453.527	17.2683
-38.60833	459.289	17.2878
-38.6074	456.0946	17.3074
-38.6055	455.778	17.3269
-38.6041	456.03	17.3464
-38.6015	459.004	17.366
-38.6021	450.23	17.3855
-38.5982	458.4415	17.405
-38.5975	457.907	17.4246
-38.5962	452.754	17.4441
-38.5945	454.818	17.4636
-38.59309	459.232	17.4832
-38.5907	452.308	17.5027
-38.5895	455.725	17.5222
-38.5877	458.44	17.5417
-38.5849	452.346	17.5613
-38.5843	451.296	17.5808
-38.583	459.629	17.6003
-38.5807	454.452	17.6199
-38.5795	451.916	17.6394
-38.5777	460.546	17.6589
-38.5763	455.272	17.6785
-38.5744	449.677	17.698
-38.5734	455.524	17.7175
-38.5716	458.411	17.7371
-38.57	452.192	17.7566
-38.5684	457.226	17.7761
-38.5659	455.36	17.7957
-38.5654	452.782	17.8152
-38.5637	454.349	17.8347
-38.5623	460.4	17.8542
-38.5598	453.38	17.8738
-38.5584	454.324	17.8933
-38.556	456.7543	17.9128
-38.5547	456.946	17.9324
-38.554	451.334	17.9519
-38.5523	457.4422	17.9714
-38.5509	456.539	17.991
-38.5488	453.697	18.0105
-38.5479	455.614	18.03
-38.5448	457.851	18.0496
-38.54438	449.818	18.0691
-38.5418	456.204	18.0886
-38.54002	458.567	18.1082
-38.5387	452.806	18.1277
-38.5386	449.128	18.1472
-38.5359	460.019	18.1667
-38.5327	452.228	18.1863
-38.5325	452.094	18.2058
-38.5307	457.599	18.2253
-38.5294	453.694	18.2449
-38.5275	449.641	18.2644
-38.5261	458.216	18.2839
-38.524	454.092	18.3035
-38.5224	448.662	18.323
-38.5203	456.782	18.3425
-38.519	453.779	18.3621
-38.5173	449.5	18.3816
-38.516	453.6138	18.4011
-38.5147	456.885	18.4207
-38.5135	449.538	18.4402
-38.5107	454.139	18.4597
-38.5086	454.4935	18.4792
-38.5078	449.724	18.4988
-38.5063	450.067	18.5183
-38.5038	457.311	18.5378
-38.5027	452.511	18.5574
-38.5015	448.861	18.5769
-38.4995	451.958	18.5964
-38.4986	455.843	18.616
-38.4958	448.481	18.6355
-38.4944	454.819	18.655
-38.4933	453.806	18.6746
-38.4914	450.811	18.6941
-38.4903	450.245	18.7136
-38.4878	457.203	18.7332
-38.4863	446.391	18.7527
-38.4866	452.265	18.7722
-38.4843	456.171	18.7917
-38.4809	451.649	18.8113
-38.4804	445.998	18.8308
-38.4789	455.839	18.8503
-38.4768	450.822	18.8699
-38.47509	448.011	18.8894
-38.474	453.792	18.9089
-38.473	450.797	18.9285
-38.4704	445.014	18.948
-38.4686	453.536	18.9675
-38.4681	452.952	18.9871
-38.46616	446.179	19.0066
-38.4631	451.237	19.0261
-38.4629	451.619	19.0457
-38.4609	445.715	19.0652
-38.4588	447.894	19.0847
-38.45705	453.985	19.1042
-38.45612	447.511	19.1238
-38.45475	452.37	19.1433
-38.4531	451.205	19.1628
-38.4512	447.3562	19.1824
-38.4494	445.205	19.2019
-38.4473	453.461	19.2214
-38.44566	449.642	19.241
-38.4448	446.456	19.2605
-38.4423	448.589	19.28
-38.44178	451.728	19.2996
-38.4388	445.306	19.3191
-38.4379	448.837	19.3386
-38.4363	452.08	19.3582
-38.4347	445.851	19.3777
-38.4325	444.086	19.3972
-38.4321	454.7034	19.4167
-38.4298	445.43	19.4363
-38.428	446.163	19.4558
-38.4255	451.043	19.4753
-38.426	447.965	19.4949
-38.42326	442.521	19.5144
-38.4219	451.747	19.5339
-38.4188	447.489	19.5535
-38.4176	443.628	19.573
-38.4164	450.319	19.5925
-38.4157	446.428	19.6121
-38.4137	440.692	19.6316
-38.412	447.0679	19.6511
-38.4098	449.611	19.6707
-38.409	444.216	19.6902
-38.4076	447.165	19.7097
-38.40498	447.965	19.7292
-38.405	443.546	19.7488
-38.4028	445.94	19.7683
-38.4005	449.2	19.7878
-38.3985	444.4946	19.8074
-38.3988	443.262	19.8269
-38.3956	446.973	19.8464
-38.3941	446.335	19.866
-38.3928	441.659	19.8855
-38.3912	449.64	19.905
-38.3887	448.701	19.9246
-38.3872	442.791	19.9441
-38.3845	441.6102	19.9636
-38.3849	449.331	19.9832
-38.3823	442.27	20.0027
-38.3815	439.132	20.0125

Data Header:			0.254_solid_dimension_typeiv_090_r0			Time:	28.1055	s	4/14/2019 1:39:40 AM
Data Acquisition:	Timed
Station Name:	ft40.cfg
Test File Name:	monotonic_0.2540_typeiv_solid_090_dimension.tst
Displacement	Force	Running Time
mm	N	s
-38.38089	444.343	20.0222
-38.3798	444.905	20.032
-38.3792	446.804	20.0417
-38.37751	446.698	20.0515
-38.3781	442.974	20.0613
-38.377	440.703	20.071
-38.3759	439.239	20.0808
-38.3749	446.962	20.0906
-38.3738	449.939	20.1003
-38.3727	447.533	20.1101
-38.3719	443.193	20.1199
-38.3727	437.6925	20.1296
-38.3714	439.403	20.1394
-38.37064	444.795	20.14917
-38.3693	446.311	20.1589
-38.3685	447.404	20.1687
-38.3683	445.264	20.1785
-38.3675	441.8653	20.1882
-38.3652	439.059	20.198
-38.3656	441.236	20.2078
-38.3653	446.561	20.2175
-38.364	450.626	20.2273
-38.3634	443.636	20.2371
-38.362	439.9949	20.2468
-38.36187	439.066	20.2566
-38.36076	442.3367	20.2664
-38.3596	444.916	20.2761
-38.3595	445.438	20.2859
-38.3579	445.876	20.2957
-38.357	444.596	20.30542
-38.3566	437.404	20.3152
-38.357	440.133	20.325
-38.3551	440.805	20.3347
-38.355	446.679	20.3445
-38.3531	445.509	20.3542
-38.3527	440.99	20.364
-38.3513	440.601	20.3738
-38.3513	441.9201	20.3835
-38.3499	442.21	20.3933
-38.3485	443.394	20.4031
-38.348	444.176	20.4128
-38.3475	445.847	20.4226
-38.3465	440.656	20.4324
-38.3476	438.569	20.4421
-38.34586	439.962	20.4519
-38.3446	442.273	20.46167
-38.3426	446.486	20.4714
-38.3428	443.794	20.4812
-38.3424	444.194	20.491
-38.341	441.3	20.5007
-38.3406	441.324	20.5105
-38.33989	441.325	20.5203
-38.3372	444.079	20.53
-38.3382	445.608	20.5398
-38.3365	444.953	20.5496
-38.3368	441.524	20.5593
-38.3351	436.911	20.5691
-38.3346	439.964	20.5789
-38.3337	441.8187	20.5886
-38.3329	443.968	20.5984
-38.3326	446.59	20.6082
-38.3318	444.179	20.61792
-38.3308	441.122	20.6277
-38.3304	437.562	20.6375
-38.3292	438.856	20.6472
-38.3285	445.784	20.657
-38.3275	446.661	20.6667
-38.327	445.3129	20.6765
-38.3253	440.296	20.6863
-38.3241	436.748	20.696
-38.3247	442.649	20.7058
-38.322	441.262	20.7156
-38.3224	445.4	20.7253
-38.3222	444.968	20.7351
-38.3202	441.82	20.7449
-38.3197	439.806	20.7546
-38.31842	435.886	20.7644
-38.3178	440.766	20.77417
-38.3174	446.585	20.7839
-38.3167	446.066	20.7937
-38.3165	441.505	20.8035
-38.3148	436.293	20.8132
-38.3143	438.809	20.823
-38.3139	440.462	20.8328
-38.3126	444.371	20.8425
-38.3119	445.156	20.8523
-38.3111	443.648	20.8621
-38.31	441.744	20.8718
-38.3084	436.161	20.8816
-38.30912	436.38	20.8914
-38.3074	444.257	20.9011
-38.3077	446.2149	20.9109
-38.3065	445.113	20.9207
-38.3047	438.0864	20.93042
-38.3036	438.755	20.9402
-38.3041	437.151	20.95
-38.3016	441.363	20.9597
-38.3024	443.813	20.9695
-38.3014	444.6087	20.9792
-38.3012	442.872	20.989
-38.3003	436.403	20.9988
-38.29958	438.049	21.0085
-38.298	438.412	21.0183
-38.2968	444.251	21.0281
-38.2962	444.627	21.0378
-38.2953	439.948	21.0476
-38.29398	440.63	21.0574
-38.2934	439.342	21.0671
-38.2926	439.623	21.0769
-38.2921	439.399	21.08667
-38.2906	441.791	21.0964
-38.2907	444.006	21.1062
-38.2903	440.858	21.116
-38.2885	438.467	21.1257
-38.2884	437.418	21.1355
-38.2874	439.101	21.1453
-38.2865	443.7605	21.155
-38.2863	441.78	21.1648
-38.2844	442.783	21.1746
-38.2835	441.096	21.1843
-38.28484	437.795	21.1941
-38.28273	438.187	21.2039
-38.2815	439.502	21.2136
-38.281	444.753	21.2234
-38.2809	446.753	21.2332
-38.2783	441.503	21.24292
-38.2784	437.994	21.2527
-38.2764	436.5838	21.2625
-38.2767	442.139	21.2722
-38.2762	442.311	21.282
-38.2759	445.385	21.2917
-38.2739	442.994	21.3015
-38.2737	440.859	21.3113
-38.2736	436.009	21.321
-38.2714	435.455	21.3308
-38.2714	441.052	21.3406
-38.27021	444.705	21.3503
-38.2694	443.953	21.3601
-38.2686	437.6962	21.3699
-38.2681	436.214	21.3796
-38.2667	438.057	21.3894
-38.2659	438.572	21.39917
-38.2648	442.347	21.4089
-38.2646	443.465	21.4187
-38.2639	439.922	21.4285
-38.2619	437.349	21.4382
-38.26152	433.2836	21.448
-38.261	438.2182	21.4578
-38.2601	443.402	21.4675
-38.2595	444.632	21.4773
-38.2594	442.165	21.4871
-38.2577	435.399	21.4968
-38.2571	436.477	21.5066
-38.256	437.439	21.5164
-38.2566	439.743	21.5261
-38.2546	442.918	21.5359
-38.2541	441.508	21.5457
-38.2525	441.729	21.55542
-38.2525	435.091	21.5652
-38.2508	436.296	21.575
-38.2507	440.05	21.5847
-38.2503	443.413	21.5945
-38.2494	441.216	21.6042
-38.2484	439.486	21.614
-38.2468	437.101	21.6238
-38.2464	437.439	21.6335
-38.2455	438.15	21.6433
-38.2442	438.931	21.6531
-38.2432	443.081	21.6628
-38.2434	442.098	21.6726
-38.2433	438.119	21.6824
-38.242	437.69	21.6921
-38.2407	435.676	21.7019
-38.2397	440.179	21.71167
-38.23922	441.399	21.7214
-38.2378	439.762	21.7312
-38.23756	440.204	21.741
-38.2377	438.014	21.7507
-38.2357	436.976	21.7605
-38.236	437.508	21.7703
-38.2342	436.268	21.78
-38.2354	444.166	21.7898
-38.233	440.407	21.7996
-38.2329	438.856	21.8093
-38.23138	435.2991	21.8191
-38.2313	437.111	21.8289
-38.2294	439.962	21.8386
-38.2286	440.29	21.8484
-38.2281	442.637	21.8582
-38.2266	440.8634	21.86792
-38.2268	436.893	21.8777
-38.2252	436.181	21.8875
-38.226	436.21	21.8972
-38.2233	440.838	21.907
-38.223	444.459	21.9167
-38.2228	440.664	21.9265
-38.222	436.552	21.9363
-38.2207	435.79	21.946
-38.22	436.978	21.9558
-38.219	438.318	21.9656
-38.2182	441.99	21.9753
-38.2169	441.655	21.9851
-38.2169	439.2948	21.9949
-38.2161	436.333	22.0046
-38.2152	432.827	22.0144
-38.2148	436.453	22.02417
-38.2126	443.279	22.0339
-38.2132	444.577	22.0437
-38.2116	437.788	22.0535
-38.2104	436.81	22.0632
-38.2106	436.609	22.073
-38.2082	436.175	22.0828
-38.2075	443.395	22.0925
-38.2073	442.003	22.1023
-38.2078	440.336	22.1121
-38.2052	437.895	22.1218
-38.2056	431.9931	22.1316
-38.2039	436.5217	22.1414
-38.2028	440.345	22.1511
-38.2028	444.2247	22.1609
-38.2016	442.856	22.1707
-38.2004	435.947	22.18042
-38.2002	436.726	22.1902
-38.1984	435.51	22.2
-38.1989	439.2345	22.2097
-38.1978	442.2226	22.2195
-38.198	440.153	22.2292
-38.1975	441.438	22.239
-38.1954	432.36	22.2488
-38.1951	434.969	22.2585
-38.194	436.845	22.2683
-38.1923	439.541	22.2781
-38.1921	442.184	22.2878
-38.19054	437.385	22.2976
-38.18993	437.996	22.3074
-38.18935	437.663	22.3171
-38.1892	436.39	22.3269
-38.189	436.36	22.33667
-38.1867	439.449	22.3464
-38.1858	440.671	22.3562
-38.1862	435.969	22.366
-38.1848	435.187	22.3757
-38.1844	434.251	22.3855
-38.1831	436.622	22.3953
-38.182	440.741	22.405
-38.181	439.604	22.4148
-38.1813	437.562	22.4246
-38.18	438.278	22.4343
-38.1795	436.434	22.4441
-38.178	433.066	22.4539
-38.1783	436.729	22.4636
-38.1773	441.933	22.4734
-38.1754	440.056	22.4832
-38.1768	437.554	22.49292
-38.17503	432.452	22.5027
-38.1739	432.302	22.5125
-38.1719	437.984	22.5222
-38.1712	435.956	22.532
-38.17	439.926	22.5417
-38.1706	439.479	22.5515
-38.1686	436.483	22.5613
-38.16901	435.18	22.571
-38.1674	431.923	22.5808
-38.1663	437.265	22.5906
-38.1665	443.451	22.6003
-38.166	440.546	22.6101
-38.1651	436.646	22.6199
-38.1644	432.444	22.6296
-38.163	435.426	22.6394
-38.16206	435.32	22.64917
-38.16143	439.534	22.6589
-38.16	441.365	22.6687
-38.1597	438.6759	22.6785
-38.1593	434.518	22.6882
-38.1583	431.1575	22.698
-38.157	434.923	22.7078
-38.1562	441.4527	22.7175
-38.1555	441.196	22.7273
-38.1549	438.853	22.7371
-38.1545	435.452	22.7468
-38.1524	434.2092	22.7566
-38.1518	434.763	22.7664
-38.1512	439.093	22.7761
-38.1508	440.1152	22.7859
-38.1493	440.682	22.7957
-38.1496	437.641	22.80542
-38.1489	431.6084	22.8152
-38.1481	433.702	22.825
-38.1472	436.882	22.8347
-38.1458	439.747	22.8445
-38.1449	440.868	22.8542
-38.1442	434.024	22.864
-38.1434	435.522	22.8738
-38.1421	434.348	22.8835
-38.1417	435.961	22.8933
-38.1407	438.961	22.9031
-38.1404	438.937	22.9128
-38.1389	441.076	22.9226
-38.1382	433.461	22.9324
-38.1379	434.564	22.9421
-38.1357	433.966	22.9519
-38.1361	438.015	22.96167
-38.1343	440.058	22.9714
-38.1331	437.252	22.9812
-38.1326	436.784	22.991
-38.1326	436.685	23.0007
-38.13097	432.091	23.0105
-38.1303	436.361	23.0203
-38.1303	437.4	23.03
-38.12986	441.002	23.0398
-38.12886	437.813	23.0496
-38.12738	436.798	23.0593
-38.1269	434.0387	23.0691
-38.1262	435.362	23.0789
-38.1259	437.037	23.0886
-38.125	437.948	23.0984
-38.1235	438.561	23.1082
-38.1239	436.545	23.11792
-38.12331	433.898	23.1277
-38.1213	431.125	23.1375
-38.1206	434.73	23.1472
-38.1189	438.683	23.157
-38.1191	438.907	23.1667
-38.1179	440.652	23.1765
-38.1184	434.623	23.1863
-38.1165	433.956	23.196
-38.1141	435.4303	23.2058
-38.11459	433.495	23.2156
-38.1144	442.538	23.2253
-38.1128	440.79	23.2351
-38.1129	437.971	23.2449
-38.1109	433.473	23.2546
-38.1111	429.203	23.2644
-38.1107	436.389	23.27417
-38.1084	442.207	23.2839
-38.1078	440.063	23.2937
-38.1077	435.434	23.3035
-38.10714	432.291	23.3132
-38.1062	433.324	23.323
-38.1054	432.282	23.3328
-38.1036	437.375	23.3425
-38.1034	441.436	23.3523
-38.1026	438.783	23.3621
-38.1021	435.7	23.3718
-38.1002	430.142	23.3816
-38.1006	432.114	23.3914
-38.1002	438.394	23.4011
-38.0984	440.147	23.4109
-38.0974	437.777	23.4207
-38.0976	434.409	23.43042
-38.0955	434.573	23.4402
-38.0947	433.5957	23.45
-38.09417	437.917	23.4597
-38.094	437.079	23.4695
-38.0921	440.885	23.4792
-38.0922	437.554	23.489
-38.0899	431.529	23.4988
-38.0902	433.59	23.5085
-38.0897	434.674	23.5183
-38.08976	439.261	23.5281
-38.0876	438.522	23.5378
-38.0862	437.931	23.5476
-38.0863	434.055	23.5574
-38.0855	433.317	23.5671
-38.0849	434.766	23.5769
-38.0831	433.753	23.58667
-38.08427	436.668	23.5964
-38.0821	440.917	23.6062
-38.0818	434.1	23.616
-38.0802	435.1196	23.6257
-38.0804	432.607	23.6355
-38.0787	434.0874	23.6453
-38.0771	439.9967	23.655
-38.0767	435.425	23.6648
-38.0772	437.976	23.6746
-38.076	435.791	23.6843
-38.0752	433.284	23.6941
-38.0739	431.938	23.7039
-38.0729	434.427	23.7136
-38.0723	439.684	23.7234
-38.0717	437.1286	23.7332
-38.0712	434.9104	23.74292
-38.0695	432.989	23.7527
-38.0691	433.809	23.7625
-38.06834	435.229	23.7722
-38.0684	434.485	23.782
-38.0667	439.252	23.7917
-38.0656	439.591	23.8015
-38.0667	434.542	23.8113
-38.06464	431.608	23.821
-38.0635	430.853	23.8308
-38.0639	436.92	23.8406
-38.0611	440.31	23.8503
-38.0608	437.909	23.8601
-38.0589	435.073	23.8699
-38.0598	432.35	23.8796
-38.0586	433.153	23.8894
-38.0573	431.215	23.89917
-38.0568	439.37	23.9089
-38.0571	437.975	23.9187
-38.0556	438.233	23.9285
-38.05468	430.657	23.9382
-38.05476	426.595	23.948
-38.0535	433.597	23.9578
-38.0519	437.788	23.9675
-38.0505	440.389	23.9773
-38.05051	435.484	23.9871
-38.05	431.67	23.9968
-38.05061	433.231	24.0066
-38.04837	429.911	24.0164
-38.0473	435.088	24.0261
-38.0464	439.3461	24.0359
-38.0454	437.691	24.0457
-38.0449	435.4097	24.05542
-38.0433	429.035	24.0652
-38.0429	430.368	24.075
-38.04216	435.444	24.0847
-38.04187	437.3	24.0945
-38.0408	438.779	24.1042
-38.0396	434.495	24.114
-38.0395	433.682	24.1238
-38.0376	432.199	24.1335
-38.037	432.951	24.1433
-38.0364	436.798	24.1531
-38.0359	438.304	24.1628
-38.0348	439.186	24.1726
-38.0328	430.611	24.1824
-38.0324	431.597	24.1921
-38.0317	432.678	24.2019
-38.0302	436.2406	24.21167
-38.0309	436.509	24.2214
-38.0295	436.216	24.2312
-38.02932	434.18	24.241
-38.0293	432.451	24.2507
-38.0264	430.937	24.2605
-38.027	431.971	24.2703
-38.0261	436.907	24.28
-38.0242	439.194	24.2898
-38.02383	432.825	24.2996
-38.0252	433.281	24.3093
-38.0228	429.34	24.3191
-38.021	433.312	24.3289
-38.02158	436.571	24.3386
-38.0203	434.187	24.3484
-38.0198	438.583	24.3582
-38.0187	435.542	24.36792
-38.0174	432.517	24.3777
-38.0171	430.327	24.3875
-38.0164	429.456	24.3972
-38.0147	438.19	24.407
-38.0144	437.794	24.4167
-38.0136	434.535	24.4265
-38.0138	431.841	24.4363
-38.0124	430.651	24.446
-38.0116	432.465	24.4558
-38.0106	433.01	24.4656
-38.0107	436.658	24.4753
-38.0089	439.018	24.4851
-38.0074	434.036	24.4949
-38.0067	431.332	24.5046
-38.0078	427.782	24.5144
-38.0064	433.455	24.52417
-38.0053	437.184	24.5339
-38.0041	438.729	24.5437
-38.0038	434.306	24.5535
-38.0025	430.4549	24.5632
-38.0019	430.138	24.573
-38.0006	430.425	24.5828
-38	435.519	24.5925
-38.0013	436.517	24.6023
-37.9982	438.427	24.6121
-37.9979	431.832	24.6218
-37.9971	427.926	24.6316
-37.9963	431.087	24.6414
-37.9957	435.003	24.6511
-37.9942	439.285	24.6609
-37.993	435.425	24.6707
-37.9929	432.338	24.68042
-37.9914	432.233	24.6902
-37.9914	428.727	24.7
-37.9913	434.4744	24.7097
-37.98988	435.295	24.7195
-37.9884	436.6098	24.7292
-37.9882	437.339	24.739
-37.987	428.961	24.7488
-37.986	430.682	24.7585
-37.9856	433.365	24.7683
-37.9845	434.239	24.7781
-37.9839	437.494	24.7878
-37.983	434.605	24.7976
-37.9813	432.315	24.8074
-37.9815	432.085	24.8171
-37.9812	430.473	24.8269
-37.9796	432.8613	24.83667
-37.978	436.93	24.8464
-37.9785	435.908	24.8562
-37.9772	432.613	24.866
-37.9764	430.677	24.8757
-37.9757	431.313	24.8855
-37.9741	431.686	24.8953
-37.9745	435.004	24.905
-37.9724	434.026	24.9148
-37.9729	434.072	24.9246
-37.9719	433.015	24.9343
-37.9709	431.326	24.9441
-37.9699	428.176	24.9539
-37.9689	432.713	24.9636
-37.9687	437.024	24.9734
-37.9684	433.7919	24.9832
-37.967	433.233	24.99292
-37.965	429.063	25.0027
-37.9648	430.125	25.0125
-37.9644	431.514	25.0222
-37.9634	432.657	25.032
-37.9622	434.2236	25.0417
-37.9622	435.454	25.0515
-37.9602	432.617	25.0613
-37.9611	429.211	25.071
-37.9592	426.914	25.0808
-37.9568	434.559	25.0906
-37.9578	434.042	25.1003
-37.95668	435.5072	25.1101
-37.9561	431.339	25.1199
-37.9554	429.247	25.1296
-37.9545	431.71	25.1394
-37.9528	429.215	25.14917
-37.9526	433.297	25.1589
-37.9512	436.285	25.1687
-37.9514	434.437	25.1785
-37.9506	429.409	25.1882
-37.949	425.5282	25.198
-37.9492	430.666	25.2078
-37.9477	436.729	25.2175
-37.9465	436.58	25.2273
-37.9466	432.5755	25.2371
-37.9454	429.617	25.2468
-37.9445	427.599	25.2566
-37.9438	426.218	25.2664
-37.9434	432.614	25.2761
-37.9419	435.273	25.2859
-37.9419	435.584	25.2957
-37.9398	431.367	25.30542
-37.9403	425.37	25.3152
-37.9381	427.264	25.325
-37.9369	431.503	25.3347
-37.9379	435.253	25.3445
-37.936	433.275	25.3542
-37.9376	429.297	25.364
-37.9348	428.8732	25.3738
-37.93396	425.598	25.3835
-37.9325	429.97	25.3933
-37.93169	431.674	25.4031
-37.9322	435.238	25.4128
-37.93129	434.9342	25.4226
-37.9295	427.815	25.4324
-37.9289	426.831	25.4421
-37.9281	429.644	25.4519
-37.9277	431.6347	25.46167
-37.9272	433.434	25.4714
-37.9254	430.259	25.4812
-37.926	432.319	25.491
-37.9242	429.721	25.5007
-37.9243	427.76	25.5105
-37.9234	430.183	25.5203
-37.92247	431.07	25.53
-37.9205	435.6149	25.5398
-37.92033	431.664	25.5496
-37.9193	428.488	25.5593
-37.9187	429.311	25.5691
-37.9188	428.932	25.5789
-37.9166	431.457	25.5886
-37.9164	430.9198	25.5984
-37.9153	433.362	25.6082
-37.9145	431.798	25.61792
-37.9143	429.276	25.6277
-37.9128	425.531	25.6375
-37.9115	427.849	25.6472
-37.912	433.951	25.657
-37.9113	432.758	25.6667
-37.9097	431.9093	25.6765
-37.9092	427.6355	25.6863
-37.9078	427.733	25.696
-37.9066	427.183	25.7058
-37.9073	428.8688	25.7156
-37.9057	433.133	25.7253
-37.9047	431.685	25.7351
-37.9035	429.921	25.7449
-37.904	425.193	25.7546
-37.90242	424.8468	25.7644
-37.9014	429.647	25.77417
-37.9002	431.272	25.7839
-37.8997	433.088	25.7937
-37.8983	431.464	25.8035
-37.8979	425.355	25.8132
-37.89782	427.778	25.823
-37.8972	425.133	25.8328
-37.8948	430.749	25.8425
-37.89463	433.889	25.8523
-37.8945	431.336	25.8621
-37.8933	427.28	25.8718
-37.8931	420.869	25.8816
-37.892	424.1438	25.8914
-37.8899	431.345	25.9011
-37.89	431.582	25.9109
-37.8892	429.829	25.9207
-37.8898	427.976	25.93042
-37.887	425.95	25.9402
-37.8861	423.084	25.95
-37.8863	426.374	25.9597
-37.8858	429.351	25.9695
-37.8836	431.624	25.9792
-37.8844	427.015	25.989
-37.8823	422.054	25.9988
-37.8819	422.987	26.0085
-37.8818	426.254	26.0183
-37.8813	431.006	26.0281
-37.8793	428.648	26.0378
-37.8787	425.753	26.0476
-37.8774	425.516	26.0574
-37.8767	421.554	26.0671
-37.877	423.028	26.0769
-37.8765	422.989	26.08667
-37.8742	427.811	26.0964
-37.8748	428.245	26.1062
-37.8727	420.528	26.116
-37.8718	421.553	26.1257
-37.8719	420.01	26.1355
-37.8708	423.441	26.1453
-37.8691	424.036	26.155
-37.8678	421.477	26.1648
-37.86816	422.276	26.1746
-37.8669	419.129	26.1843
-37.8661	413.753	26.1941
-37.8646	413.15	26.2039
-37.8641	412.183	26.2136
-37.8643	415.4494	26.2234
-37.8632	403.667	26.2332
-37.85836	-22.0744	26.24292
-37.8578	-36.852	26.2527
-37.8589	-23.3378	26.2625
-37.8577	-50.4084	26.2722
-37.8578	-43.59042	26.282
-37.8576	-41.998	26.2917
-37.856	-34.5338	26.3015
-37.8556	-44.24984	26.3113
-37.8543	-44.2221	26.321
-37.854	-46.5949	26.3308
-37.8536	-40.0466	26.3406
-37.85376	-38.6485	26.3503
-37.85194	-39.54438	26.3601
-37.8509	-44.65884	26.3699
-37.8504	-42.6143	26.3796
-37.8498	-46.2316	26.3894
-37.8484	-46.2013	26.39917
-37.848	-40.17942	26.4089
-37.8464	-38.9128	26.4187
-37.8466	-39.3512	26.4285
-37.8457	-46.0002	26.4382
-37.845	-46.7066	26.448
-37.8438	-43.2219	26.4578
-37.8433	-41.4192	26.4675
-37.8419	-37.554	26.4773
-37.8411	-40.7404	26.4871
-37.8405	-44.4907	26.4968
-37.841	-43.0976	26.5066
-37.8383	-48.1573	26.5164
-37.8381	-41.74	26.5261
-37.8369	-38.07478	26.5359
-37.8366	-39.18956	26.5457
-37.8358	-40.282	26.55542
-37.8344	-48.4425	26.5652
-37.8343	-46.5917	26.575
-37.8335	-41.704	26.5847
-37.8332	-39.2296	26.5945
-37.8329	-39.07	26.6042
-37.8312	-43.2208	26.614
-37.8307	-42.534	26.6238
-37.82996	-45.3223	26.6335
-37.82901	-44.8171	26.6433
-37.8269	-41.4105	26.6531
-37.82666	-38.161	26.6628
-37.8268	-39.4571	26.6726
-37.8256	-44.8153	26.6824
-37.8246	-46.1481	26.6921
-37.8236	-42.8515	26.7019
-37.8236	-39.71875	26.71167
-37.8216	-39.3509	26.7214
-37.8213	-41.1104	26.7312
-37.8217	-41.1295	26.741
-37.8201	-44.302	26.7507
-37.8194	-44.4427	26.7605
-37.8175	-43.9989	26.7703
-37.8175	-38.213	26.78
-37.8164	-38.48613	26.7898
-37.8158	-43.5038	26.7996
-37.8147	-43.2308	26.8093
-37.8151	-45.3055	26.8191
-37.8131	-42.6575	26.8289
-37.812	-40.7334	26.8386
-37.8114	-42.525	26.8484
-37.8114	-39.4271	26.8582
-37.8096	-40.3912	26.86792
-37.80854	-43.4571	26.8777
-37.8086	-43.9691	26.8875
-37.80793	-44.807	26.8972
-37.80788	-38.342	26.907
-37.8057	-40.8405	26.9167
-37.8056	-41.254	26.9265
-37.8043	-41.2553	26.9363
-37.804	-44.0792	26.946
-37.8029	-44.9363	26.9558
-37.80238	-43.5066	26.9656
-37.8018	-39.8918	26.9753
-37.8015	-36.13998	26.9851
-37.79911	-42.556	26.9949
-37.7986	-45.2612	27.0046
-37.7992	-45.1345	27.0144
-37.7981	-41.5681	27.02417
-37.79612	-39.1922	27.0339
-37.7951	-36.893	27.0437
-37.7952	-41.3042	27.0535
-37.7941	-43.7484	27.0632
-37.793	-44.6133	27.073
-37.7924	-45.4515	27.0828
-37.79084	-41.9702	27.0925
-37.7913	-37.3052	27.1023
-37.79	-37.81823	27.1121
-37.7885	-44.3531	27.1218
-37.7878	-47.5753	27.1316
-37.7876	-44.9775	27.1414
-37.7875	-40.8742	27.1511
-37.78614	-37.9618	27.1609
-37.7855	-39.8141	27.1707
-37.7836	-40.4884	27.18042
-37.7824	-44.1768	27.1902
-37.7821	-47.9312	27.2
-37.782	-41.299	27.2097
-37.7817	-38.222	27.2195
-37.7791	-36.94783	27.2292
-37.7797	-39.9638	27.239
-37.778	-46.348	27.2488
-37.7763	-46.693	27.2585
-37.7765	-42.7713	27.2683
-37.7752	-41.0804	27.2781
-37.7757	-39.9272	27.2878
-37.7735	-41.1339	27.2976
-37.7735	-42.2595	27.3074
-37.7726	-45.7314	27.3171
-37.7716	-45.9781	27.3269
-37.77037	-40.9343	27.33667
-37.7702	-38.41927	27.3464
-37.77	-38.9744	27.3562
-37.7689	-44.0152	27.366
-37.76675	-44.492	27.3757
-37.7668	-41.96328	27.3855
-37.7656	-42.1944	27.3953
-37.7659	-39.9328	27.405
-37.76598	-40.0361	27.4148
-37.7638	-39.0751	27.4246
-37.7634	-42.3397	27.4343
-37.7622	-45.5289	27.4441
-37.7617	-45.8529	27.4539
-37.7602	-40.67812	27.4636
-37.7592	-37.5004	27.4734
-37.7586	-41.3632	27.4832
-37.7581	-40.9177	27.49292
-37.7572	-44.0035	27.5027
-37.7563	-43.8212	27.5125
-37.7555	-41.6549	27.5222
-37.7545	-43.48444	27.532
-37.7542	-38.8641	27.5417
-37.7538	-38.3135	27.5515
-37.7525	-41.7171	27.5613
-37.7529	-44.9843	27.571
-37.751	-46.9526	27.5808
-37.7502	-37.7539	27.5906
-37.7485	-41.0461	27.6003
-37.7492	-37.8162	27.6101
-37.7477	-39.7837	27.6199
-37.7473	-44.3302	27.6296
-37.7463	-41.4702	27.6394
-37.7457	-46.3652	27.64917
-37.7444	-39.1106	27.6589
-37.7436	-35.7429	27.6687
-37.7436	-40.5002	27.6785
-37.742	-42.8966	27.6882
-37.7413	-46.2557	27.698
-37.7409	-42.16333	27.7078
-37.7389	-38.8846	27.7175
-37.738	-37.4125	27.7273
-37.7364	-40.89	27.7371
-37.737	-42.2907	27.7468
-37.7356	-44.5892	27.7566
-37.7358	-45.8517	27.7664
-37.7335	-42.6791	27.7761
-37.7328	-37.2458	27.7859
-37.7345	-36.2403	27.7957
-37.7328	-42.2426	27.80542
-37.7312	-46.2547	27.8152
-37.7309	-45.8821	27.825
-37.7302	-40.80114	27.8347
-37.7288	-38.1784	27.8445
-37.7281	-38.5741	27.8542
-37.7272	-40.0868	27.864
-37.7264	-41.3956	27.8738
-37.72575	-48.9158	27.8835
-37.7249	-41.08	27.8933
-37.7235	-39.7433	27.9031
-37.7228	-36.95	27.9128
-37.7211	-38.5015	27.9226
-37.72139	-44.1559	27.9324
-37.7213	-43.51556	27.9421
-37.7208	-43.3289	27.9519
-37.7195	-40.5347	27.96167
-37.7178	-38.1047	27.9714
-37.7159	-39.9778	27.9812
-37.7179	-39.6821	27.991
-37.7162	-43.8932	28.0007
-37.7145	-45.4637	28.0105
-37.7143	-42.4132	28.0203
-37.7132	-40.5768	28.03
-37.7122	-37.3072	28.0398
-37.7128	-43.2051	28.0496
-37.7109	-42.9684	28.0593
-37.7089	-42.4831	28.0691
-37.7092	-43.0729	28.0789
-37.7076	-41.6823	28.0886
-37.7081	-39.9827	28.0984