File: data/processed_data_files/tensile/0.254_hd_uprint_typeiv_090_r(7).dat
MTS793|BTW|ENU|1|2|.|/|:|1|0|0|A

Data Header:			0.254_hd_uprint_typeiv_090_r0			Time:	20.0183	s	4/13/2019 11:11:39 PM
Data Acquisition:	Timed
Station Name:	ft40.cfg
Test File Name:	monotonic_0.2540_typeiv_solid_4545_uprint.tst
Displacement	Force	Running Time
mm	N	s
-40.04248	-158.146	0.0229492
-40.0431	-159.96	0.0424805
-40.0438	-167.377	0.0620117
-40.0424	-162.369	0.081543
-40.0406	-158.988	0.101074
-40.03817	-160.523	0.120605
-40.0353	-160.073	0.140137
-40.0357	-160.369	0.159668
-40.0332	-156.172	0.179199
-40.032	-157.9	0.19873
-40.0307	-154.151	0.218262
-40.0288	-152.502	0.237793
-40.0276	-154.535	0.257324
-40.0258	-154.185	0.276855
-40.0243	-149.057	0.296387
-40.0222	-152.5905	0.315918
-40.0192	-150.242	0.335449
-40.019	-144.7225	0.35498
-40.0173	-146.3826	0.374512
-40.01466	-153.107	0.394043
-40.0129	-141.366	0.413574
-40.0123	-144.083	0.433105
-40.0107	-145.484	0.452637
-40.0093	-140.896	0.472168
-40.0078	-138.593	0.491699
-40.0049	-144.946	0.51123
-40.0028	-136.582	0.530762
-40.0029	-136.991	0.550293
-40.0012	-139.838	0.569824
-39.9998	-137.686	0.589355
-39.9986	-131.638	0.608887
-39.9947	-138.787	0.628418
-39.9955	-136.295	0.647949
-39.9924	-132.248	0.66748
-39.9921	-132.303	0.687012
-39.9894	-131.682	0.706543
-39.988	-130.144	0.726074
-39.986	-130.739	0.745605
-39.98489	-133.087	0.765137
-39.9835	-124.755	0.784668
-39.98185	-124.684	0.804199
-39.9794	-127.848	0.82373
-39.9791	-126.501	0.843262
-39.9762	-120.192	0.862793
-39.9736	-124.12	0.882324
-39.97337	-121.677	0.901855
-39.9719	-117.866	0.921387
-39.9702	-120.612	0.940918
-39.96854	-123.084	0.960449
-39.9671	-113.295	0.97998
-39.96497	-118.309	0.999512
-39.9627	-118.331	1.019043
-39.9623	-110.625	1.03857
-39.959	-112.027	1.05811
-39.9581	-117.903	1.07764
-39.9571	-109.9409	1.097168
-39.9553	-110.036	1.1167
-39.9545	-112.906	1.13623
-39.9532	-108.21	1.15576
-39.9504	-105.903	1.175293
-39.9499	-113.062	1.19482
-39.9469	-105.644	1.21436
-39.9452	-101.436	1.23389
-39.9439	-107.153	1.253418
-39.9433	-104.867	1.27295
-39.9407	-100.732	1.29248
-39.939	-104.1102	1.31201
-39.9374	-103.968	1.331543
-39.9362	-97.9587	1.35107
-39.9338	-98.4286	1.37061
-39.9329	-99.6482	1.39014
-39.93148	-97.1054	1.409668
-39.9295	-95.6771	1.4292
-39.9287	-98.9988	1.44873
-39.9275	-91.7727	1.46826
-39.924	-90.1282	1.487793
-39.9228	-95.6515	1.50732
-39.9212	-96.6679	1.52686
-39.9201	-86.0785	1.54639
-39.9176	-90.8363	1.565918
-39.9164	-89.3129	1.58545
-39.9146	-84.9255	1.60498
-39.9131	-85.6954	1.62451
-39.9114	-90.4382	1.644043
-39.9097	-80.9334	1.66357
-39.90781	-84.0215	1.68311
-39.9065	-86.214	1.70264
-39.90416	-79.1657	1.722168
-39.9031	-79.6915	1.7417
-39.9023	-86.2932	1.76123
-39.8997	-78.2655	1.78076
-39.8981	-77.1425	1.800293
-39.897	-78.8117	1.81982
-39.8951	-76.136	1.83936
-39.8938	-72.3736	1.85889
-39.8941	-77.9029	1.878418
-39.8892	-73.23114	1.89795
-39.8882	-70.2734	1.91748
-39.8867	-71.6133	1.93701
-39.8853	-71.015	1.956543
-39.8841	-68.4856	1.97607
-39.8818	-66.74	1.99561
-39.8805	-71.3469	2.01514
-39.8794	-64.14782	2.034668
-39.8772	-63.8357	2.0542
-39.8753	-66.1975	2.07373
-39.8727	-66.0588	2.09326
-39.8733	-61.0207	2.112793
-39.8712	-65.2081	2.13232
-39.8694	-59.9274	2.15186
-39.8675	-57.269	2.17139
-39.86557	-59.0622	2.190918
-39.86459	-64.0019	2.21045
-39.8635	-51.1489	2.22998
-39.8606	-57.2455	2.24951
-39.8593	-55.9914	2.269043
-39.8585	-52.48196	2.28857
-39.8564	-52.1299	2.30811
-39.85413	-57.4568	2.32764
-39.8517	-47.4458	2.347168
-39.8507	-48.9171	2.3667
-39.8483	-53.6716	2.38623
-39.8473	-46.9656	2.40576
-39.8464	-44.8754	2.425293
-39.845	-52.3585	2.44482
-39.8427	-47.7205	2.46436
-39.8407	-41.2524	2.48389
-39.8407	-45.59383	2.503418
-39.8391	-42.38855	2.52295
-39.8372	-43.458	2.54248
-39.83429	-43.5304	2.56201
-39.8326	-42.1213	2.581543
-39.8319	-35.1871	2.60107
-39.83	-40.2222	2.62061
-39.8282	-39.6972	2.64014
-39.8254	-37.1815	2.659668
-39.8254	-32.49556	2.6792
-39.8243	-38.2555	2.69873
-39.8218	-33.7169	2.71826
-39.82003	-29.2959	2.737793
-39.819	-31.8407	2.75732
-39.8162	-33.4955	2.77686
-39.8152	-26.3084	2.79639
-39.8143	-31.7798	2.815918
-39.8117	-28.3802	2.83545
-39.8097	-23.2642	2.85498
-39.8091	-26.0699	2.87451
-39.8064	-33.2232	2.894043
-39.8056	-20.5387	2.91357
-39.8041	-22.1934	2.93311
-39.80265	-24.7255	2.95264
-39.8001	-20.4018	2.972168
-39.7987	-19.2877	2.9917
-39.7964	-25.05414	3.01123
-39.7959	-19.0238	3.03076
-39.79417	-16.9666	3.050293
-39.7934	-20.8604	3.06982
-39.7913	-16.2115	3.08936
-39.78949	-13.278	3.10889
-39.7871	-17.0302	3.128418
-39.7857	-17.0736	3.14795
-39.7851	-10.078	3.16748
-39.7833	-10.928	3.18701
-39.7806	-11.2619	3.206543
-39.7803	-11.1786	3.22607
-39.7784	-8.7847	3.24561
-39.7766	-12.2786	3.26514
-39.774	-4.938529	3.284668
-39.7736	-5.298346	3.3042
-39.7727	-8.09253	3.32373
-39.77	-7.43177	3.34326
-39.7688	0.82641	3.362793
-39.7676	-6.03824	3.38232
-39.7649	-2.71131	3.40186
-39.7622	2.7634	3.42139
-39.762	0.0141764	3.440918
-39.7596	-3.06184	3.46045
-39.7587	5.97065	3.47998
-39.7572	2.005089	3.49951
-39.7551	1.6365	3.519043
-39.7544	8.36381	3.53857
-39.7522	5.843483	3.55811
-39.7502	0.579462	3.57764
-39.7475	8.91571	3.597168
-39.7468	10.64068	3.6167
-39.745	6.80379	3.63623
-39.7441	10.5052	3.65576
-39.7423	11.44146	3.675293
-39.73962	7.5253	3.69482
-39.739	12.81872	3.71436
-39.7383	18.4786	3.73389
-39.7355	12.6015	3.753418
-39.7342	15.9177	3.77295
-39.7314	18.4117	3.79248
-39.7309	17.401	3.81201
-39.7296	13.073	3.831543
-39.7275	22.2794	3.85107
-39.7257	22.6663	3.87061
-39.7244	19.97312	3.89014
-39.7227	20.4835	3.909668
-39.72	26.0247	3.9292
-39.7195	21.3635	3.94873
-39.7179	26.5621	3.96826
-39.7173	27.4778	3.987793
-39.71534	24.3186	4.00732
-39.7123	23.8116	4.02686
-39.711	34.3474	4.04639
-39.7096	28.1959	4.065918
-39.70779	30.043	4.08545
-39.7074	34.4329	4.10498
-39.7035	32.985	4.12451
-39.7031	28.8671	4.144043
-39.7019	37.1382	4.16357
-39.7001	35.0886	4.18311
-39.6975	31.7955	4.20264
-39.6964	39.4005	4.222168
-39.694	38.3342	4.2417
-39.693	33.0406	4.26123
-39.6911	40.3888	4.28076
-39.6903	43.9622	4.300293
-39.6885	41.2045	4.31982
-39.6865	43.7419	4.33936
-39.6848	44.3184	4.35889
-39.6842	43.1881	4.378418
-39.6816	45.91486	4.39795
-39.67984	50.4058	4.41748
-39.67849	48.0155	4.43701
-39.6766	47.865	4.456543
-39.6754	49.9965	4.47607
-39.6745	52.5868	4.49561
-39.6722	47.15461	4.51514
-39.6709	55.5689	4.534668
-39.6689	57.3184	4.5542
-39.6673	51.41983	4.57373
-39.66436	51.8816	4.59326
-39.6643	60.2094	4.612793
-39.6627	55.5608	4.63232
-39.6606	58.8169	4.65186
-39.6594	63.9883	4.67139
-39.6575	58.4927	4.690918
-39.6564	56.676	4.71045
-39.6545	67.6841	4.72998
-39.65276	62.4627	4.74951
-39.6513	60.3093	4.769043
-39.6505	67.7688	4.78857
-39.6485	65.6353	4.80811
-39.6454	61.0621	4.82764
-39.6444	68.8199	4.847168
-39.6426	69.0802	4.8667
-39.64106	64.7986	4.88623
-39.63887	72.2881	4.90576
-39.6379	71.3686	4.925293
-39.6362	68.1512	4.94482
-39.6354	70.86554	4.96436
-39.6342	77.2941	4.98389
-39.6324	73.9027	5.003418
-39.6296	73.3433	5.02295
-39.6277	75.7769	5.04248
-39.6271	78.4962	5.06201
-39.6252	75.7527	5.081543
-39.6226	83.5158	5.10107
-39.622	79.8508	5.12061
-39.6193	79.3554	5.14014
-39.6177	80.6622	5.159668
-39.6174	87.9544	5.1792
-39.6155	79.7099	5.19873
-39.6136	84.345	5.21826
-39.6118	89.6839	5.237793
-39.6097	85.0971	5.25732
-39.60775	82.857	5.27686
-39.6077	90.7645	5.29639
-39.6057	87.2288	5.315918
-39.6031	88.9047	5.33545
-39.60144	94.3601	5.35498
-39.6006	89.8895	5.37451
-39.5997	86.5139	5.394043
-39.5971	96.55864	5.41357
-39.5953	97.2591	5.43311
-39.594	92.1732	5.45264
-39.5922	98.2872	5.472168
-39.5908	97.7357	5.4917
-39.5893	94.9126	5.51123
-39.5877	100.027	5.53076
-39.5858	102.314	5.550293
-39.5844	97.0506	5.56982
-39.5832	102.71	5.58936
-39.5802	103.87	5.60889
-39.5788	102.3479	5.628418
-39.5783	101.924	5.64795
-39.5761	110.599	5.66748
-39.5748	106.593	5.68701
-39.5732	104.322	5.706543
-39.5712	105.319	5.72607
-39.5696	111.356	5.74561
-39.5695	106.344	5.76514
-39.567	112.402	5.784668
-39.5655	112.635	5.8042
-39.56245	110.031	5.82373
-39.5614	111.883	5.84326
-39.5602	117.974	5.862793
-39.5576	112.449	5.88232
-39.5565	113.984	5.90186
-39.55542	119.895	5.92139
-39.5532	116.871	5.940918
-39.5506	114.341	5.96045
-39.5503	121.665	5.97998
-39.5497	120.022	5.99951
-39.5467	119.308	6.019043
-39.5461	125.33	6.03857
-39.5435	121.366	6.05811
-39.542	118.571	6.07764
-39.5406	128.073	6.097168
-39.539	127.368	6.1167
-39.5371	122.217	6.13623
-39.5352	130.503	6.15576
-39.5348	128.269	6.175293
-39.5325	128.429	6.19482
-39.5302	129.611	6.21436
-39.529	134.852	6.23389
-39.5273	130.13	6.253418
-39.5257	133.677	6.27295
-39.5239	135.325	6.29248
-39.5221	135.909	6.31201
-39.5213	131.677	6.331543
-39.518	139.988	6.35107
-39.5173	139.583	6.37061
-39.5164	136.683	6.39014
-39.5139	137.157	6.409668
-39.5127	143.212	6.4292
-39.5106	138.428	6.44873
-39.51049	143.268	6.46826
-39.5075	144.118	6.487793
-39.50679	139.875	6.50732
-39.5049	142.041	6.52686
-39.5019	151.004	6.54639
-39.5014	144.87	6.565918
-39.5003	144.39	6.58545
-39.4981	152.438	6.60498
-39.4957	149.612	6.62451
-39.49527	146.126	6.644043
-39.4929	151.033	6.66357
-39.4929	152.68	6.68311
-39.4899	148.9249	6.70264
-39.4879	156.503	6.722168
-39.4868	154.188	6.7417
-39.48455	151.173	6.76123
-39.4836	156.018	6.78076
-39.4815	161.513	6.800293
-39.4799	155.031	6.81982
-39.4777	159.962	6.83936
-39.476	158.688	6.85889
-39.4745	159.67	6.878418
-39.4748	158.0136	6.89795
-39.4727	165.714	6.91748
-39.4699	162.403	6.93701
-39.4687	164.3	6.956543
-39.4673	165.829	6.97607
-39.4657	169.288	6.99561
-39.4638	163.52	7.01514
-39.4616	168.7336	7.034668
-39.4605	171.836	7.0542
-39.4589	166.088	7.07373
-39.4584	168.682	7.09326
-39.455	175.508	7.112793
-39.4545	170.236	7.13232
-39.4525	171.584	7.15186
-39.4512	178.261	7.17139
-39.4496	171.3494	7.190918
-39.4478	172.07	7.21045
-39.4453	181.322	7.22998
-39.4439	177.8625	7.24951
-39.4422	172.819	7.269043
-39.4412	182.377	7.28857
-39.43948	178.9743	7.30811
-39.4378	177.938	7.32764
-39.4352	183.244	7.347168
-39.4342	184.734	7.3667
-39.43346	181.9583	7.38623
-39.4317	185.157	7.40576
-39.4293	184.241	7.425293
-39.4282	183.367	7.44482
-39.4266	185.563	7.46436
-39.4243	192.826	7.48389
-39.4232	186.5554	7.503418
-39.4214	188.596	7.52295
-39.4207	190.493	7.54248
-39.4172	192.504	7.56201
-39.4169	187.781	7.581543
-39.415	194.874	7.60107
-39.4135	193.981	7.62061
-39.4115	190.861	7.64014
-39.4109	194.279	7.659668
-39.4086	199.734	7.6792
-39.4065	193.463	7.69873
-39.4059	197.189	7.71826
-39.4028	203.851	7.737793
-39.4014	196.641	7.75732
-39.4014	196.302	7.77686
-39.3985	203.432	7.79639
-39.3973	202.511	7.815918
-39.3959	201.034	7.83545
-39.3936	208.025	7.85498
-39.39196	202.136	7.87451
-39.3908	203.404	7.894043
-39.3892	209.586	7.91357
-39.38744	210.711	7.93311
-39.3865	204.785	7.95264
-39.38382	213.151	7.972168
-39.3837	209.6246	7.9917
-39.3811	209.898	8.01123
-39.3789	210.898	8.03076
-39.3781	216.652	8.050293
-39.37516	212.85	8.06982
-39.3743	215.901	8.08936
-39.3712	214.826	8.10889
-39.3712	215.788	8.128418
-39.36916	214.913	8.14795
-39.3669	222.775	8.16748
-39.3663	220.3918	8.18701
-39.3648	216.545	8.206543
-39.3624	220.684	8.22607
-39.3617	223.43	8.24561
-39.3592	218.684	8.26514
-39.3576	224.1851	8.284668
-39.3561	226.5273	8.3042
-39.356	220.007	8.32373
-39.3525	226.231	8.34326
-39.3519	230.025	8.362793
-39.3489	225.843	8.38232
-39.3492	227.833	8.40186
-39.3473	233.471	8.42139
-39.3449	226.772	8.440918
-39.3431	226.677	8.46045
-39.3426	233.872	8.47998
-39.34174	233.207	8.49951
-39.3386	232.651	8.519043
-39.337	237.872	8.53857
-39.3348	233.381	8.55811
-39.3339	232.731	8.57764
-39.3325	237.815	8.597168
-39.3311	238.755	8.6167
-39.3284	234.378	8.63623
-39.3267	240.409	8.65576
-39.3264	239.724	8.675293
-39.3244	240.7117	8.69482
-39.3223	240.093	8.71436
-39.3209	246.009	8.73389
-39.3198	243.105	8.753418
-39.3176	242.759	8.77295
-39.315	244.881	8.79248
-39.3143	245.769	8.81201
-39.3127	243.876	8.831543
-39.3104	251.668	8.85107
-39.3088	251.136	8.87061
-39.30666	245.233	8.89014
-39.306	248.694	8.909668
-39.3032	253.927	8.9292
-39.3027	249.2715	8.94873
-39.301	251.208	8.96826
-39.30003	256.959	8.987793
-39.2976	250.402	9.00732
-39.2961	255.16	9.02686
-39.2956	259.536	9.04639
-39.2924	255.591	9.065918
-39.2913	255.451	9.08545
-39.2904	263.974	9.10498
-39.2869	258.267	9.12451
-39.2867	257.926	9.144043
-39.2859	262.7894	9.16357
-39.2837	264.706	9.18311
-39.2814	260.222	9.20264
-39.2798	266.366	9.222168
-39.2792	263.491	9.2417
-39.2766	264.705	9.26123
-39.27533	268.051	9.28076
-39.2741	272.274	9.300293
-39.272	266.525	9.31982
-39.2705	267.669	9.33936
-39.2694	270.691	9.35889
-39.2655	271.602	9.378418
-39.26535	268.665	9.39795
-39.2638	275.315	9.41748
-39.2626	272.351	9.43701
-39.26141	271.698	9.456543
-39.2585	275.748	9.47607
-39.2573	277.484	9.49561
-39.2554	273.602	9.51514
-39.2544	279.674	9.534668
-39.2527	281.722	9.5542
-39.2504	274.165	9.57373
-39.2485	277.878	9.59326
-39.2481	284.995	9.612793
-39.2449	281.522	9.63232
-39.2451	280.15	9.65186
-39.2416	286.053	9.67139
-39.2414	279.814	9.690918
-39.2383	282.902	9.71045
-39.2383	287.891	9.72998
-39.2363	286.175	9.74951
-39.2333	283.058	9.769043
-39.2333	293.16	9.78857
-39.23167	287.625	9.80811
-39.2288	286.7	9.82764
-39.2292	290.738	9.847168
-39.2267	295.208	9.8667
-39.2255	289.016	9.88623
-39.2242	293.33	9.90576
-39.2209	292.898	9.925293
-39.2188	294.3584	9.94482
-39.2182	294.434	9.96436
-39.2171	300.376	9.98389
-39.215	295.235	10.0034
-39.2138	296.024	10.0229
-39.2116	298.801	10.04248
-39.2109	301.312	10.062
-39.2087	295.924	10.0815
-39.207	302.609	10.1011
-39.2051	303.67	10.1206
-39.2039	298.407	10.1401
-39.20274	301.98	10.1597
-39.2006	305.242	10.1792
-39.1987	301.917	10.19873
-39.19664	305.414	10.2183
-39.196	310.919	10.2378
-39.1934	302.808	10.2573
-39.1926	305.394	10.2769
-39.1897	311.62	10.2964
-39.1886	310.0318	10.3159
-39.18631	308.119	10.3354
-39.18631	315.995	10.35498
-39.1853	308.35	10.3745
-39.1823	311.647	10.394
-39.1797	315.181	10.4136
-39.1787	316.3222	10.4331
-39.1782	312.888	10.4526
-39.176	319.761	10.4722
-39.1746	316.6636	10.4917
-39.1728	316.253	10.51123
-39.1702	316.648	10.5308
-39.1708	323.67	10.5503
-39.1689	320.205	10.5698
-39.1654	321.743	10.5894
-39.1646	320.773	10.6089
-39.1621	322.081	10.6284
-39.16095	321.262	10.6479
-39.1603	327.445	10.66748
-39.158	324.967	10.687
-39.1559	319.902	10.7065
-39.1555	325.51	10.7261
-39.1525	329.048	10.7456
-39.1523	324.314	10.7651
-39.1494	329.253	10.7847
-39.14772	332.013	10.8042
-39.1462	325.421	10.82373
-39.1448	331.309	10.8433
-39.1438	333.166	10.8628
-39.1431	329.361	10.8823
-39.1405	332.402	10.9019
-39.1389	338.602	10.9214
-39.1366	330.461	10.9409
-39.1354	334.189	10.9604
-39.1333	337.859	10.97998
-39.1313	339.443	10.9995
-39.1304	336.3598	11.019
-39.1283	341.251	11.0386
-39.1269	336.665	11.0581
-39.1256	338.189	11.0776
-39.1238	341.127	11.0972
-39.1225	344.57	11.1167
-39.121	339.31	11.13623
-39.1183	344.801	11.1558
-39.1161	344.118	11.1753
-39.1163	343.479	11.1948
-39.1135	342.662	11.2144
-39.1122	349.732	11.2339
-39.1109	345.876	11.2534
-39.1091	344.922	11.2729
-39.1077	348.616	11.29248
-39.1054	348.884	11.312
-39.104	348.641	11.3315
-39.1027	354.47	11.3511
-39.1007	351.975	11.3706
-39.1005	345.428	11.3901
-39.09684	353.445	11.4097
-39.0959	355.524	11.4292
-39.09494	351.536	11.44873
-39.0927	353.608	11.4683
-39.0923	359.855	11.4878
-39.0898	351.298	11.5073
-39.0878	357.133	11.5269
-39.08593	360.437	11.5464
-39.08437	356.952	11.5659
-39.0824	358.013	11.5854
-39.0812	365.984	11.60498
-39.0793	357.344	11.6245
-39.079	359.526	11.644
-39.0773	363.911	11.6636
-39.0745	364.807	11.6831
-39.073	361.589	11.7026
-39.072	365.4	11.7222
-39.0712	363.195	11.7417
-39.0684	363.908	11.76123
-39.0666	366.791	11.7808
-39.0659	369.717	11.8003
-39.0636	366.265	11.8198
-39.06123	367.302	11.8394
-39.0606	370.098	11.8589
-39.0587	368.609	11.8784
-39.0568	366.362	11.8979
-39.0554	374.734	11.91748
-39.0535	372.861	11.937
-39.0528	367.91	11.9565
-39.0501	373.963	11.9761
-39.0494	373.511	11.9956
-39.047	372.517	12.0151
-39.04541	377.111	12.0347
-39.043	378.888	12.0542
-39.0419	370.024	12.07373
-39.0414	378.246	12.0933
-39.0386	382.878	12.1128
-39.0375	378.978	12.1323
-39.0361	379.4292	12.1519
-39.0342	383.474	12.1714
-39.0337	375.589	12.1909
-39.0309	381.276	12.2104
-39.0298	383.486	12.22998
-39.0274	382.448	12.2495
-39.0262	381.066	12.269
-39.0244	386.6991	12.2886
-39.0224	381.974	12.3081
-39.021	383.4054	12.3276
-39.0207	387.287	12.3472
-39.0182	389.662	12.3667
-39.01593	384.23	12.38623
-39.0149	387.991	12.4058
-39.013	387.89	12.4253
-39.0111	387.942	12.4448
-39.01	389.612	12.4644
-39.0091	392.443	12.4839
-39.0055	389.628	12.5034
-39.0051	387.014	12.5229
-39.0037	394.2843	12.54248
-39.0014	393.393	12.562
-39.0008	390.501	12.5815
-38.9986	395.343	12.6011
-38.99604	398.593	12.6206
-38.99522	390.1687	12.6401
-38.994	396.267	12.6597
-38.9922	397.1218	12.6792
-38.9899	395.545	12.69873
-38.988	399.353	12.7183
-38.9869	402.786	12.7378
-38.9856	392.348	12.7573
-38.9847	398.64	12.7769
-38.9831	402.894	12.7964
-38.981	398.969	12.8159
-38.9785	399.325	12.8354
-38.9772	406.042	12.85498
-38.97562	399.278	12.8745
-38.9728	401.794	12.894
-38.9726	404.539	12.9136
-38.9714	406.688	12.9331
-38.9693	402.626	12.9526
-38.9679	407.5712	12.9722
-38.9651	405.394	12.9917
-38.9635	400.83	13.01123
-38.9634	406.009	13.0308
-38.9606	410.817	13.0503
-38.9606	406.585	13.0698
-38.9572	405.9425	13.0894
-38.957	409.595	13.1089
-38.95496	409.716	13.1284
-38.953	410.21	13.1479
-38.9505	414.354	13.16748
-38.9503	411.181	13.187
-38.9483	406.918	13.2065
-38.9462	414.899	13.2261
-38.9443	413.722	13.2456
-38.9446	411.293	13.2651
-38.9417	413.4819	13.2847
-38.9395	418.542	13.3042
-38.9381	409.32	13.32373
-38.9365	416.526	13.3433
-38.93557	418.2251	13.3628
-38.9342	413.915	13.3823
-38.9318	417.877	13.4019
-38.9299	420.6636	13.4214
-38.929	412.035	13.4409
-38.9282	417.561	13.4604
-38.9249	423.0087	13.47998
-38.9248	420.5983	13.4995
-38.9228	417.217	13.519
-38.9206	421.743	13.5386
-38.9192	419.846	13.5581
-38.9168	420.037	13.5776
-38.9154	423.353	13.5972
-38.9141	423.558	13.6167
-38.9118	420.761	13.63623
-38.9112	423.691	13.6558
-38.90947	425.122	13.6753
-38.9071	421.442	13.6948
-38.90493	423.156	13.7144
-38.9042	428.495	13.7339
-38.9024	424.678	13.7534
-38.9015	422.211	13.7729
-38.8995	427.083	13.79248
-38.8982	424.915	13.812
-38.8963	425.245	13.8315
-38.8941	430.525	13.8511
-38.8942	428.5	13.8706
-38.8916	421.83	13.8901
-38.88908	431.042	13.9097
-38.8876	431.307	13.9292
-38.8877	426.689	13.94873
-38.8837	430.3	13.9683
-38.88253	433.212	13.9878
-38.8813	424.988	14.0073
-38.8794	431.517	14.0269
-38.8777	433.952	14.0464
-38.8766	429.745	14.0659
-38.8751	431.357	14.0854
-38.874	436.768	14.10498
-38.8726	427.511	14.1245
-38.8692	431.001	14.144
-38.8689	436.923	14.1636
-38.8673	436.342	14.1831
-38.86496	431.889	14.2026
-38.86282	435.12	14.2222
-38.861	435.363	14.2417
-38.8603	434.3273	14.26123
-38.8586	435.882	14.2808
-38.8573	438.269	14.3003
-38.8544	433.952	14.3198
-38.8533	433.572	14.3394
-38.8521	439.718	14.3589
-38.8505	434.602	14.3784
-38.8486	435.8349	14.3979
-38.8487	441.3941	14.41748
-38.8458	439.636	14.437
-38.84338	432.353	14.4565
-38.842	442.567	14.4761
-38.8406	439.2103	14.4956
-38.83889	437.48	14.5151
-38.8364	442.183	14.5347
-38.8356	441.363	14.5542
-38.8327	431.818	14.57373
-38.8326	441.5563	14.5933
-38.8319	443.6344	14.6128
-38.8294	439.481	14.6323
-38.8264	440.338	14.6519
-38.82618	446.044	14.6714
-38.8247	437.844	14.6909
-38.8236	441.381	14.7104
-38.8206	443.821	14.72998
-38.8204	442.154	14.7495
-38.8175	440.543	14.769
-38.81638	445.649	14.7886
-38.8157	439.238	14.8081
-38.81329	438.906	14.8276
-38.8123	444.931	14.8472
-38.8096	446.1557	14.8667
-38.8091	440.776	14.88623
-38.8063	441.931	14.9058
-38.80526	444.917	14.9253
-38.803	442.323	14.9448
-38.8003	444.328	14.9644
-38.8002	447.653	14.9839
-38.7984	443.1983	15.0034
-38.7967	441.01	15.0229
-38.7952	448.906	15.04248
-38.7929	444.3526	15.062
-38.7927	441.571	15.0815
-38.7901	449.082	15.1011
-38.7887	449.434	15.1206
-38.7865	439.065	15.1401
-38.7861	448.088	15.1597
-38.7838	446.203	15.1792
-38.7812	445.2663	15.19873
-38.7809	448.274	15.2183
-38.7783	448.77	15.2378
-38.7764	440.411	15.2573
-38.7758	447.2919	15.2769
-38.7736	449.713	15.2964
-38.7731	445.691	15.3159
-38.7714	444.581	15.3354
-38.7693	450.113	15.35498
-38.7673	444.068	15.3745
-38.7652	443.877	15.394
-38.7648	448.749	15.4136
-38.7637	446.138	15.4331
-38.7616	444.716	15.4526
-38.7597	448.249	15.4722
-38.7573	447.311	15.4917
-38.7566	443.747	15.51123
-38.7549	448.894	15.5308
-38.7529	451.7074	15.5503
-38.7511	446.497	15.5698
-38.7491	442.4776	15.5894
-38.74823	449.52	15.6089
-38.7462	445.165	15.6284
-38.7445	447.2807	15.6479
-38.7434	449.842	15.66748
-38.7405	447.189	15.687
-38.7403	440.85	15.7065
-38.7387	452.556	15.7261
-38.7365	447.314	15.7456
-38.7338	443.697	15.7651
-38.7339	449.355	15.7847
-38.7319	451.127	15.8042
-38.7306	441.342	15.82373
-38.7282	449.42	15.8433
-38.7271	448.891	15.8628
-38.7256	445.646	15.8823
-38.7241	446.578	15.9019
-38.7213	450.283	15.9214
-38.72073	442.131	15.9409
-38.7176	446.017	15.9604
-38.7173	451.5368	15.97998
-38.7156	447.757	15.9995
-38.7134	443.809	16.019
-38.71241	448.216	16.0386
-38.71	446.671	16.0581
-38.7078	444.8403	16.0776
-38.7071	447.2619	16.0972
-38.7065	447.284	16.1167
-38.7036	445.03	16.13623
-38.7023	446.09	16.1558
-38.7011	448.969	16.1753
-38.699	442.112	16.1948
-38.6982	446.463	16.2144
-38.6968	451.181	16.2339
-38.6953	446.336	16.2534
-38.6929	440.441	16.2729
-38.6905	451.286	16.29248
-38.6888	444.948	16.312
-38.68642	444.577	16.3315
-38.6873	448.451	16.3511
-38.685	447.432	16.3706
-38.6833	439.19	16.3901
-38.6824	450.267	16.4097
-38.6795	446.303	16.4292
-38.6781	441.995	16.44873
-38.6764	446.672	16.4683
-38.675	448.941	16.4878
-38.6723	441.49	16.5073
-38.6718	445.535	16.5269
-38.67	447.958	16.5464
-38.6683	445.134	16.5659
-38.6664	445.738	16.5854
-38.6653	446.528	16.60498
-38.6641	439.7157	16.6245
-38.6616	442.858	16.644
-38.6606	449.152	16.6636
-38.65712	445.845	16.6831
-38.6567	442.47	16.7026
-38.6559	443.6637	16.7222
-38.6528	445.869	16.7417
-38.6524	440.322	16.76123
-38.6514	444.383	16.7808
-38.64883	446.748	16.8003
-38.6468	441.717	16.8198
-38.6447	438.805	16.8394
-38.6436	445.874	16.8589
-38.6426	439.946	16.8784
-38.6402	441.739	16.8979
-38.6383	447.4357	16.91748
-38.6373	444.413	16.937
-38.6355	435.569	16.9565
-38.6335	446.853	16.9761
-38.6324	442.899	16.9956
-38.6303	440.624	17.0151
-38.6291	444.996	17.0347
-38.6276	444.067	17.0542
-38.6272	436.8754	17.07373
-38.6235	444.376	17.0933
-38.6226	444.785	17.1128
-38.6217	438.2247	17.1323
-38.6198	441.136	17.1519
-38.6168	443.95	17.1714
-38.6173	437.383	17.1909
-38.6147	438.9635	17.2104
-38.6135	444.382	17.22998
-38.6116	440.472	17.2495
-38.6096	439.461	17.269
-38.607	442.777	17.2886
-38.6069	440.491	17.3081
-38.6051	435.163	17.3276
-38.6035	443.118	17.3472
-38.6013	443.181	17.3667
-38.5987	437.356	17.38623
-38.599	437.82	17.4058
-38.5963	444.8378	17.4253
-38.59436	437.093	17.4448
-38.5932	438.885	17.4644
-38.5916	443.077	17.4839
-38.5901	440.0574	17.5034
-38.5891	436.206	17.5229
-38.5868	444.621	17.54248
-38.5849	437.171	17.562
-38.583	437.604	17.5815
-38.58157	442.605	17.6011
-38.5809	440.9389	17.6206
-38.5796	432.0751	17.6401
-38.5778	440.775	17.6597
-38.5764	439.88	17.6792
-38.5729	436.865	17.69873
-38.5721	439.062	17.7183
-38.5697	441.498	17.7378
-38.5689	431.8533	17.7573
-38.568	440.235	17.7769
-38.5661	441.206	17.7964
-38.5631	435.043	17.8159
-38.5624	435.83	17.8354
-38.5613	439.264	17.85498
-38.5592	435.554	17.8745
-38.5575	433.083	17.894
-38.5548	440.055	17.9136
-38.5541	436.759	17.9331
-38.5526	435.36	17.9526
-38.55196	434.549	17.9722
-38.549	437.24	17.9917
-38.5478	432.122	18.01123
-38.5463	440.024	18.0308
-38.5438	441.667	18.0503
-38.5431	433.98	18.0698
-38.5417	431.782	18.0894
-38.5395	440.073	18.1089
-38.5375	433.747	18.1284
-38.5355	433.918	18.1479
-38.5348	437.452	18.16748
-38.5329	436.322	18.187
-38.5311	428.97	18.2065
-38.5292	439.32	18.2261
-38.5282	433.52	18.2456
-38.5256	432.792	18.2651
-38.5253	437.683	18.2847
-38.5228	437.571	18.3042
-38.52177	427.426	18.32373
-38.5201	435.83	18.3433
-38.5184	436.771	18.3628
-38.5172	432.224	18.3823
-38.5153	435.07	18.4019
-38.5139	434.987	18.4214
-38.5117	430.181	18.4409
-38.5108	433.766	18.4604
-38.50882	438.814	18.47998
-38.5072	431.391	18.4995
-38.5067	432.208	18.519
-38.5048	433.9288	18.5386
-38.50275	434.8	18.5581
-38.50111	430.344	18.5776
-38.4998	435.907	18.5972
-38.4979	434.652	18.6167
-38.4963	433.344	18.63623
-38.4948	430.224	18.6558
-38.49284	437.458	18.6753
-38.4909	427.896	18.6948
-38.4894	435.317	18.7144
-38.487	438.889	18.7339
-38.4862	433.056	18.7534
-38.4824	428.374	18.7729
-38.4828	436.01	18.79248
-38.4801	433.568	18.812
-38.4808	431.123	18.8315
-38.4765	435.48	18.8511
-38.4761	434.432	18.8706
-38.4743	427.335	18.8901
-38.4721	435.426	18.9097
-38.4701	432.885	18.9292
-38.4692	428.474	18.94873
-38.4683	434.377	18.9683
-38.4654	433.568	18.9878
-38.4654	426.533	19.0073
-38.4637	430.628	19.0269
-38.46069	437.022	19.0464
-38.4602	429.989	19.0659
-38.4579	430.131	19.0854
-38.4576	431.219	19.10498
-38.4554	430.02	19.1245
-38.454	428.616	19.144
-38.4525	435.6221	19.1636
-38.45018	431.4856	19.1831
-38.44894	429.159	19.2026
-38.4469	431.054	19.2222
-38.4448	436.2977	19.2417
-38.443	426.745	19.26123
-38.4425	432.491	19.2808
-38.4407	435.545	19.3003
-38.4383	430.467	19.3198
-38.4373	426.871	19.3394
-38.4349	435.372	19.3589
-38.4343	429.028	19.3784
-38.4325	430.381	19.3979
-38.4305	436.061	19.41748
-38.42889	430.808	19.437
-38.4279	424.117	19.4565
-38.426	434.678	19.4761
-38.4238	432.347	19.4956
-38.42289	427.181	19.5151
-38.4211	432.708	19.5347
-38.4181	431.952	19.5542
-38.4164	425.071	19.57373
-38.4163	431.8837	19.5933
-38.4139	433.0173	19.6128
-38.4124	425.55	19.6323
-38.4111	430.494	19.6519
-38.4095	430.715	19.6714
-38.4075	427.839	19.6909
-38.4062	425.872	19.7104
-38.4047	434.253	19.72998
-38.40239	430.276	19.7495
-38.4018	428.497	19.769
-38.3991	428.487	19.7886
-38.3975	430.02	19.8081
-38.3966	426.116	19.8276
-38.3943	432.05	19.8472
-38.3938	431.222	19.8667
-38.392	426.445	19.88623
-38.3887	426.5	19.9058
-38.3874	434.228	19.9253
-38.3867	427.231	19.9448
-38.38567	429.3808	19.9644
-38.3828	433.347	19.9839
-38.3816	428.357	20.0034
-38.3813	424.491	20.0132

Data Header:			0.254_hd_uprint_typeiv_090_r0			Time:	29.4836	s	4/13/2019 11:11:49 PM
Data Acquisition:	Timed
Station Name:	ft40.cfg
Test File Name:	monotonic_0.2540_typeiv_solid_4545_uprint.tst
Displacement	Force	Running Time
mm	N	s
-38.38018	423.1795	20.0229
-38.3797	429.416	20.0327
-38.3778	433.108	20.04248
-38.3783	432.203	20.0522
-38.3769	427.819	20.062
-38.3762	422.761	20.0718
-38.3749	425.61	20.0815
-38.3742	429.485	20.0913
-38.3732	432.544	20.1011
-38.3742	431.192	20.11084
-38.3713	429.618	20.1206
-38.3713	427.877	20.1304
-38.3704	422.132	20.1401
-38.3695	427.796	20.1499
-38.3683	430.966	20.1597
-38.3678	432.802	20.1694
-38.3673	430.94	20.1792
-38.3663	423.573	20.189
-38.3651	425.177	20.19873
-38.36425	427.174	20.2085
-38.3628	429.475	20.2183
-38.3629	433.24	20.228
-38.3631	429.987	20.2378
-38.3613	429.727	20.2476
-38.3602	425.312	20.2573
-38.3608	425.13	20.26709
-38.3585	427.954	20.2769
-38.3579	432.45	20.2866
-38.3574	432.65	20.2964
-38.35685	427.693	20.3062
-38.3553	425.404	20.3159
-38.3546	427.666	20.3257
-38.3533	427.23	20.3354
-38.353	428.246	20.3452
-38.3534	429.465	20.35498
-38.35239	430.558	20.3647
-38.3507	428.494	20.3745
-38.3509	425.844	20.3843
-38.3494	425.298	20.394
-38.3479	427.678	20.4038
-38.34663	431.4321	20.4136
-38.347	429.37	20.42334
-38.345	430.556	20.4331
-38.345	426.255	20.4429
-38.3447	427.2211	20.4526
-38.3434	427.577	20.4624
-38.34391	426.54	20.4722
-38.3423	432.843	20.4819
-38.3413	430.882	20.4917
-38.3398	428.557	20.5015
-38.33971	424.523	20.51123
-38.3399	422.045	20.521
-38.3371	429.303	20.5308
-38.3369	429.859	20.5405
-38.3365	431.5105	20.5503
-38.3357	430.652	20.5601
-38.3353	423.0629	20.5698
-38.3336	424.953	20.57959
-38.333	425.188	20.5894
-38.3326	428.364	20.5991
-38.3318	433.244	20.6089
-38.3307	429.853	20.6187
-38.3294	425.228	20.6284
-38.3276	422.942	20.6382
-38.328	425.019	20.6479
-38.3268	429.73	20.6577
-38.3255	428.703	20.66748
-38.3259	430.173	20.6772
-38.3248	426.749	20.687
-38.3228	423.919	20.6968
-38.3222	421.719	20.7065
-38.3219	427.524	20.7163
-38.3213	430.837	20.7261
-38.32156	431.426	20.73584
-38.3197	426.464	20.7456
-38.3189	421.8949	20.7554
-38.3187	422.7132	20.7651
-38.3173	425.93	20.7749
-38.31641	430.541	20.7847
-38.3151	428.791	20.7944
-38.3149	428.621	20.8042
-38.3148	428.202	20.814
-38.31403	421.495	20.82373
-38.313	424.748	20.8335
-38.3116	427.616	20.8433
-38.3114	432.187	20.853
-38.3097	430.908	20.8628
-38.3075	422.923	20.8726
-38.3083	424.839	20.8823
-38.3075	426.011	20.89209
-38.3075	427.303	20.9019
-38.306	429.962	20.9116
-38.3053	427.3421	20.9214
-38.3037	430.78	20.9312
-38.3033	425.218	20.9409
-38.3036	422.273	20.9507
-38.3006	424.855	20.9604
-38.3001	427.637	20.9702
-38.301	431.3887	20.97998
-38.3003	428.553	20.9897
-38.2989	426.3165	20.9995
-38.2976	425.129	21.0093
-38.2968	424.794	21.019
-38.2969	425.522	21.0288
-38.2952	426.142	21.0386
-38.2948	428.218	21.04834
-38.2934	429.232	21.0581
-38.2926	424.922	21.0679
-38.2923	421.921	21.0776
-38.2921	424.211	21.0874
-38.29137	428.783	21.0972
-38.2905	428.607	21.1069
-38.2892	429.996	21.1167
-38.287	425.034	21.1265
-38.28701	423.662	21.13623
-38.2862	424.71	21.146
-38.285	422.811	21.1558
-38.2846	428.669	21.1655
-38.2836	430.372	21.1753
-38.283	428.531	21.1851
-38.2819	422.334	21.1948
-38.2817	419.58	21.20459
-38.2819	426.285	21.2144
-38.28	427.512	21.2241
-38.27903	430.111	21.2339
-38.2781	428.5744	21.2437
-38.2767	421.8194	21.2534
-38.2775	424.913	21.2632
-38.2753	420.084	21.2729
-38.2748	427.916	21.2827
-38.2748	430.9361	21.29248
-38.2731	430.022	21.3022
-38.2718	425.469	21.312
-38.2726	420.323	21.3218
-38.2714	421.4277	21.3315
-38.2706	427.215	21.3413
-38.2685	428.84	21.3511
-38.2682	426.876	21.36084
-38.267	426.2681	21.3706
-38.2661	424.438	21.3804
-38.2666	421.243	21.3901
-38.2655	423.58	21.3999
-38.2649	425.5625	21.4097
-38.2644	431.167	21.4194
-38.2623	427.59	21.4292
-38.2621	420.991	21.439
-38.2607	421.45	21.44873
-38.2605	424.047	21.4585
-38.2593	427.877	21.4683
-38.2589	427.544	21.478
-38.25964	426.895	21.4878
-38.2574	426.34	21.4976
-38.2575	421.775	21.5073
-38.25573	423.932	21.51709
-38.25425	423.471	21.5269
-38.25296	428.5567	21.5366
-38.2527	429.082	21.5464
-38.2524	422.039	21.5562
-38.252	424.307	21.5659
-38.2505	423.0448	21.5757
-38.2491	423.7244	21.5854
-38.2487	427.534	21.5952
-38.2481	425.404	21.60498
-38.247	429.449	21.6147
-38.2468	428.205	21.6245
-38.2458	423.776	21.6343
-38.24514	422.562	21.644
-38.244	422.83	21.6538
-38.2431	430.334	21.6636
-38.2435	427.924	21.67334
-38.2411	425.211	21.6831
-38.2406	424.17	21.6929
-38.2396	423.3313	21.7026
-38.2395	422.1015	21.7124
-38.2384	424.071	21.7222
-38.2375	428.161	21.7319
-38.2364	429.898	21.7417
-38.2358	425.931	21.7515
-38.2351	419.729	21.76123
-38.2344	420.952	21.771
-38.2334	425.692	21.7808
-38.23243	427.934	21.7905
-38.2324	428.325	21.8003
-38.2312	425.189	21.8101
-38.2301	423.0253	21.8198
-38.23	422.887	21.82959
-38.22834	420.911	21.8394
-38.2285	428.433	21.8491
-38.2267	430.07	21.8589
-38.2258	427.107	21.8687
-38.2246	423.614	21.8784
-38.2255	417.0621	21.8882
-38.2241	422.794	21.8979
-38.2225	426.84	21.9077
-38.2213	427.9007	21.91748
-38.2226	427.632	21.9272
-38.22076	422.555	21.937
-38.2203	422.7421	21.9468
-38.2201	418.47	21.9565
-38.2186	424.767	21.9663
-38.2172	428.734	21.9761
-38.2166	427.759	21.98584
-38.2157	426.973	21.9956
-38.2157	419.291	22.0054
-38.2146	418.988	22.0151
-38.2138	426.831	22.0249
-38.2123	427.234	22.0347
-38.2124	427.859	22.0444
-38.2103	424.683	22.0542
-38.2081	423.268	22.064
-38.2088	422.666	22.07373
-38.2087	423.792	22.0835
-38.2077	425.154	22.0933
-38.2072	430.575	22.103
-38.2063	428.259	22.1128
-38.2053	421.746	22.1226
-38.20496	420.9671	22.1323
-38.2036	423.264	22.14209
-38.2024	425.862	22.1519
-38.2012	425.88	22.1616
-38.201	425.29	22.1714
-38.2005	426.047	22.1812
-38.19849	423.732	22.1909
-38.1986	423.019	22.2007
-38.1965	422.158	22.2104
-38.197	424.434	22.2202
-38.1972	428.3389	22.22998
-38.1956	423.32	22.2397
-38.1941	426.489	22.2495
-38.1935	422.179	22.2593
-38.1933	421.831	22.269
-38.1926	425.677	22.2788
-38.191	423.592	22.2886
-38.1902	427.069	22.29834
-38.1909	426.936	22.3081
-38.1891	423.129	22.3179
-38.1872	420.094	22.3276
-38.1878	419.41	22.3374
-38.1869	426.172	22.3472
-38.1858	429.018	22.3569
-38.1845	425.121	22.3667
-38.1832	424.487	22.3765
-38.1827	421.292	22.38623
-38.1825	422.922	22.396
-38.18148	421.86	22.4058
-38.18079	427.967	22.4155
-38.1795	428.704	22.4253
-38.1784	425.376	22.4351
-38.1785	420.978	22.4448
-38.1784	419.448	22.45459
-38.1771	422.495	22.4644
-38.1751	427.084	22.4741
-38.1755	427.649	22.4839
-38.1747	424.053	22.4937
-38.1737	421.438	22.5034
-38.173	420.375	22.5132
-38.1718	419.368	22.5229
-38.1714	427.214	22.5327
-38.1697	428.0997	22.54248
-38.1686	426.9	22.5522
-38.1696	424.047	22.562
-38.1688	416.656	22.5718
-38.1674	419.712	22.5815
-38.1666	423.94	22.5913
-38.1657	426.779	22.6011
-38.1651	426.986	22.61084
-38.1647	423.636	22.6206
-38.1623	423.085	22.6304
-38.1627	419.788	22.6401
-38.161	423.293	22.6499
-38.161	427.215	22.6597
-38.16	428.2037	22.6694
-38.158	427.916	22.6792
-38.1586	419.0704	22.689
-38.1565	421.008	22.69873
-38.1565	424.5997	22.7085
-38.1556	423.639	22.7183
-38.15406	425.907	22.728
-38.1528	421.942	22.7378
-38.1544	423.974	22.7476
-38.1511	422.336	22.7573
-38.1512	421.94	22.76709
-38.1514	420.821	22.7769
-38.1495	425.523	22.7866
-38.14893	426.33	22.7964
-38.1483	421.6835	22.8062
-38.148	422.256	22.8159
-38.1463	419.633	22.8257
-38.1468	422.58	22.8354
-38.14465	423.169	22.8452
-38.1437	425.4613	22.85498
-38.145	424.879	22.8647
-38.1427	424.996	22.8745
-38.14156	420.174	22.8843
-38.14	418.428	22.894
-38.1402	420.985	22.9038
-38.1403	427.428	22.9136
-38.1385	424.372	22.92334
-38.1366	425.395	22.9331
-38.1366	419.842	22.9429
-38.1363	419.973	22.9526
-38.1357	422.553	22.9624
-38.1343	423.266	22.9722
-38.13398	427.338	22.9819
-38.1313	426.2738	22.9917
-38.13224	422.641	23.0015
-38.1307	420.188	23.01123
-38.1313	417.739	23.021
-38.1302	423.569	23.0308
-38.1287	427.468	23.0405
-38.1276	426.817	23.0503
-38.1274	424.5054	23.0601
-38.12553	419.372	23.0698
-38.1256	419.539	23.07959
-38.1254	422.436	23.0894
-38.1243	425.367	23.0991
-38.1233	426.654	23.1089
-38.1222	425.631	23.1187
-38.1218	420.284	23.1284
-38.1201	416.794	23.1382
-38.1209	419.9303	23.1479
-38.1198	426.736	23.1577
-38.1179	428.436	23.16748
-38.117	422.528	23.1772
-38.1167	422.053	23.187
-38.1157	420.826	23.1968
-38.1152	419.531	23.2065
-38.1147	423.604	23.2163
-38.1136	424.538	23.2261
-38.1111	427.752	23.23584
-38.1122	423.646	23.2456
-38.1112	417.658	23.2554
-38.1104	418.667	23.2651
-38.109	422.515	23.2749
-38.108	426.268	23.2847
-38.10667	425.914	23.2944
-38.107	421.433	23.3042
-38.1064	423.029	23.314
-38.1044	418.707	23.32373
-38.1047	420.938	23.3335
-38.1027	421.003	23.3433
-38.1026	425.916	23.353
-38.102	425.384	23.3628
-38.1013	421.397	23.3726
-38.1011	419.707	23.3823
-38.098	419.992	23.39209
-38.0989	422.223	23.4019
-38.0969	426.257	23.4116
-38.0961	424.73	23.4214
-38.0949	422.62	23.4312
-38.0956	423.127	23.4409
-38.0955	420.03	23.4507
-38.09256	419.688	23.4604
-38.0933	420.659	23.4702
-38.0915	426.21	23.47998
-38.0914	424.688	23.4897
-38.0901	422.702	23.4995
-38.0909	416.9722	23.5093
-38.0888	419.838	23.519
-38.088	423.902	23.5288
-38.0863	422.95	23.5386
-38.087	426.607	23.54834
-38.0856	425.357	23.5581
-38.084	422.186	23.5679
-38.084	418.156	23.5776
-38.08268	417.375	23.5874
-38.0818	423.48	23.5972
-38.0816	425.044	23.6069
-38.0812	425.031	23.6167
-38.0793	419.208	23.6265
-38.08	418.2225	23.63623
-38.0774	419.765	23.646
-38.0773	419.055	23.6558
-38.0775	426.442	23.6655
-38.0772	425.467	23.6753
-38.07478	421.53	23.6851
-38.0731	419.481	23.6948
-38.0738	414.747	23.70459
-38.0731	419.426	23.7144
-38.0715	426.315	23.7241
-38.0704	426.07	23.7339
-38.0697	424.236	23.7437
-38.0691	418.003	23.7534
-38.068	419.749	23.7632
-38.0679	416.853	23.7729
-38.0657	423.0162	23.7827
-38.0659	424.869	23.79248
-38.0649	424.78	23.8022
-38.0641	422.402	23.812
-38.063	415.617	23.8218
-38.062	417.293	23.8315
-38.0628	421.606	23.8413
-38.06181	426.034	23.8511
-38.0586	424.152	23.86084
-38.05912	420.648	23.8706
-38.0579	419.398	23.8804
-38.0588	418.355	23.8901
-38.0576	422.185	23.8999
-38.0565	421.685	23.9097
-38.0552	426.687	23.9194
-38.0537	424.807	23.9292
-38.0537	417.046	23.939
-38.0519	420.134	23.94873
-38.0528	418.624	23.9585
-38.0518	423.2197	23.9683
-38.0504	425.991	23.978
-38.04908	420.507	23.9878
-38.0477	421.551	23.9976
-38.0473	420.542	24.0073
-38.0471	418.58	24.01709
-38.0478	419.702	24.0269
-38.0456	419.986	24.0366
-38.0434	426.065	24.0464
-38.04414	421.657	24.0562
-38.0432	419.157	24.0659
-38.0429	417.736	24.0757
-38.0422	417.435	24.0854
-38.0406	422.951	24.0952
-38.0407	422.055	24.10498
-38.0393	421.937	24.1147
-38.03735	423.759	24.1245
-38.038	418.093	24.1343
-38.0361	417.6478	24.144
-38.0353	418.362	24.1538
-38.0349	423.841	24.1636
-38.0347	425.391	24.17334
-38.0334	423.02	24.1831
-38.0316	419.168	24.1929
-38.03231	419.608	24.2026
-38.0311	419.879	24.2124
-38.0299	421.64	24.2222
-38.02932	424.916	24.2319
-38.0282	425.45	24.2417
-38.0282	422.396	24.2515
-38.0275	417.083	24.26123
-38.0258	416.83	24.271
-38.0259	422.539	24.2808
-38.0245	424.627	24.2905
-38.0234	426.718	24.3003
-38.0225	420.3287	24.3101
-38.0221	416.6	24.3198
-38.0202	418.308	24.32959
-38.0207	417.774	24.3394
-38.01923	423.9548	24.3491
-38.0184	423.57	24.3589
-38.018	421.859	24.3687
-38.0185	420.437	24.3784
-38.0147	413.852	24.3882
-38.0149	418.973	24.3979
-38.01458	422.424	24.4077
-38.0136	425.565	24.41748
-38.0139	423.743	24.4272
-38.0117	416.942	24.437
-38.0109	418.268	24.4468
-38.0104	417.404	24.4565
-38.0101	420.778	24.4663
-38.009	422.71	24.4761
-38.009	422.839	24.48584
-38.00872	421.979	24.4956
-38.0074	416.221	24.5054
-38.0052	416.648	24.5151
-38.0046	419.638	24.5249
-38.00359	424.068	24.5347
-38.00375	425.447	24.5444
-38.00391	419.81	24.5542
-38.0014	418.325	24.564
-38.0002	418.9068	24.57373
-37.9998	419.233	24.5835
-38.0005	419.572	24.5933
-37.999	424.126	24.603
-37.998	423.522	24.6128
-37.9965	419.6731	24.6226
-37.9962	419.0127	24.6323
-37.9947	416.868	24.64209
-37.9946	421.152	24.6519
-37.9938	423.897	24.6616
-37.9939	419.808	24.6714
-37.9914	422.326	24.6812
-37.9907	419.832	24.6909
-37.9896	420.491	24.7007
-37.9897	418.134	24.7104
-37.9889	419.321	24.7202
-37.9876	425.496	24.72998
-37.9858	421.905	24.7397
-37.9868	419.495	24.7495
-37.9854	416.297	24.7593
-37.9842	416.961	24.769
-37.9849	421.057	24.7788
-37.9826	420.987	24.7886
-37.9827	423.565	24.79834
-37.9808	424.806	24.8081
-37.9801	418.529	24.8179
-37.9803	417.258	24.8276
-37.9787	415.8295	24.8374
-37.9773	421.467	24.8472
-37.9768	425.308	24.8569
-37.97636	422.519	24.8667
-37.9762	419.879	24.8765
-37.9748	416.336	24.88623
-37.9744	417.983	24.896
-37.9734	419.374	24.9058
-37.9717	424.087	24.9155
-37.9715	422.666	24.9253
-37.9706	421.995	24.9351
-37.9697	418.993	24.9448
-37.9697	413.204	24.95459
-37.9681	418.219	24.9644
-37.9683	421.592	24.9741
-37.9659	425.825	24.9839
-37.9656	419.653	24.9937
-37.9648	415.764	25.0034
-37.9642	416.6759	25.0132
-37.963	416.319	25.0229
-37.9627	421.542	25.0327
-37.96172	422.786	25.04248
-37.9613	422.926	25.0522
-37.9605	421.189	25.062
-37.9588	413.049	25.0718
-37.9592	419.027	25.0815
-37.9576	420.2916	25.0913
-37.9566	423.228	25.1011
-37.9565	424.609	25.11084
-37.9552	416.685	25.1206
-37.9546	418.6434	25.1304
-37.9532	416.926	25.1401
-37.9526	418.739	25.1499
-37.9529	421.099	25.1597
-37.9514	421.754	25.1694
-37.9507	423.288	25.1792
-37.94949	417.052	25.189
-37.948	416.132	25.19873
-37.9483	418.262	25.2085
-37.9466	421.653	25.2183
-37.9465	424.135	25.228
-37.9465	418.668	25.2378
-37.9448	419.334	25.2476
-37.9445	420.153	25.2573
-37.9447	419.5806	25.26709
-37.9425	417.024	25.2769
-37.9411	421.035	25.2866
-37.94	423.6214	25.2964
-37.9393	421.113	25.3062
-37.9387	417.899	25.3159
-37.9384	415.307	25.3257
-37.9366	418.359	25.3354
-37.9364	421.214	25.3452
-37.9341	419.617	25.35498
-37.9348	422.7442	25.3647
-37.9333	420.005	25.3745
-37.93301	417.517	25.3843
-37.9336	416.7298	25.394
-37.9311	416.0513	25.4038
-37.9304	422.892	25.4136
-37.9297	422.319	25.42334
-37.9291	421.922	25.4331
-37.9286	415.97	25.4429
-37.9266	414.043	25.4526
-37.9272	420.0816	25.4624
-37.9252	417.953	25.4722
-37.9255	422.146	25.4819
-37.92387	422.732	25.4917
-37.9238	419.176	25.5015
-37.9223	417.697	25.51123
-37.9226	412.369	25.521
-37.9215	418.041	25.5308
-37.9202	423.5795	25.5405
-37.9193	421.942	25.5503
-37.9184	418.202	25.5601
-37.9172	414.0246	25.5698
-37.9174	415.238	25.57959
-37.9155	417.439	25.5894
-37.916	420.6525	25.5991
-37.914	422.898	25.6089
-37.9136	419.747	25.6187
-37.91288	415.81	25.6284
-37.9128	413.484	25.6382
-37.9117	414.101	25.6479
-37.9109	420.156	25.6577
-37.91	422.893	25.66748
-37.9082	419.33	25.6772
-37.907	415.325	25.687
-37.9068	415.732	25.6968
-37.90654	416.604	25.7065
-37.9059	420.1178	25.7163
-37.9062	418.844	25.7261
-37.9044	420.411	25.73584
-37.90374	421.072	25.7456
-37.903	412.872	25.7554
-37.902	414.707	25.7651
-37.9011	417.182	25.7749
-37.8998	421.07	25.7847
-37.899	424.326	25.7944
-37.8979	417.891	25.8042
-37.8986	416.554	25.814
-37.8965	416.28	25.82373
-37.8958	414.329	25.8335
-37.8954	419.531	25.8433
-37.8939	419.167	25.853
-37.8922	422.634	25.8628
-37.8933	418.391	25.8726
-37.8921	415.204	25.8823
-37.8908	415.702	25.89209
-37.8907	416.976	25.9019
-37.8905	420.1315	25.9116
-37.8889	418.729	25.9214
-37.8878	417.851	25.9312
-37.88694	417.692	25.9409
-37.8865	416.407	25.9507
-37.8852	414.319	25.9604
-37.8836	416.33	25.9702
-37.8837	420.209	25.97998
-37.8821	420.923	25.9897
-37.8811	418.816	25.9995
-37.8811	413.531	26.0093
-37.8809	415.189	26.019
-37.8795	417.963	26.0288
-37.8785	417.196	26.0386
-37.8785	420.438	26.04834
-37.8771	419.56	26.0581
-37.875	418.0654	26.0679
-37.8762	415.598	26.0776
-37.8733	412.745	26.0874
-37.8737	418.825	26.0972
-37.8731	422.119	26.1069
-37.872	419.028	26.1167
-37.8722	415.619	26.1265
-37.87228	411.176	26.13623
-37.8708	414.635	26.146
-37.8687	415.448	26.1558
-37.8684	420.512	26.1655
-37.8685	420.286	26.1753
-37.8662	417.03	26.1851
-37.8654	415.135	26.1948
-37.865	411.477	26.20459
-37.8639	416.6925	26.2144
-37.8642	421.486	26.2241
-37.8626	420.775	26.2339
-37.8599	419.05	26.2437
-37.8608	413.067	26.2534
-37.8605	412.518	26.2632
-37.8593	415.208	26.2729
-37.8578	418.055	26.2827
-37.8575	419.912	26.29248
-37.857	420.5	26.3022
-37.8557	416.302	26.312
-37.8553	410.432	26.3218
-37.85437	414.3887	26.3315
-37.8543	417.495	26.3413
-37.8536	422.786	26.3511
-37.8511	421.075	26.36084
-37.85	415.155	26.3706
-37.8507	414.216	26.3804
-37.85006	412.949	26.3901
-37.8492	417.384	26.3999
-37.8473	417.359	26.4097
-37.8469	418.474	26.4194
-37.8457	421.476	26.4292
-37.8453	412.997	26.439
-37.84528	414.705	26.44873
-37.8443	413.067	26.4585
-37.8431	417.686	26.4683
-37.8416	421.106	26.478
-37.8399	414.9267	26.4878
-37.8404	416.34	26.4976
-37.84029	415.622	26.5073
-37.838	415.298	26.51709
-37.8386	414.237	26.5269
-37.8371	415.529	26.5366
-37.8378	420.399	26.5464
-37.8361	418.656	26.5562
-37.8354	413.764	26.5659
-37.8329	413.332	26.5757
-37.83334	412.666	26.5854
-37.8316	418.111	26.5952
-37.8313	417.156	26.60498
-37.8308	417.397	26.6147
-37.8306	417.798	26.6245
-37.82909	413.718	26.6343
-37.8287	411.356	26.644
-37.8271	412.514	26.6538
-37.8275	417.828	26.6636
-37.8256	420.857	26.67334
-37.8243	418.526	26.6831
-37.8248	413.226	26.6929
-37.8236	410.592	26.7026
-37.8222	414.808	26.7124
-37.8213	415.651	26.7222
-37.8229	419.3465	26.7319
-37.8193	417.786	26.7417
-37.8192	415.522	26.7515
-37.8191	413	26.76123
-37.8179	409.001	26.771
-37.8177	415.98	26.7808
-37.8167	420.132	26.7905
-37.8144	420.954	26.8003
-37.8137	414.944	26.8101
-37.8126	409.3606	26.8198
-37.8118	411.63	26.82959
-37.8125	414.405	26.8394
-37.8104	417.278	26.8491
-37.8102	417.869	26.8589
-37.8094	415.773	26.8687
-37.809	414.829	26.8784
-37.8079	408.512	26.8882
-37.8071	413.45	26.8979
-37.8061	417.723	26.9077
-37.8054	418.514	26.91748
-37.8056	417.553	26.9272
-37.8042	411.193	26.937
-37.8027	410.348	26.9468
-37.8027	413.911	26.9565
-37.8018	413.218	26.9663
-37.80043	416.648	26.9761
-37.7999	415.013	26.98584
-37.79884	414.878	26.9956
-37.7984	409.726	27.0054
-37.7959	409.31	27.0151
-37.7968	411.713	27.0249
-37.7954	415.124	27.0347
-37.7959	416.976	27.0444
-37.7933	412.1424	27.0542
-37.7935	410.928	27.064
-37.7929	409.891	27.07373
-37.7919	411.21	27.0835
-37.7903	410.607	27.0933
-37.7913	410.93	27.103
-37.7892	414.9498	27.1128
-37.7895	409.238	27.1226
-37.7868	408.922	27.1323
-37.787	405.206	27.14209
-37.7857	409.332	27.1519
-37.7852	413.753	27.1616
-37.7853	406.582	27.1714
-37.7838	409.297	27.1812
-37.78265	405.418	27.1909
-37.7813	397.175	27.2007
-37.7778	-33.4159	27.2104
-37.7781	-34.4135	27.2202
-37.7777	-25.22131	27.22998
-37.7775	-45.3624	27.2397
-37.7768	-45.2308	27.2495
-37.7763	-46.018	27.2593
-37.7751	-47.5304	27.269
-37.7742	-42.0137	27.2788
-37.7739	-44.3135	27.2886
-37.77346	-39.9122	27.29834
-37.7729	-41.5127	27.3081
-37.7713	-45.253	27.3179
-37.76984	-45.8028	27.3276
-37.7706	-47.353	27.3374
-37.7694	-43.4882	27.3472
-37.7687	-37.7485	27.3569
-37.7666	-39.8054	27.3667
-37.7662	-46.1012	27.3765
-37.765	-48.1731	27.38623
-37.7666	-46.6177	27.396
-37.7643	-42.9966	27.4058
-37.7631	-39.05611	27.4155
-37.7629	-42.5603	27.4253
-37.76141	-42.2769	27.4351
-37.7603	-44.9568	27.4448
-37.7608	-48.9512	27.45459
-37.759	-43.1384	27.4644
-37.7593	-42.4352	27.4741
-37.7586	-38.6366	27.4839
-37.75724	-42.0833	27.4937
-37.7567	-47.9671	27.5034
-37.7556	-47.4808	27.5132
-37.7542	-45.2564	27.5229
-37.7541	-41.3965	27.5327
-37.7532	-40.4435	27.54248
-37.75259	-43.7468	27.5522
-37.751	-42.9973	27.562
-37.7511	-49.2166	27.5718
-37.7493	-46.2989	27.5815
-37.7497	-43.3262	27.5913
-37.748	-41.7396	27.6011
-37.7477	-39.1713	27.61084
-37.746	-45.6106	27.6206
-37.74696	-46.5838	27.6304
-37.7445	-43.5818	27.6401
-37.7446	-44.1478	27.6499
-37.7431	-43.0702	27.6597
-37.7429	-42.8275	27.6694
-37.7411	-41.0472	27.6792
-37.7415	-43.669	27.689
-37.7401	-47.0114	27.69873
-37.739	-45.7705	27.7085
-37.7377	-42.7219	27.7183
-37.7373	-42.4704	27.728
-37.7375	-43.5958	27.7378
-37.7363	-43.4755	27.7476
-37.735	-45.5331	27.7573
-37.7339	-44.4073	27.76709
-37.7332	-46.007	27.7769
-37.7328	-44.1723	27.7866
-37.7315	-40.9907	27.7964
-37.73156	-41.9804	27.8062
-37.7305	-43.0211	27.8159
-37.72924	-46.9155	27.8257
-37.7294	-47.4601	27.8354
-37.7295	-40.926	27.8452
-37.7273	-43.3091	27.85498
-37.7276	-40.3465	27.8647
-37.7248	-42.113	27.8745
-37.7237	-46.3497	27.8843
-37.7237	-44.6627	27.894
-37.72385	-48.2549	27.9038
-37.7219	-42.9864	27.9136
-37.7215	-38.6284	27.92334
-37.7207	-41.2805	27.9331
-37.7201	-45.0321	27.9429
-37.7198	-50.8618	27.9526
-37.7174	-44.3434	27.9624
-37.7176	-43.1244	27.9722
-37.7175	-41.443	27.9819
-37.716	-41.4638	27.9917
-37.7149	-45.3249	28.0015
-37.7143	-47.4647	28.01123
-37.7134	-49.3575	28.021
-37.7123	-45.0102	28.0308
-37.7119	-39.8682	28.0405
-37.7114	-39.7821	28.0503
-37.711	-44.4637	28.0601
-37.7102	-50.4537	28.0698
-37.7084	-48.6912	28.07959
-37.7076	-44.5013	28.0894
-37.7065	-40.8401	28.0991
-37.70533	-42.7467	28.1089
-37.705	-43.3453	28.1187
-37.70422	-45.8979	28.1284
-37.7035	-50.1429	28.1382
-37.7033	-46.6369	28.1479
-37.7022	-44.9403	28.1577
-37.702	-38.9809	28.16748
-37.7006	-41.1059	28.1772
-37.6997	-49.71616	28.187
-37.6984	-45.8939	28.1968
-37.698	-45.3962	28.2065
-37.6969	-43.4345	28.2163
-37.6964	-42.9802	28.2261
-37.6946	-44.9866	28.23584
-37.69482	-41.5659	28.2456
-37.6937	-46.5591	28.2554
-37.6933	-45.8365	28.2651
-37.69231	-44.4262	28.2749
-37.6917	-43.64674	28.2847
-37.6902	-38.529	28.2944
-37.6901	-44.2656	28.3042
-37.6873	-44.6432	28.314
-37.6875	-45.4035	28.32373
-37.6868	-45.1275	28.3335
-37.6857	-43.74509	28.3433
-37.6859	-42.3727	28.353
-37.6844	-40.0599	28.3628
-37.6828	-41.4714	28.3726
-37.6834	-45.475	28.3823
-37.6832	-48.29303	28.39209
-37.68108	-46.0222	28.4019
-37.6819	-41.9746	28.4116
-37.6799	-40.4438	28.4214
-37.67886	-42.0664	28.4312
-37.6788	-45.0417	28.4409
-37.6778	-46.048	28.4507
-37.6767	-44.7971	28.4604
-37.676	-45.733	28.4702
-37.6762	-40.0557	28.47998
-37.6745	-40.152	28.4897
-37.6737	-41.6051	28.4995
-37.6734	-48.2222	28.5093
-37.6711	-48.9524	28.519
-37.6704	-42.7109	28.5288
-37.6706	-42.1532	28.5386
-37.6691	-39.8374	28.54834
-37.6686	-43.9988	28.5581
-37.6687	-47.0121	28.5679
-37.66785	-44.8529	28.5776
-37.6669	-50.1233	28.5874
-37.6648	-41.3382	28.5972
-37.6648	-40.668	28.6069
-37.6639	-40.4862	28.6167
-37.6625	-44.5174	28.6265
-37.6633	-51.77058	28.63623
-37.6601	-47.7069	28.646
-37.6601	-42.5067	28.6558
-37.6594	-42.6105	28.6655
-37.6594	-41.3069	28.6753
-37.65715	-43.6902	28.6851
-37.6573	-46.8297	28.6948
-37.6561	-50.6425	28.70459
-37.6556	-44.8981	28.7144
-37.6552	-40.5231	28.7241
-37.6552	-40.0727	28.7339
-37.6531	-41.9674	28.7437
-37.6515	-47.2594	28.7534
-37.6508	-46.9365	28.7632
-37.65073	-43.8868	28.7729
-37.6503	-41.39727	28.7827
-37.6485	-41.0559	28.79248
-37.6494	-44.7185	28.8022
-37.6467	-42.7167	28.812
-37.647	-46.6428	28.8218
-37.6457	-44.7311	28.8315
-37.6463	-46.1664	28.8413
-37.6438	-38.7565	28.8511
-37.6427	-39.6899	28.86084
-37.642	-46.107	28.8706
-37.6425	-45.8554	28.8804
-37.6412	-48.1203	28.8901
-37.6403	-42.98	28.8999
-37.6403	-42.3187	28.9097
-37.6396	-43.8803	28.9194
-37.637	-39.1794	28.9292
-37.6374	-44.7568	28.939
-37.6358	-46.0216	28.94873
-37.63538	-46.5727	28.9585
-37.63483	-44.5381	28.9683
-37.6346	-39.3961	28.978
-37.6331	-42.9227	28.9878
-37.6321	-43.97324	28.9976
-37.6302	-45.1379	29.0073
-37.6303	-45.69709	29.01709
-37.6303	-45.2008	29.0269
-37.6289	-43.9251	29.0366
-37.6278	-41.985	29.0464
-37.6262	-40.1149	29.0562
-37.6263	-45.8917	29.0659
-37.625	-46.9381	29.0757
-37.6251	-48.6581	29.0854
-37.624	-41.735	29.0952
-37.6224	-39.9693	29.10498
-37.6222	-41.5914	29.1147
-37.6215	-44.107	29.1245
-37.6207	-44.6199	29.1343
-37.621	-47.2403	29.144
-37.6189	-47.52182	29.1538
-37.6181	-41.2669	29.1636
-37.6182	-39.4955	29.17334
-37.6158	-40.0308	29.1831
-37.616	-46.9517	29.1929
-37.6151	-48.6814	29.2026
-37.6138	-45.5268	29.2124
-37.6127	-41.4853	29.2222
-37.6128	-39.3485	29.2319
-37.6118	-42.6408	29.2417
-37.61132	-45.31015	29.2515
-37.6097	-44.7389	29.26123
-37.6088	-49.67062	29.271
-37.6086	-42.2685	29.2808
-37.6079	-41.2562	29.2905
-37.6066	-38.35601	29.3003
-37.6046	-40.6549	29.3101
-37.60561	-49.6997	29.3198
-37.6047	-47.0172	29.32959
-37.6037	-42.479	29.3394
-37.60326	-42.8773	29.3491
-37.6019	-40.7173	29.3589
-37.6	-45.7562	29.3687
-37.6011	-42.8285	29.3784
-37.5993	-47.8418	29.3882
-37.5986	-45.2041	29.3979
-37.5981	-42.7413	29.4077
-37.59763	-40.7897	29.41748
-37.5955	-40.81216	29.4272
-37.5959	-46.3339	29.437
-37.5951	-48.7225	29.4468
-37.5938	-46.31234	29.4565
-37.5934	-41.7636	29.4663
-37.5915	-41.8657	29.4761