File: data/processed_data_files/tensile/0.254_hd_uprint_typeiv_4545_r(1).dat
MTS793|BTW|ENU|1|2|.|/|:|1|0|0|A

Data Header:			0.254_hd_uprint_typeiv_4545_r0			Time:	20.02002	s	4/13/2019 7:12:10 PM
Data Acquisition:	Timed
Station Name:	ft40.cfg
Test File Name:	monotonic_0.2540_typeiv_hd_4545_uprint.tst
Displacement	Force	Running Time
mm	N	s
-40.0428	-102.098	0.0236816
-40.0431	-124.597	0.0432129
-40.04229	-109.114	0.0627441
-40.0411	-99.7807	0.0822754
-40.0394	-126.1079	0.101807
-40.0375	-111.716	0.121338
-40.03632	-95.45713	0.140869
-40.0355	-115.687	0.1604
-40.0336	-113.359	0.179932
-40.03194	-89.9977	0.199463
-40.0303	-110.261	0.218994
-40.0282	-114.425	0.238525
-40.0262	-92.7986	0.258057
-40.02396	-97.5104	0.277588
-40.0248	-112.87	0.297119
-40.02132	-91.5487	0.31665
-40.021	-95.9113	0.336182
-40.0189	-108.733	0.355713
-40.0183	-93.8603	0.375244
-40.0159	-82.4948	0.394775
-40.0142	-105.602	0.414307
-40.01189	-96.4211	0.433838
-40.0104	-81.5565	0.453369
-40.0078	-97.6369	0.4729
-40.0083	-98.4312	0.492432
-40.0063	-78.0553	0.511963
-40.0051	-91.9506	0.531494
-40.0028	-100.331	0.551025
-40.0011	-78.5989	0.570557
-39.9998	-82.9262	0.590088
-39.9983	-96.9294	0.609619
-39.9961	-76.3137	0.62915
-39.99498	-73.6457	0.648682
-39.9925	-96.6428	0.668213
-39.9908	-79.2293	0.687744
-39.989	-68.3612	0.707275
-39.9878	-87.0066	0.726807
-39.9866	-80.2449	0.746338
-39.985	-62.0913	0.765869
-39.9819	-85.0379	0.7854
-39.9812	-80.6704	0.804932
-39.9802	-60.5305	0.824463
-39.9794	-73.1267	0.843994
-39.9776	-81.9621	0.863525
-39.9762	-58.3207	0.883057
-39.9734	-67.3202	0.902588
-39.9711	-79.88652	0.922119
-39.9695	-61.764	0.94165
-39.9677	-57.1661	0.961182
-39.9665	-75.9876	0.980713
-39.9652	-60.95	1.00024
-39.96352	-56.0798	1.01978
-39.9623	-71.0567	1.03931
-39.9591	-64.8666	1.05884
-39.9592	-45.5005	1.07837
-39.9566	-63.8228	1.0979
-39.9552	-68.23	1.11743
-39.9534	-45.6629	1.13696
-39.9522	-57.0757	1.15649
-39.94944	-66.2066	1.17603
-39.9493	-43.7705	1.19556
-39.9476	-46.7982	1.21509
-39.94643	-66.3993	1.23462
-39.9445	-45.0644	1.25415
-39.9427	-42.1626	1.27368
-39.9399	-60.6186	1.29321
-39.9389	-45.665	1.31274
-39.9372	-32.5048	1.33228
-39.9364	-58.9386	1.35181
-39.9342	-48.0531	1.37134
-39.9318	-30.2419	1.39087
-39.93095	-46.2078	1.4104
-39.92997	-49.6163	1.42993
-39.9285	-26.2047	1.44946
-39.9256	-43.626	1.46899
-39.9245	-46.7586	1.48853
-39.9229	-27.4488	1.50806
-39.9213	-32.07988	1.52759
-39.9194	-48.4088	1.54712
-39.9181	-25.7103	1.56665
-39.91621	-26.2968	1.58618
-39.9135	-44.9156	1.60571
-39.9131	-30.9858	1.62524
-39.91124	-17.36478	1.64478
-39.91066	-37.11977	1.66431
-39.9084	-31.69911	1.68384
-39.9072	-15.8898	1.70337
-39.9048	-31.0456	1.7229
-39.9032	-32.1913	1.74243
-39.9018	-10.9759	1.76196
-39.8997	-24.1522	1.78149
-39.8988	-35.427	1.80103
-39.8962	-12.267	1.82056
-39.8948	-15.4302	1.84009
-39.8945	-30.361	1.85962
-39.8914	-11.2686	1.87915
-39.8907	-7.23133	1.89868
-39.8891	-30.9153	1.91821
-39.8873	-13.7848	1.93774
-39.8854	-3.2794	1.95728
-39.88409	-21.4327	1.97681
-39.882	-14.2961	1.99634
-39.8816	3.84203	2.01587
-39.8797	-18.4765	2.0354
-39.8777	-16.6307	2.05493
-39.8761	4.7199	2.07446
-39.8736	-5.82554	2.09399
-39.8729	-16.5728	2.11353
-39.8704	5.16994	2.13306
-39.8697	-2.77662	2.15259
-39.86771	-12.781	2.17212
-39.8661	3.70053	2.19165
-39.8643	7.186069	2.21118
-39.8631	-12.198	2.23071
-39.8612	2.25954	2.25024
-39.8592	11.3991	2.26978
-39.85815	-5.7248	2.28931
-39.8562	0.194188	2.30884
-39.8553	18.5648	2.32837
-39.8527	1.49466	2.3479
-39.8513	-2.292485	2.36743
-39.8483	19.7181	2.38696
-39.8482	7.83722	2.40649
-39.8464	0.870768	2.42603
-39.8445	21.27009	2.44556
-39.8431	17.9002	2.46509
-39.8418	-2.5738	2.48462
-39.839	20.7213	2.50415
-39.8382	24.6533	2.52368
-39.83622	4.1344	2.54321
-39.8349	17.45681	2.56274
-39.8338	32.312	2.58228
-39.8321	7.3821	2.60181
-39.8296	16.732	2.62134
-39.8281	32.7134	2.64087
-39.8268	17.6008	2.6604
-39.8259	15.7729	2.67993
-39.8242	38.4852	2.69946
-39.8218	21.7694	2.71899
-39.8196	14.3568	2.73853
-39.8187	37.4939	2.75806
-39.8167	32.95113	2.77759
-39.8158	16.9695	2.79712
-39.8135	34.4132	2.81665
-39.8125	38.3811	2.83618
-39.8112	20.5754	2.85571
-39.80883	33.9817	2.87524
-39.8069	46.1743	2.89478
-39.8065	25.6916	2.91431
-39.8037	30.4987	2.93384
-39.8034	48.2009	2.95337
-39.80125	32.78381	2.9729
-39.7993	30.5949	2.99243
-39.7983	53.6691	3.01196
-39.79615	43.4913	3.03149
-39.7945	27.1736	3.05103
-39.7924	52.7091	3.07056
-39.7922	48.8788	3.09009
-39.7888	34.6687	3.10962
-39.788	52.6486	3.12915
-39.7857	56.7293	3.14868
-39.7846	33.1471	3.16821
-39.7833	52.006	3.18774
-39.7806	62.4443	3.20728
-39.7792	44.901	3.22681
-39.7781	49.10125	3.24634
-39.776	68.7798	3.26587
-39.7756	47.4969	3.2854
-39.7732	49.3787	3.30493
-39.771	68.83548	3.32446
-39.7704	58.0005	3.34399
-39.7688	46.5861	3.36353
-39.767	69.6462	3.38306
-39.7643	62.2323	3.40259
-39.764	50.8598	3.42212
-39.7616	68.47332	3.44165
-39.7601	74.1542	3.46118
-39.7593	53.2231	3.48071
-39.7568	63.9417	3.50024
-39.75502	75.584	3.51978
-39.754	59.3497	3.53931
-39.7526	66.6243	3.55884
-39.7506	82.1135	3.57837
-39.7487	65.8564	3.5979
-39.7465	60.9749	3.61743
-39.7466	84.4693	3.63696
-39.7448	73.00985	3.65649
-39.7436	63.3412	3.67603
-39.7411	85.3443	3.69556
-39.7389	84.1031	3.71509
-39.738	62.5483	3.73462
-39.73637	84.5922	3.75415
-39.7335	89.3987	3.77368
-39.733	70.9568	3.79321
-39.731	82.8399	3.81274
-39.7297	95.6011	3.83228
-39.7286	72.56	3.85181
-39.7262	81.4224	3.87134
-39.7249	98.9663	3.89087
-39.7226	82.6454	3.9104
-39.721	78.3337	3.92993
-39.72	101.765	3.94946
-39.7169	89.4162	3.96899
-39.7162	80.495	3.98853
-39.71566	100.943	4.00806
-39.713	99.2712	4.02759
-39.7114	81.6216	4.04712
-39.7104	101.363	4.06665
-39.708	102.031	4.08618
-39.70673	85.5075	4.10571
-39.7047	98.8917	4.12524
-39.7022	111.278	4.14478
-39.7018	91.4752	4.16431
-39.7008	93.4448	4.18384
-39.6983	113.0658	4.20337
-39.69706	98.6364	4.2229
-39.6943	96.7664	4.24243
-39.6933	115.116	4.26196
-39.6917	107.077	4.28149
-39.6923	92.9471	4.30103
-39.6882	116.986	4.32056
-39.6867	112.127	4.34009
-39.6861	97.5252	4.35962
-39.6841	115.448	4.37915
-39.6809	122.531	4.39868
-39.6815	97.9085	4.41821
-39.67952	113.3999	4.43774
-39.6782	127.607	4.45728
-39.6748	108.08	4.47681
-39.6744	113.567	4.49634
-39.6723	130.33	4.51587
-39.6714	110.664	4.5354
-39.6694	112.172	4.55493
-39.6673	132.391	4.57446
-39.66544	122.713	4.59399
-39.6633	111.306	4.61353
-39.6634	131.631	4.63306
-39.6608	128.258	4.65259
-39.65934	112.908	4.67212
-39.6585	130.639	4.69165
-39.656	136.513	4.71118
-39.6562	118.42	4.73071
-39.6533	127.519	4.75024
-39.6524	140.383	4.76978
-39.6502	121.359	4.78931
-39.6477	127.6177	4.80884
-39.647	146.401	4.82837
-39.645	130.299	4.8479
-39.6427	122.492	4.86743
-39.6416	147.135	4.88696
-39.64024	137.95	4.90649
-39.6397	127.281	4.92603
-39.6361	147.746	4.94556
-39.6341	146.573	4.96509
-39.6337	123.914	4.98462
-39.6323	149.489	5.00415
-39.63023	151.926	5.02368
-39.628	134.299	5.04321
-39.6279	146.285	5.06274
-39.6271	158.993	5.08228
-39.6243	135.714	5.10181
-39.6222	142.651	5.12134
-39.6199	160.618	5.14087
-39.618	146.373	5.1604
-39.6174	142.7955	5.17993
-39.6158	163.671	5.19946
-39.6144	150.106	5.21899
-39.6121	143.803	5.23853
-39.6098	163.616	5.25806
-39.609	161.605	5.27759
-39.6073	143.844	5.29712
-39.6059	161.644	5.31665
-39.6036	165.856	5.33618
-39.6024	150.405	5.35571
-39.6004	160.609	5.37524
-39.5993	172.71	5.39478
-39.5974	156.503	5.41431
-39.5968	155.707	5.43384
-39.594	176.767	5.45337
-39.5932	158.175	5.4729
-39.5917	158.807	5.49243
-39.5888	179.337	5.51196
-39.5877	171.077	5.53149
-39.5862	154.059	5.55103
-39.58408	181.678	5.57056
-39.5822	176.851	5.59009
-39.5822	159.3868	5.60962
-39.5801	178.009	5.62915
-39.5785	183.741	5.64868
-39.5765	162.271	5.66821
-39.5738	178.942	5.68774
-39.5728	188.605	5.70728
-39.5717	168.8056	5.72681
-39.57127	173.768	5.74634
-39.5685	192.025	5.76587
-39.5672	173.464	5.7854
-39.564	174.088	5.80493
-39.5633	196.339	5.82446
-39.5619	185.704	5.84399
-39.56036	173.659	5.86353
-39.5582	192.451	5.88306
-39.5572	190.331	5.90259
-39.5558	175.243	5.92212
-39.5537	194.579	5.94165
-39.5518	198.847	5.96118
-39.5491	181.064	5.98071
-39.5495	189.999	6.00024
-39.5466	205.233	6.01978
-39.5463	186.157	6.03931
-39.5442	189.623	6.05884
-39.54324	208.601	6.07837
-39.5405	195.012	6.0979
-39.54	185.619	6.11743
-39.5384	209.236	6.13696
-39.536	199.611	6.15649
-39.5337	190.6266	6.17603
-39.5322	212.019	6.19556
-39.5317	209.118	6.21509
-39.5279	186.5453	6.23462
-39.5265	209.82	6.25415
-39.5279	215.007	6.27368
-39.5241	196.562	6.29321
-39.5229	206.977	6.31274
-39.5204	219.1163	6.33228
-39.5193	199.035	6.35181
-39.5176	206.318	6.37134
-39.5164	222.9317	6.39087
-39.5144	207.377	6.4104
-39.51339	204.031	6.42993
-39.5117	224.687	6.44946
-39.51	212.694	6.46899
-39.5091	204.42	6.48853
-39.5064	225.769	6.50806
-39.5043	223.9313	6.52759
-39.5034	207.787	6.54712
-39.5025	221.73	6.56665
-39.5007	229.293	6.58618
-39.4989	211.939	6.60571
-39.496	223.963	6.62524
-39.4943	235.298	6.64478
-39.4929	217.148	6.66431
-39.4918	217.066	6.68384
-39.4905	238.997	6.70337
-39.4897	222.723	6.7229
-39.4876	220.061	6.74243
-39.485	240.6701	6.76196
-39.4832	231.671	6.78149
-39.4822	216.7803	6.80103
-39.4812	240.92	6.82056
-39.4788	238.21	6.84009
-39.4784	222.17	6.85962
-39.4764	241.608	6.87915
-39.4748	244.886	6.89868
-39.4711	221.669	6.91821
-39.4706	237.721	6.93774
-39.4691	253.125	6.95728
-39.46806	231.568	6.97681
-39.4665	236.32	6.99634
-39.4638	252.254	7.01587
-39.4631	236.694	7.0354
-39.4613	235.86	7.05493
-39.4595	257.27	7.07446
-39.4583	246.008	7.09399
-39.4562	235.296	7.11353
-39.4541	256.09	7.13306
-39.4527	253.849	7.15259
-39.4516	236.676	7.17212
-39.4498	257.3035	7.19165
-39.4477	262.619	7.21118
-39.4457	243.316	7.23071
-39.4449	249.819	7.25024
-39.4439	266.8	7.26978
-39.4411	247.117	7.28931
-39.4398	252.076	7.30884
-39.4388	270.991	7.32837
-39.4363	255.232	7.3479
-39.4351	246.326	7.36743
-39.4335	272.584	7.38696
-39.43222	261.967	7.40649
-39.4302	250.789	7.42603
-39.4285	272.245	7.44556
-39.4261	270.575	7.46509
-39.4239	249.0433	7.48462
-39.4234	269.955	7.50415
-39.42234	276.295	7.52368
-39.42	256.269	7.54321
-39.4194	269.161	7.56274
-39.4166	279.892	7.58228
-39.4154	259.096	7.60181
-39.4137	267.627	7.62134
-39.412	285.694	7.64087
-39.4098	268.854	7.6604
-39.4098	265.661	7.67993
-39.4073	284.691	7.69946
-39.4061	277.299	7.71899
-39.40456	266.4454	7.73853
-39.4024	287.505	7.75806
-39.4007	285.641	7.77759
-39.3986	269.449	7.79712
-39.3976	282.595	7.81665
-39.3966	292.122	7.83618
-39.3951	269.591	7.85571
-39.39296	283.095	7.87524
-39.3914	296.637	7.89478
-39.3891	279.462	7.91431
-39.3886	276.524	7.93384
-39.3859	302.778	7.95337
-39.3838	284.316	7.9729
-39.38279	281.149	7.99243
-39.3812	300.643	8.01196
-39.3791	291.059	8.03149
-39.3783	278.345	8.05103
-39.3755	303.992	8.07056
-39.3746	298.389	8.09009
-39.3726	281.928	8.10962
-39.37241	299.509	8.12915
-39.3697	304.0882	8.14868
-39.3686	284.659	8.16821
-39.3671	296.7717	8.18774
-39.3644	310.063	8.20728
-39.3635	291.873	8.22681
-39.3614	297.07	8.24634
-39.3599	311.079	8.26587
-39.3578	298.111	8.2854
-39.3571	294.149	8.30493
-39.355	315.754	8.32446
-39.3536	305.62	8.34399
-39.35257	295.001	8.36353
-39.351	312.771	8.38306
-39.3494	313.011	8.40259
-39.3467	297.914	8.42212
-39.3463	314.365	8.44165
-39.3435	321.599	8.46118
-39.3419	303.223	8.48071
-39.3407	308.629	8.50024
-39.3387	325.7561	8.51978
-39.3378	305.888	8.53931
-39.3355	311.405	8.55884
-39.3331	328.62	8.57837
-39.3332	314.967	8.5979
-39.3302	306.068	8.61743
-39.329	331.782	8.63696
-39.3277	319.072	8.65649
-39.3257	310.629	8.67603
-39.32394	331.265	8.69556
-39.3228	328.333	8.71509
-39.3207	310.171	8.73462
-39.3202	330.575	8.75415
-39.318	334.704	8.77368
-39.3158	313.554	8.79321
-39.3145	328.496	8.81274
-39.3135	338.47	8.83228
-39.3111	319.298	8.85181
-39.3099	323.758	8.87134
-39.3084	343.024	8.89087
-39.3067	328.691	8.9104
-39.3046	325.506	8.92993
-39.30315	341.79	8.94946
-39.3015	335.16	8.96899
-39.2993	323.802	8.98853
-39.2979	346.672	9.00806
-39.2966	343.757	9.02759
-39.2956	327.065	9.04712
-39.2939	340.068	9.06665
-39.2919	351.728	9.08618
-39.2904	328.44	9.10571
-39.28767	343.359	9.12524
-39.2854	354.5441	9.14478
-39.2846	336.948	9.16431
-39.2836	337.938	9.18384
-39.2816	357.668	9.20337
-39.2809	341.095	9.2229
-39.2786	339.405	9.24243
-39.2772	360.581	9.26196
-39.2759	349.089	9.28149
-39.2737	336.24	9.30103
-39.2724	361.007	9.32056
-39.271	357.565	9.34009
-39.2689	340.34	9.35962
-39.2679	359.63	9.37915
-39.2671	360.185	9.39868
-39.263	342.938	9.41821
-39.2635	357.2041	9.43774
-39.2611	369.758	9.45728
-39.26009	347.587	9.47681
-39.2571	356.945	9.49634
-39.2569	370.496	9.51587
-39.2549	357.265	9.5354
-39.2531	351.202	9.55493
-39.2503	375.603	9.57446
-39.2492	362.776	9.59399
-39.2487	353.4935	9.61353
-39.24609	369.453	9.63306
-39.2446	372.017	9.65259
-39.2427	353.654	9.67212
-39.24	374.542	9.69165
-39.2392	379.021	9.71118
-39.2383	358.113	9.73071
-39.2364	367.42	9.75024
-39.2347	384.349	9.76978
-39.2333	362.523	9.78931
-39.2324	369.635	9.80884
-39.2295	386.717	9.82837
-39.22805	369.782	9.8479
-39.227	364.141	9.86743
-39.2247	388.997	9.88696
-39.2226	376.759	9.90649
-39.2218	368.09	9.92603
-39.22	388.717	9.94556
-39.2183	382.237	9.96509
-39.21756	364.764	9.98462
-39.2154	387.645	10.00415
-39.2141	391.613	10.0237
-39.2117	372.608	10.0432
-39.2097	385.882	10.0627
-39.2093	392.736	10.0823
-39.2068	377.075	10.1018
-39.2052	384.168	10.1213
-39.2044	401.55	10.1409
-39.2012	384.875	10.1604
-39.2005	383.538	10.1799
-39.19957	399.997	10.1995
-39.19701	392.091	10.219
-39.1964	379.183	10.2385
-39.1937	402.923	10.2581
-39.1922	398.417	10.2776
-39.1906	382.537	10.2971
-39.1894	397.511	10.31665
-39.1882	406.577	10.3362
-39.1871	384.273	10.3557
-39.1841	399.264	10.3752
-39.1833	409.157	10.3948
-39.1826	390.537	10.4143
-39.1808	393.283	10.4338
-39.1774	416.209	10.4534
-39.1764	396.366	10.4729
-39.17485	393.857	10.4924
-39.1734	416.795	10.512
-39.171	403.765	10.5315
-39.1705	392.492	10.551
-39.1681	415.396	10.5706
-39.1653	411.3895	10.5901
-39.166	395.169	10.6096
-39.1622	417.207	10.62915
-39.1611	415.089	10.6487
-39.161	396.2764	10.6682
-39.1584	412.12	10.6877
-39.1576	425.649	10.7073
-39.1547	404.157	10.7268
-39.1543	410.003	10.7463
-39.152	425.169	10.7659
-39.1505	412.199	10.7854
-39.1485	408.735	10.8049
-39.1466	430.071	10.8245
-39.1446	417.0293	10.844
-39.1437	410.12	10.8635
-39.14172	427.252	10.8831
-39.1408	427.931	10.9026
-39.1386	408.4	10.9221
-39.1369	428.301	10.94165
-39.136	432.481	10.9612
-39.1329	412.633	10.9807
-39.1325	422.714	11.0002
-39.131	437.686	11.0198
-39.1294	417.035	11.0393
-39.1278	423.949	11.0588
-39.1257	441.069	11.0784
-39.1232	422.929	11.0979
-39.1226	419.722	11.1174
-39.1217	442.564	11.137
-39.1211	432.388	11.1565
-39.1171	419.921	11.176
-39.116	443.597	11.1956
-39.1145	434.72	11.2151
-39.1134	422.233	11.2346
-39.1118	439.6423	11.25415
-39.1098	446.381	11.2737
-39.10759	424.712	11.2932
-39.10648	441.5701	11.3127
-39.1059	447.2	11.3323
-39.1032	428.791	11.3518
-39.1014	435.577	11.3713
-39.0986	455.294	11.3909
-39.09898	437.459	11.4104
-39.0965	436.487	11.4299
-39.0949	451.952	11.4495
-39.0935	445.3862	11.469
-39.0919	433.082	11.4885
-39.0903	456.078	11.5081
-39.0879	449.978	11.5276
-39.0857	435.849	11.5471
-39.0845	451.337	11.56665
-39.08186	457.852	11.5862
-39.0817	436.588	11.6057
-39.0794	451.44	11.6252
-39.0787	463.782	11.6448
-39.077	442.555	11.6643
-39.0759	446.125	11.6838
-39.074	465.885	11.7034
-39.0725	449.852	11.7229
-39.0701	447.208	11.7424
-39.0687	469.007	11.762
-39.0673	452.369	11.7815
-39.0667	444.608	11.801
-39.0626	468.251	11.8206
-39.062	463.721	11.8401
-39.0606	444.895	11.8596
-39.0584	467.42	11.87915
-39.0576	466.3685	11.8987
-39.0568	451.81	11.9182
-39.0551	462.977	11.9377
-39.0524	476.48	11.9573
-39.05014	455.849	11.9768
-39.04884	463.507	11.9963
-39.0473	474.383	12.0159
-39.0463	460.488	12.0354
-39.0441	459.3374	12.0549
-39.0432	482.197	12.0745
-39.0417	468.1	12.094
-39.03857	457.961	12.1135
-39.0377	476.589	12.1331
-39.036	476.349	12.1526
-39.0352	459.912	12.1721
-39.0332	478.65	12.19165
-39.0324	481.55	12.2112
-39.03022	461.727	12.2307
-39.0289	476.136	12.2502
-39.02668	487.51	12.2698
-39.0249	466.768	12.2893
-39.0225	474.021	12.3088
-39.0229	491.352	12.3284
-39.0191	472.335	12.3479
-39.0185	470.532	12.3674
-39.0168	491.281	12.387
-39.0159	480.998	12.4065
-39.0144	471.056	12.426
-39.0115	494.014	12.4456
-39.01	483.1897	12.4651
-39.0093	473.0051	12.4846
-39.0061	491.959	12.50415
-39.0061	494.7	12.5237
-39.004	473.927	12.5432
-39.0024	489.422	12.5627
-39.0008	495.195	12.5823
-38.9992	479.865	12.6018
-38.9973	483.756	12.6213
-38.9955	502.1795	12.6409
-38.9933	484.803	12.6604
-38.9925	483.942	12.6799
-38.9913	499.535	12.6995
-38.9897	491.831	12.719
-38.989	482.068	12.7385
-38.9853	504.0589	12.7581
-38.9836	498.174	12.7776
-38.9828	481.795	12.7971
-38.9813	499.49	12.81665
-38.9791	505.887	12.8362
-38.9773	486.412	12.8557
-38.97625	498.205	12.8752
-38.9745	510.436	12.8948
-38.9727	487.967	12.9143
-38.9714	496.729	12.9338
-38.9695	513.299	12.9534
-38.9685	495.018	12.9729
-38.9665	493.985	12.9924
-38.9647	516.923	13.012
-38.963	498.801	13.0315
-38.9613	492.057	13.051
-38.9608	513.05	13.0706
-38.9594	511.012	13.0901
-38.957	493.312	13.1096
-38.9543	513.744	13.12915
-38.953	510.678	13.1487
-38.9526	497.618	13.1682
-38.9492	509.531	13.1877
-38.9482	519.922	13.2073
-38.9469	500.7872	13.2268
-38.9456	506.264	13.2463
-38.9443	520.279	13.2659
-38.9426	507.671	13.2854
-38.9403	501.9	13.3049
-38.9391	523.662	13.3245
-38.9366	514.717	13.344
-38.9372	502.691	13.3635
-38.9338	519.652	13.3831
-38.9327	519.763	13.4026
-38.9309	503.396	13.4221
-38.9295	520.475	13.44165
-38.9279	525.989	13.4612
-38.9265	504.795	13.4807
-38.9242	514.211	13.5002
-38.9218	530.144	13.5198
-38.9209	513.104	13.5393
-38.9203	513.059	13.5588
-38.9185	532.732	13.5784
-38.9162	516.228	13.5979
-38.9138	512.696	13.6174
-38.9131	532.731	13.637
-38.9096	525.308	13.6565
-38.9098	511.573	13.676
-38.908	533.264	13.6956
-38.9056	528.2868	13.7151
-38.9051	513.453	13.7346
-38.9029	528.98	13.75415
-38.9006	536.776	13.7737
-38.8991	518.18	13.7932
-38.8965	525.6	13.8127
-38.896	536.268	13.8323
-38.8954	521.825	13.8518
-38.8926	522.138	13.8713
-38.8917	544.062	13.8909
-38.8906	527.423	13.9104
-38.8888	520.755	13.9299
-38.886	540.854	13.9495
-38.885	535.079	13.969
-38.8836	519.3996	13.9885
-38.8814	539.134	14.0081
-38.88	540.589	14.0276
-38.8787	519.124	14.0471
-38.8773	535.108	14.06665
-38.8749	543.276	14.0862
-38.8756	523.662	14.1057
-38.8719	533.647	14.1252
-38.8696	548.36	14.1448
-38.8683	524.973	14.1643
-38.8678	529.096	14.1838
-38.8658	550.269	14.2034
-38.8635	536.999	14.2229
-38.8625	528.877	14.2424
-38.8592	550.742	14.262
-38.8585	538.52	14.2815
-38.85672	530.481	14.301
-38.8555	546.2149	14.3206
-38.8542	546.699	14.3401
-38.8528	528.987	14.3596
-38.8518	546.192	14.37915
-38.8493	549.042	14.3987
-38.8468	532.6449	14.4182
-38.8459	540.064	14.4377
-38.8434	555.423	14.4573
-38.8418	536.524	14.4768
-38.8411	536.758	14.4963
-38.8396	552.572	14.5159
-38.8372	543.551	14.5354
-38.8364	534.7738	14.5549
-38.8346	555.415	14.5745
-38.8323	547.295	14.594
-38.831	533.069	14.6135
-38.8293	553.278	14.6331
-38.8284	553.849	14.6526
-38.8254	534.297	14.6721
-38.8249	550.293	14.69165
-38.8239	558.607	14.7112
-38.8226	535.358	14.7307
-38.8191	545.462	14.7502
-38.8183	560.091	14.7698
-38.817	542.915	14.7893
-38.8152	543.966	14.8088
-38.8129	562.931	14.8284
-38.8128	542.859	14.8479
-38.8097	541.731	14.8674
-38.8091	561.541	14.887
-38.8053	553.895	14.9065
-38.80545	539.511	14.926
-38.805	559.747	14.9456
-38.8016	555.439	14.9651
-38.80088	541.399	14.9846
-38.79837	553.672	15.00415
-38.7967	562.627	15.0237
-38.7956	543.511	15.0432
-38.7931	552.167	15.0627
-38.7914	563.052	15.0823
-38.7907	545.9328	15.1018
-38.7884	546.697	15.1213
-38.7878	567.015	15.1409
-38.78447	551.658	15.1604
-38.7843	542.8515	15.1799
-38.7822	563.294	15.1995
-38.78	556.4613	15.219
-38.77948	543.669	15.2385
-38.7779	562.563	15.2581
-38.7764	562.316	15.2776
-38.775	539.55	15.2971
-38.7733	558.715	15.31665
-38.7704	566.476	15.3362
-38.7683	544.326	15.3557
-38.7681	553.494	15.3752
-38.7668	570.095	15.3948
-38.7658	546.368	15.4143
-38.7635	550.169	15.4338
-38.76144	568.699	15.4534
-38.7601	555.816	15.4729
-38.7582	548.533	15.4924
-38.7562	568.38	15.512
-38.7552	555.9574	15.5315
-38.7535	545.608	15.551
-38.751	565.64	15.5706
-38.7513	565.2984	15.5901
-38.7481	544.424	15.6096
-38.7463	562.424	15.62915
-38.7449	565.368	15.6487
-38.74279	549.825	15.6682
-38.7422	554.961	15.6877
-38.7395	569.333	15.7073
-38.7388	552.676	15.7268
-38.7374	551.459	15.7463
-38.7353	568.727	15.7659
-38.7333	555.356	15.7854
-38.73151	548.551	15.8049
-38.7298	570.2981	15.8245
-38.7283	561.815	15.844
-38.7271	544.1322	15.8635
-38.7255	565.427	15.8831
-38.7242	565.175	15.9026
-38.72163	548.419	15.9221
-38.7202	561.057	15.94165
-38.7185	569.37	15.9612
-38.717	544.162	15.9807
-38.7147	557.888	16.0002
-38.7136	570.4455	16.0198
-38.7129	552.029	16.0393
-38.7104	552.1571	16.0588
-38.7097	571.399	16.0784
-38.7066	552.689	16.0979
-38.70496	548.457	16.1174
-38.7037	568.03	16.137
-38.7033	562.1283	16.1565
-38.7005	546.824	16.176
-38.6996	566.798	16.1956
-38.698	560.282	16.2151
-38.6962	546.856	16.2346
-38.69511	561.119	16.25415
-38.6929	567.552	16.2737
-38.6911	546.263	16.2932
-38.6898	554.716	16.3127
-38.6874	566.794	16.3323
-38.6876	550.591	16.3518
-38.685	551.001	16.3713
-38.6834	568.925	16.3909
-38.6814	553.602	16.4104
-38.6804	545.341	16.4299
-38.67857	565.837	16.4495
-38.677	557.609	16.469
-38.6756	545.148	16.4885
-38.6719	564.583	16.5081
-38.6716	564.04	16.5276
-38.6704	539.691	16.5471
-38.6683	560.848	16.56665
-38.6669	565.5564	16.5862
-38.6653	546.401	16.6057
-38.6637	554.474	16.6252
-38.6614	568.156	16.6448
-38.6606	544.698	16.6643
-38.6584	550.512	16.6838
-38.6568	566.812	16.7034
-38.6554	551.929	16.7229
-38.6541	545.311	16.7424
-38.6512	567.827	16.762
-38.6512	553.79	16.7815
-38.6492	541.67	16.801
-38.64822	562.266	16.8206
-38.6453	561.7771	16.8401
-38.6445	542.312	16.8596
-38.64225	556.866	16.87915
-38.6421	562.111	16.8987
-38.639	542.71	16.9182
-38.6366	553.084	16.9377
-38.6351	567.065	16.9573
-38.63451	546.056	16.9768
-38.6331	544.456	16.9963
-38.6306	564.492	17.0159
-38.6289	549.708	17.0354
-38.6278	541.756	17.0549
-38.6263	563.122	17.0745
-38.6238	554.499	17.094
-38.62191	536.665	17.1135
-38.6214	560.21	17.1331
-38.6207	556.733	17.1526
-38.6182	539.769	17.1721
-38.6158	557.114	17.19165
-38.6144	562.49	17.2112
-38.6129	537.42	17.2307
-38.6118	551.76	17.2502
-38.6098	564.18	17.2698
-38.6091	544.7915	17.2893
-38.6062	545.653	17.3088
-38.60574	563.4494	17.3284
-38.6032	545.426	17.3479
-38.60043	543.354	17.3674
-38.5999	560.634	17.387
-38.5983	552.717	17.4065
-38.5976	538.113	17.426
-38.5947	558.594	17.4456
-38.5934	554.455	17.4651
-38.5924	538.842	17.4846
-38.5895	554.436	17.50415
-38.5891	560.105	17.5237
-38.5863	540.022	17.5432
-38.58556	545.238	17.5627
-38.5844	559.217	17.5823
-38.581	541.749	17.6018
-38.5809	543.324	17.6213
-38.5788	561.6535	17.6409
-38.5771	545.374	17.6604
-38.5759	535.011	17.6799
-38.5752	559.804	17.6995
-38.5729	549.522	17.719
-38.5699	535.549	17.7385
-38.5684	554.647	17.7581
-38.5675	555.112	17.7776
-38.5654	532.346	17.7971
-38.5639	552.784	17.81665
-38.5624	555.8	17.8362
-38.5624	536.323	17.8557
-38.5594	547.512	17.8752
-38.5576	561.261	17.8948
-38.5559	535.459	17.9143
-38.5535	542.197	17.9338
-38.5533	557.763	17.9534
-38.5525	543.654	17.9729
-38.55	535.622	17.9924
-38.5486	557.323	18.012
-38.547	545.61	18.0315
-38.544	535.176	18.051
-38.5433	553.074	18.0706
-38.5424	550.191	18.0901
-38.5397	533.156	18.1096
-38.5383	547.621	18.12915
-38.5365	554.323	18.1487
-38.5346	532.837	18.1682
-38.5333	544.5451	18.1877
-38.5314	558.519	18.2073
-38.53	539.498	18.2268
-38.52713	536.4408	18.2463
-38.5269	557.156	18.2659
-38.5254	541.567	18.2854
-38.52433	536.02	18.3049
-38.52216	555.491	18.3245
-38.5196	545.1626	18.344
-38.51881	528.233	18.3635
-38.5175	553.927	18.3831
-38.5158	549.486	18.4026
-38.5142	530.964	18.4221
-38.5113	547.328	18.44165
-38.5104	553.733	18.4612
-38.5086	528.91	18.4807
-38.5069	541.563	18.5002
-38.5063	555.075	18.5198
-38.5042	535.951	18.5393
-38.5027	536.806	18.5588
-38.5015	555.547	18.5784
-38.4987	536.806	18.5979
-38.4977	533.657	18.6174
-38.4961	554.824	18.637
-38.4938	545.198	18.6565
-38.4918	530.6947	18.676
-38.4904	548.361	18.6956
-38.4896	546.736	18.7151
-38.4882	529.912	18.7346
-38.4863	546.67	18.75415
-38.4841	551.138	18.7737
-38.4829	531.712	18.7932
-38.4816	538.422	18.8127
-38.4794	554.769	18.8323
-38.47789	532.403	18.8518
-38.47578	535.0752	18.8713
-38.476	554.819	18.8909
-38.4724	539.3717	18.9104
-38.4716	528.884	18.9299
-38.46941	551.217	18.9495
-38.4688	541.896	18.969
-38.466	529.931	18.9885
-38.4653	548.461	19.0081
-38.4624	547.36	19.0276
-38.4624	522.6615	19.0471
-38.4603	546.671	19.06665
-38.4577	550.551	19.0862
-38.4584	528.0705	19.1057
-38.455	540.693	19.1252
-38.4525	552.522	19.1448
-38.4523	529.562	19.1643
-38.4507	533.281	19.1838
-38.4487	551.44	19.2034
-38.4474	536.439	19.2229
-38.4462	530.1759	19.2424
-38.4442	548.917	19.262
-38.4422	537.442	19.2815
-38.43935	526.5163	19.301
-38.4389	546.649	19.3206
-38.43708	545.108	19.3401
-38.436	526.846	19.3596
-38.4341	539.268	19.37915
-38.4323	547.792	19.3987
-38.431	527.819	19.4182
-38.4288	538.908	19.4377
-38.4265	550.209	19.4573
-38.42654	532.802	19.4768
-38.4254	530.082	19.4963
-38.4225	551.482	19.5159
-38.4204	533.025	19.5354
-38.42	527.288	19.5549
-38.4178	550.0282	19.5745
-38.4151	540.5	19.594
-38.4135	521.537	19.6135
-38.4123	545.989	19.6331
-38.4115	542.456	19.6526
-38.4102	524.351	19.6721
-38.4075	540.238	19.69165
-38.40543	546.523	19.7112
-38.4052	523.4411	19.7307
-38.4033	536.659	19.7502
-38.4009	550.158	19.7698
-38.399	529.002	19.7893
-38.3983	531.788	19.8088
-38.3974	548.0954	19.8284
-38.3949	530.672	19.8479
-38.39307	526.54	19.8674
-38.3912	546.522	19.887
-38.39072	538.16	19.9065
-38.38755	525.284	19.926
-38.3861	542.255	19.9456
-38.3849	542.1084	19.9651
-38.3837	522.707	19.9846
-38.3811	541.514	20.00415
-38.3805	545.868	20.0139

Data Header:			0.254_hd_uprint_typeiv_4545_r0			Time:	28.4661	s	4/13/2019 7:12:18 PM
Data Acquisition:	Timed
Station Name:	ft40.cfg
Test File Name:	monotonic_0.2540_typeiv_hd_4545_uprint.tst
Displacement	Force	Running Time
mm	N	s
-38.38	546.434	20.0237
-38.3793	535.669	20.0334
-38.3773	525.459	20.0432
-38.3777	525.5379	20.053
-38.3773	530.6568	20.0627
-38.3756	544.277	20.07251
-38.3749	547.912	20.0823
-38.3745	538.957	20.092
-38.3731	527.874	20.1018
-38.3731	519.935	20.1116
-38.3715	530.5993	20.1213
-38.3713	538.631	20.1311
-38.3695	546.764	20.1409
-38.3701	544.898	20.1506
-38.3688	532.542	20.1604
-38.3683	523.826	20.1702
-38.3678	521.082	20.1799
-38.3658	534.36	20.1897
-38.3658	547.759	20.1995
-38.3638	548.056	20.2092
-38.3647	534.667	20.219
-38.3636	522.798	20.22876
-38.3611	523.6098	20.2385
-38.3609	528.864	20.2483
-38.3601	543.525	20.2581
-38.36	545.462	20.2678
-38.3584	542.746	20.2776
-38.3573	529.748	20.2874
-38.3574	518.229	20.2971
-38.3565	526.929	20.3069
-38.3566	537.604	20.31665
-38.3547	547.419	20.3264
-38.3536	545.041	20.3362
-38.3537	530.31	20.3459
-38.3527	523.916	20.3557
-38.3508	523.345	20.3655
-38.3502	532.741	20.3752
-38.35	545.534	20.38501
-38.3488	544.077	20.3948
-38.349	539.504	20.4045
-38.3482	524.501	20.4143
-38.3468	522.098	20.4241
-38.3467	528.373	20.4338
-38.3451	539.829	20.4436
-38.34409	547.7019	20.4534
-38.3433	539.743	20.4631
-38.34288	530.728	20.4729
-38.34235	523.255	20.4827
-38.3412	524.807	20.4924
-38.3399	534.236	20.5022
-38.3395	542.349	20.512
-38.3382	545.193	20.5217
-38.3386	535.287	20.5315
-38.336	524.11	20.54126
-38.3369	521.4682	20.551
-38.3349	529.268	20.5608
-38.3338	542.96	20.5706
-38.3341	542.447	20.5803
-38.3325	540.341	20.5901
-38.3316	527.619	20.5999
-38.331	521.944	20.6096
-38.3304	524.4101	20.6194
-38.33025	532.797	20.62915
-38.3282	546.502	20.6389
-38.32872	544.831	20.6487
-38.3264	534.582	20.6584
-38.3275	521.949	20.6682
-38.32576	519.844	20.678
-38.3246	533.037	20.6877
-38.32444	540.709	20.69751
-38.3232	546.15	20.7073
-38.3224	537.72	20.717
-38.321	524.5769	20.7268
-38.3203	522.097	20.7366
-38.3211	522.057	20.7463
-38.3187	538.324	20.7561
-38.3179	548.931	20.7659
-38.3178	542.793	20.7756
-38.3168	530.726	20.7854
-38.3155	519.096	20.7952
-38.3148	523.586	20.8049
-38.3138	534.956	20.8147
-38.3132	544.043	20.8245
-38.3128	544.393	20.8342
-38.31089	535.538	20.844
-38.3109	524.185	20.85376
-38.3103	517.436	20.8635
-38.3079	527.334	20.8733
-38.3086	541.184	20.8831
-38.3074	546.417	20.8928
-38.3073	538.162	20.9026
-38.3068	524.046	20.9124
-38.3052	520.005	20.9221
-38.3048	525.223	20.9319
-38.3035	537.69	20.94165
-38.303	544.341	20.9514
-38.302	541.671	20.9612
-38.3008	532.082	20.9709
-38.3007	518.5163	20.9807
-38.2987	521.826	20.9905
-38.2978	530.553	21.0002
-38.2976	542.678	21.01001
-38.2984	546.198	21.0198
-38.297	531.886	21.0295
-38.2952	524.837	21.0393
-38.2952	522.369	21.0491
-38.2935	526.642	21.0588
-38.292	538	21.0686
-38.2925	542.475	21.0784
-38.2911	540.529	21.0881
-38.2911	528.871	21.0979
-38.2894	520.872	21.1077
-38.2893	522.426	21.1174
-38.2878	533.272	21.1272
-38.2873	544.2359	21.137
-38.2864	540.381	21.1467
-38.2856	532.863	21.1565
-38.28537	524.548	21.16626
-38.2834	521.7583	21.176
-38.2837	526.959	21.1858
-38.2826	537.31	21.1956
-38.2817	544.211	21.2053
-38.2811	539.131	21.2151
-38.2803	526.206	21.2249
-38.2798	517.631	21.2346
-38.27858	521.635	21.2444
-38.2775	535.549	21.25415
-38.27726	541.033	21.2639
-38.2765	541.278	21.2737
-38.2748	530.24	21.2834
-38.27319	521.093	21.2932
-38.2736	520.4444	21.303
-38.2725	526.287	21.3127
-38.2708	541.714	21.32251
-38.2709	544.689	21.3323
-38.2702	537.2171	21.342
-38.2685	523.4942	21.3518
-38.2685	515.86	21.3616
-38.2679	525.869	21.3713
-38.2673	535.63	21.3811
-38.2653	543.7702	21.3909
-38.2655	538.2901	21.4006
-38.2641	528.439	21.4104
-38.26453	520.5639	21.4202
-38.26366	517.7	21.4299
-38.2621	531.943	21.4397
-38.2613	543.693	21.4495
-38.2604	542.242	21.4592
-38.2594	534.496	21.469
-38.2597	518.647	21.47876
-38.2584	518.514	21.4885
-38.2564	528.491	21.4983
-38.2562	539.427	21.5081
-38.2555	541.929	21.5178
-38.2555	535.13	21.5276
-38.2534	525.97	21.5374
-38.252	516.576	21.5471
-38.2526	521.774	21.5569
-38.2523	534.911	21.56665
-38.2505	544.428	21.5764
-38.2498	540.615	21.5862
-38.25	526.29	21.5959
-38.2481	519.501	21.6057
-38.2477	520.7572	21.6155
-38.247	530.7738	21.6252
-38.2457	540.074	21.63501
-38.2446	540.73	21.6448
-38.2434	534.911	21.6545
-38.2438	520.843	21.6643
-38.2434	518.597	21.6741
-38.2411	523.242	21.6838
-38.2412	536.269	21.6936
-38.2392	543.22	21.7034
-38.238	534.1814	21.7131
-38.2387	526.248	21.7229
-38.23774	518.35	21.7327
-38.2362	521.494	21.7424
-38.2351	531.647	21.7522
-38.2355	538.59	21.762
-38.2337	542.278	21.7717
-38.234	533.0423	21.7815
-38.2328	521.0307	21.79126
-38.2318	518.431	21.801
-38.2311	524.7558	21.8108
-38.2304	539.044	21.8206
-38.23	541.046	21.8303
-38.2284	535.676	21.8401
-38.2266	525.062	21.8499
-38.227	517.8	21.8596
-38.2267	521.083	21.8694
-38.2254	528.725	21.87915
-38.2238	540.317	21.8889
-38.2232	540.963	21.8987
-38.2226	529.616	21.9084
-38.2222	517.849	21.9182
-38.2218	515.744	21.928
-38.2206	528.286	21.9377
-38.2198	538.727	21.94751
-38.21804	544.69	21.9573
-38.2187	532.743	21.967
-38.2185	523.674	21.9768
-38.2157	517.891	21.9866
-38.2157	520.352	21.9963
-38.2151	535.477	22.0061
-38.2144	544.088	22.0159
-38.2129	539.936	22.0256
-38.2119	527.101	22.0354
-38.212	513.658	22.0452
-38.2111	521.4	22.0549
-38.2098	531.32	22.0647
-38.2089	540.483	22.0745
-38.2079	541.643	22.0842
-38.2086	530.267	22.094
-38.207	522.446	22.10376
-38.206	514.28	22.1135
-38.20483	525.312	22.1233
-38.2039	538.642	22.1331
-38.2042	542.683	22.1428
-38.20174	537.2	22.1526
-38.2033	520.039	22.1624
-38.2024	516.5896	22.1721
-38.1987	523.323	22.1819
-38.19973	532.715	22.19165
-38.19838	541.325	22.2014
-38.1985	537.264	22.2112
-38.1961	527.744	22.2209
-38.1962	517.183	22.2307
-38.1955	517.799	22.2405
-38.1951	527.567	22.2502
-38.194	540.165	22.26001
-38.1931	541.048	22.2698
-38.1924	531.434	22.2795
-38.1909	520.795	22.2893
-38.1909	516.613	22.2991
-38.191	525.649	22.3088
-38.1883	533.739	22.3186
-38.1887	539.299	22.3284
-38.1876	536.762	22.3381
-38.1862	526.021	22.3479
-38.1844	518.696	22.3577
-38.1856	516.916	22.3674
-38.1845	529.411	22.3772
-38.1831	541.2583	22.387
-38.1833	537.431	22.3967
-38.1814	532.774	22.4065
-38.18037	519.713	22.41626
-38.1789	517.082	22.426
-38.1783	525.459	22.4358
-38.1789	534.184	22.4456
-38.1777	540.924	22.4553
-38.1772	536.617	22.4651
-38.1757	524.094	22.4749
-38.1753	516.23	22.4846
-38.17437	518.877	22.4944
-38.173	533.185	22.50415
-38.1716	540.494	22.5139
-38.1723	538.505	22.5237
-38.171	527.786	22.5334
-38.17004	517.313	22.5432
-38.1706	517.542	22.553
-38.1694	524.723	22.5627
-38.1681	536.945	22.57251
-38.1657	542.825	22.5823
-38.1658	532.998	22.592
-38.1652	520.002	22.6018
-38.1647	514.059	22.6116
-38.1638	522.771	22.6213
-38.1618	535.027	22.6311
-38.1608	542.022	22.6409
-38.1616	535.409	22.6506
-38.1602	524.663	22.6604
-38.16	518.506	22.6702
-38.1584	514.222	22.6799
-38.1576	528.578	22.6897
-38.1566	539.374	22.6995
-38.1561	539.356	22.7092
-38.1557	529.668	22.719
-38.154	513.935	22.72876
-38.1528	515.923	22.7385
-38.1535	525.326	22.7483
-38.152	536.497	22.7581
-38.1527	540.945	22.7678
-38.15144	530.595	22.7776
-38.1507	523.462	22.7874
-38.1496	515.158	22.7971
-38.1489	518.8894	22.8069
-38.1464	530.919	22.81665
-38.14658	539.742	22.8264
-38.1457	539.519	22.8362
-38.1446	523.539	22.8459
-38.1453	515.894	22.8557
-38.1429	517.669	22.8655
-38.1422	527.398	22.8752
-38.1413	537.515	22.88501
-38.1408	536.861	22.8948
-38.1393	529.896	22.9045
-38.1387	520.677	22.9143
-38.1384	515.233	22.9241
-38.1374	519.703	22.9338
-38.1363	532.717	22.9436
-38.1362	539.317	22.9534
-38.13393	532.9696	22.9631
-38.1353	526.215	22.9729
-38.1342	516.651	22.9827
-38.1329	519.476	22.9924
-38.132	529.008	23.0022
-38.131	536.32	23.012
-38.1295	538.961	23.0217
-38.129	529.331	23.0315
-38.1278	519.116	23.04126
-38.12862	513.522	23.051
-38.1268	520.977	23.0608
-38.12656	536.784	23.0706
-38.1252	537.552	23.0803
-38.1241	534.853	23.0901
-38.1244	522.934	23.0999
-38.12233	514.605	23.1096
-38.1219	521.1629	23.1194
-38.1218	527.338	23.12915
-38.1195	539.7038	23.1389
-38.119	539.066	23.1487
-38.1189	527.318	23.1584
-38.1177	516.335	23.1682
-38.1169	513.462	23.178
-38.1169	524.816	23.1877
-38.1154	537.4281	23.19751
-38.1146	540.022	23.2073
-38.1134	530.935	23.217
-38.1125	519.957	23.2268
-38.1128	516.702	23.2366
-38.1115	519.333	23.2463
-38.1098	532.658	23.2561
-38.1102	541.407	23.2659
-38.10775	537.542	23.2756
-38.1084	523.558	23.2854
-38.1075	511.299	23.2952
-38.1062	515.725	23.3049
-38.1053	529.0459	23.3147
-38.1048	540.045	23.3245
-38.1041	536.704	23.3342
-38.1034	527.65	23.344
-38.1016	517.522	23.35376
-38.1015	512.258	23.3635
-38.10099	524.204	23.3733
-38.1003	534.451	23.3831
-38.0985	539.845	23.3928
-38.0978	533.552	23.4026
-38.09827	517.542	23.4124
-38.0961	514.813	23.4221
-38.0951	518.387	23.4319
-38.0959	531.84	23.44165
-38.0943	538.572	23.4514
-38.0937	532.904	23.4612
-38.09259	527.537	23.4709
-38.0923	515.954	23.4807
-38.0916	514.274	23.4905
-38.0898	525.586	23.5002
-38.0893	534.461	23.51001
-38.0881	539.4635	23.5198
-38.0881	529.026	23.5295
-38.08638	518.027	23.5393
-38.0863	513.624	23.5491
-38.0853	520.471	23.5588
-38.08429	531.907	23.5686
-38.0834	536.682	23.5784
-38.0819	531.928	23.5881
-38.0817	524.307	23.5979
-38.0814	513.895	23.6077
-38.0803	515.464	23.6174
-38.0798	524.985	23.6272
-38.0805	536.988	23.637
-38.0776	535.892	23.6467
-38.0783	528.717	23.6565
-38.077	514.727	23.66626
-38.0768	514.73	23.676
-38.0757	522.7959	23.6858
-38.0737	531.226	23.6956
-38.0736	538.188	23.7053
-38.0728	532.598	23.7151
-38.0714	520.349	23.7249
-38.0704	512.697	23.7346
-38.0688	513.677	23.7444
-38.0693	529.683	23.75415
-38.06744	536.83	23.7639
-38.068	536.074	23.7737
-38.0666	524.461	23.7834
-38.0657	513.494	23.7932
-38.065	515.416	23.803
-38.0637	520.362	23.8127
-38.0642	535.176	23.82251
-38.0633	539.547	23.8323
-38.06184	530.696	23.842
-38.0613	520.205	23.8518
-38.0597	510.331	23.8616
-38.0587	518.588	23.8713
-38.0588	532.665	23.8811
-38.0581	540.024	23.8909
-38.0563	533.281	23.9006
-38.0563	521.758	23.9104
-38.0547	513.935	23.9202
-38.0547	514.042	23.9299
-38.0539	528.3205	23.9397
-38.0521	535.6662	23.9495
-38.0527	536.642	23.9592
-38.0512	527.87	23.969
-38.0503	512.603	23.97876
-38.0492	512.54	23.9885
-38.0487	521.188	23.9983
-38.04929	534.097	24.0081
-38.0471	535.705	24.0178
-38.0465	527.941	24.0276
-38.0466	520.011	24.0374
-38.0451	513.007	24.0471
-38.044	516.411	24.0569
-38.0433	527.888	24.06665
-38.0422	536.937	24.0764
-38.0431	537.447	24.0862
-38.0406	520.695	24.0959
-38.0399	513.365	24.1057
-38.0388	514.611	24.1155
-38.0374	523.619	24.1252
-38.0376	534.7854	24.13501
-38.0369	532.32	24.1448
-38.0358	529.496	24.1545
-38.0339	518.32	24.1643
-38.0343	512.664	24.1741
-38.0334	518.454	24.1838
-38.0323	527.917	24.1936
-38.0324	539.178	24.2034
-38.0317	531.483	24.2131
-38.03	520.959	24.2229
-38.0291	512.416	24.2327
-38.0293	515.96	24.2424
-38.0273	525.869	24.2522
-38.027	533.077	24.262
-38.0263	533.901	24.2717
-38.02478	528.886	24.2815
-38.0246	515.0686	24.29126
-38.0232	510.624	24.301
-38.02235	518.51	24.3108
-38.0217	531.686	24.3206
-38.02235	537.062	24.3303
-38.0197	532.168	24.3401
-38.0193	517.187	24.3499
-38.018	512.605	24.3596
-38.0173	516.764	24.3694
-38.0162	526.041	24.37915
-38.016	535.683	24.3889
-38.0149	534.37	24.3987
-38.0155	524.933	24.4084
-38.0137	513.208	24.4182
-38.0117	509.251	24.428
-38.012	523.06	24.4377
-38.0124	533.965	24.44751
-38.0105	537.79	24.4573
-38.0096	526.332	24.467
-38.0101	514.3291	24.4768
-38.0078	512.879	24.4866
-38.0071	515.962	24.4963
-38.0067	530.573	24.5061
-38.005	537.778	24.5159
-38.0053	530.9668	24.5256
-38.0055	520.792	24.5354
-38.00301	509.554	24.5452
-38.0024	513.212	24.5549
-38.0024	525.929	24.5647
-38.001	535.561	24.5745
-38.0007	534.916	24.5842
-37.999	523.044	24.594
-37.9985	514.599	24.60376
-37.9988	511.932	24.6135
-37.9965	519.619	24.6233
-37.9955	532.14	24.6331
-37.9953	535.951	24.6428
-37.9949	530.613	24.6526
-37.9942	516.968	24.6624
-37.993	510.995	24.6721
-37.9934	516.12	24.6819
-37.9917	527.515	24.69165
-37.9904	534.504	24.7014
-37.9898	530.445	24.7112
-37.9877	522.267	24.7209
-37.9876	513.4035	24.7307
-37.9875	513.389	24.7405
-37.9862	521.527	24.7502
-37.9846	531.079	24.76001
-37.98476	538.526	24.7698
-37.9825	524.513	24.7795
-37.9836	517.026	24.7893
-37.9819	509.981	24.7991
-37.9808	517.951	24.8088
-37.9804	529.1521	24.8186
-37.9792	532.189	24.8284
-37.97842	531.103	24.8381
-37.9791	521.388	24.8479
-37.9773	510.1362	24.8577
-37.97718	512.226	24.8674
-37.9761	520.098	24.8772
-37.9749	535.065	24.887
-37.9736	534.998	24.8967
-37.9729	524.602	24.9065
-37.9709	513.765	24.91626
-37.9722	509.4827	24.926
-37.97134	519.868	24.9358
-37.9701	528.258	24.9456
-37.9698	534.665	24.9553
-37.9675	530.701	24.9651
-37.967	519.3595	24.9749
-37.9658	509.317	24.9846
-37.9658	511.275	24.9944
-37.9645	525.316	25.00415
-37.9642	536.795	25.0139
-37.9625	532.977	25.0237
-37.9631	520.553	25.0334
-37.9617	511.127	25.0432
-37.9606	511.929	25.053
-37.9605	520.306	25.0627
-37.9585	532.862	25.07251
-37.9585	534.444	25.0823
-37.9577	527.434	25.092
-37.9576	515.885	25.1018
-37.9554	507.261	25.1116
-37.95425	516.126	25.1213
-37.9541	529.419	25.1311
-37.9533	536.0025	25.1409
-37.9519	531.92	25.1506
-37.9517	516.378	25.1604
-37.9503	512.818	25.1702
-37.9503	512.706	25.1799
-37.9504	522.943	25.1897
-37.9481	533.11	25.1995
-37.94854	532.464	25.2092
-37.9476	525.983	25.219
-37.9474	510.1987	25.22876
-37.9458	509.639	25.2385
-37.944	519.583	25.2483
-37.9441	530.152	25.2581
-37.9425	535.567	25.2678
-37.9424	524.7749	25.2776
-37.9406	515.159	25.2874
-37.9397	509.972	25.2971
-37.93969	514.768	25.3069
-37.9388	523.739	25.31665
-37.9382	533.1	25.3264
-37.9374	532.954	25.3362
-37.937	519.37	25.3459
-37.9363	510.943	25.3557
-37.93475	510.643	25.3655
-37.9343	522.3681	25.3752
-37.9325	531.089	25.38501
-37.9321	532.039	25.3948
-37.9316	525.488	25.4045
-37.93	515.119	25.4143
-37.9303	511.46	25.4241
-37.929	513.208	25.4338
-37.9283	524.4494	25.4436
-37.9295	535.0459	25.4534
-37.9262	529.4787	25.4631
-37.9263	519.531	25.4729
-37.9256	508.312	25.4827
-37.9242	510.282	25.4924
-37.9236	523.349	25.5022
-37.9231	528.856	25.512
-37.9223	532.402	25.5217
-37.9207	523.116	25.5315
-37.9199	513.284	25.54126
-37.9194	509.9209	25.551
-37.9201	513.558	25.5608
-37.9175	528.241	25.5706
-37.917	535.392	25.5803
-37.9158	527.472	25.5901
-37.9148	514.656	25.5999
-37.9133	506.612	25.6096
-37.9139	515.5022	25.6194
-37.91227	522.766	25.62915
-37.9119	533.662	25.6389
-37.9108	533.269	25.6487
-37.91016	520.705	25.6584
-37.9095	509.935	25.6682
-37.9076	506.924	25.678
-37.90794	517.846	25.6877
-37.9075	531.203	25.69751
-37.9055	533.85	25.7073
-37.9052	523.0224	25.717
-37.9042	511.539	25.7268
-37.9047	508.706	25.7366
-37.903	513.357	25.7463
-37.9013	526.218	25.7561
-37.90065	531.864	25.7659
-37.9007	529.011	25.7756
-37.9003	518.42	25.7854
-37.9	504.999	25.7952
-37.8976	511.417	25.8049
-37.89576	521.004	25.8147
-37.896	532.869	25.8245
-37.8958	531.035	25.8342
-37.8955	518.216	25.844
-37.8939	511.445	25.85376
-37.8931	508.081	25.8635
-37.8929	516.56	25.8733
-37.8923	527.285	25.8831
-37.8904	529.075	25.8928
-37.89061	526.25	25.9026
-37.8895	510.935	25.9124
-37.88789	507.445	25.9221
-37.8876	511.687	25.9319
-37.8855	522.831	25.94165
-37.8868	532.6889	25.9514
-37.8854	526.954	25.9612
-37.8834	516.6745	25.9709
-37.8836	508.5675	25.9807
-37.883	506.118	25.9905
-37.8827	516.415	26.0002
-37.8808	524.8186	26.01001
-37.8798	531.144	26.0198
-37.8799	523.694	26.0295
-37.8783	510.61	26.0393
-37.8784	505.334	26.0491
-37.8769	512.563	26.0588
-37.8764	523.901	26.0686
-37.8761	527.4101	26.0784
-37.8749	525.903	26.0881
-37.8737	514.132	26.0979
-37.8732	507.2251	26.1077
-37.8721	505.501	26.1174
-37.8706	514.477	26.1272
-37.8699	528.114	26.137
-37.87064	527.258	26.1467
-37.8692	518.39	26.1565
-37.86784	504.4278	26.16626
-37.8669	500.207	26.176
-37.8679	511.707	26.1858
-37.8647	519.142	26.1956
-37.8641	527.214	26.2053
-37.8651	519.139	26.2151
-37.8636	508.912	26.2249
-37.8627	501.44	26.2346
-37.8622	501.004	26.2444
-37.8612	515.25	26.25415
-37.8602	526.168	26.2639
-37.8587	522.388	26.2737
-37.8566	510.586	26.2834
-37.8574	496.504	26.2932
-37.85622	499.041	26.303
-37.8559	509.262	26.3127
-37.8536	519.563	26.32251
-37.8534	520.504	26.3323
-37.8535	512.949	26.342
-37.8535	501.507	26.3518
-37.8513	493.38	26.3616
-37.8508	501.63	26.3713
-37.8503	514.138	26.3811
-37.8502	520.328	26.3909
-37.8484	513.192	26.4006
-37.8473	499.791	26.4104
-37.8468	492.916	26.4202
-37.845	494.874	26.4299
-37.8441	506.594	26.4397
-37.8435	514.729	26.4495
-37.8435	512.858	26.4592
-37.8419	504.294	26.469
-37.84185	487.707	26.47876
-37.841	489.586	26.4885
-37.8403	496.047	26.4983
-37.8405	509.176	26.5081
-37.8382	510.489	26.5178
-37.8374	499.924	26.5276
-37.8354	491	26.5374
-37.83773	482.955	26.5471
-37.8359	486.232	26.5569
-37.8351	495.8548	26.56665
-37.83287	499.709	26.5764
-37.8322	500.465	26.5862
-37.8321	486.845	26.5959
-37.8314	475.634	26.6057
-37.8315	473.161	26.6155
-37.8295	480.95	26.6252
-37.829	490.09	26.63501
-37.8272	487.617	26.6448
-37.8228	-152.376	26.6545
-37.8229	-17.3062	26.6643
-37.8228	-56.2756	26.6741
-37.8234	-43.462	26.6838
-37.8221	-39.11417	26.6936
-37.8228	-28.4705	26.7034
-37.8201	-33.65979	26.7131
-37.8209	-46.32077	26.7229
-37.8193	-55.9512	26.7327
-37.8186	-53.6227	26.7424
-37.8186	-38.5039	26.7522
-37.8161	-32.9865	26.762
-37.8159	-31.2814	26.7717
-37.8158	-41.80566	26.7815
-37.816	-51.3503	26.79126
-37.81506	-53.3187	26.801
-37.813	-47.939	26.8108
-37.8132	-34.3634	26.8206
-37.811	-30.0482	26.8303
-37.8121	-35.5628	26.8401
-37.81002	-49.371	26.8499
-37.8098	-56.35	26.8596
-37.8088	-48.3049	26.8694
-37.8079	-38.25732	26.87915
-37.80756	-28.3009	26.8889
-37.8064	-34.6128	26.8987
-37.8058	-46.1685	26.9084
-37.8051	-52.5533	26.9182
-37.8033	-53.98489	26.928
-37.8027	-41.556	26.9377
-37.8028	-30.9664	26.94751
-37.801	-31.3086	26.9573
-37.7999	-41.1708	26.967
-37.8012	-52.8383	26.9768
-37.7995	-53.3284	26.9866
-37.7981	-44.2655	26.9963
-37.79763	-34.2216	27.0061
-37.7967	-30.9653	27.0159
-37.7954	-38.9453	27.0256
-37.7949	-47.8523	27.0354
-37.7948	-55.01004	27.0452
-37.7934	-49.0192	27.0549
-37.7922	-36.8738	27.0647
-37.7929	-29.276	27.0745
-37.7901	-33.5634	27.0842
-37.7898	-47.1677	27.094
-37.7895	-52.6848	27.10376
-37.7882	-50.4012	27.1135
-37.7877	-41.9154	27.1233
-37.7865	-34.6168	27.1331
-37.7857	-32.726	27.1428
-37.7861	-38.1937	27.1526
-37.7846	-51.1946	27.1624
-37.78421	-52.1399	27.1721
-37.7822	-47.75	27.1819
-37.7827	-35.863	27.19165
-37.7808	-29.99824	27.2014
-37.7805	-38.5752	27.2112
-37.78088	-44.8603	27.2209
-37.7782	-51.638	27.2307
-37.7782	-50.0831	27.2405
-37.7778	-40.4854	27.2502
-37.7764	-35.5955	27.26001
-37.7758	-32.2284	27.2698
-37.7754	-42.09618	27.2795
-37.7739	-50.5928	27.2893
-37.7721	-53.025	27.2991
-37.7727	-47.3165	27.3088
-37.7728	-33.2874	27.3186
-37.7705	-32.3589	27.3284
-37.77	-38.9142	27.3381
-37.7694	-47.4172	27.3479
-37.7685	-53.4234	27.3577
-37.76725	-47.298	27.3674
-37.7666	-41.4378	27.3772
-37.7652	-31.4979	27.387
-37.7651	-31.0649	27.3967
-37.7639	-43.64584	27.4065
-37.7638	-54.5474	27.41626
-37.7635	-53.3951	27.426
-37.7611	-42.0183	27.4358
-37.7597	-33.17	27.4456
-37.7599	-30.909	27.4553
-37.7601	-39.9249	27.4651
-37.7586	-49.1103	27.4749
-37.7574	-51.6085	27.4846
-37.7564	-51.1096	27.4944
-37.7551	-36.2403	27.50415
-37.7552	-31.17351	27.5139
-37.7545	-32.9209	27.5237
-37.7524	-45.5112	27.5334
-37.75248	-57.70731	27.5432
-37.7521	-49.9696	27.553
-37.7515	-39.4787	27.5627
-37.75	-30.69253	27.57251
-37.7495	-32.1648	27.5823
-37.7487	-44.1922	27.592
-37.7479	-50.54784	27.6018
-37.7468	-56.2522	27.6116
-37.7468	-43.6312	27.6213
-37.7461	-33.09441	27.6311
-37.7443	-30.9808	27.6409
-37.7443	-37.3944	27.6506
-37.7429	-51.6548	27.6604
-37.74181	-55.5904	27.6702
-37.7413	-45.8332	27.6799
-37.741	-36.4004	27.6897
-37.7398	-30.1875	27.6995
-37.739	-36.2947	27.7092
-37.7387	-43.7481	27.719
-37.7377	-52.5563	27.72876
-37.7373	-51.225	27.7385
-37.7359	-41.10651	27.7483
-37.73497	-31.6908	27.7581
-37.7347	-30.3533	27.7678
-37.7336	-41.67741	27.7776
-37.7323	-49.909	27.7874
-37.7321	-51.69857	27.7971
-37.7318	-44.3628	27.8069
-37.73	-37.0489	27.81665
-37.7277	-33.3914	27.8264
-37.7281	-36.1814	27.8362
-37.7279	-46.8708	27.8459
-37.727	-52.8877	27.8557
-37.7252	-52.1906	27.8655
-37.7254	-39.226	27.8752
-37.7239	-30.1353	27.88501
-37.7222	-35.9301	27.8948
-37.7226	-41.0566	27.9045
-37.7218	-50.7399	27.9143
-37.7208	-52.1489	27.9241
-37.72031	-42.6993	27.9338
-37.7181	-38.5768	27.9436
-37.7181	-31.002	27.9534
-37.7186	-36.9514	27.9631
-37.7178	-47.3487	27.9729
-37.7158	-53.7532	27.9827
-37.7151	-52.3554	27.9924
-37.7148	-36.8486	28.0022
-37.7135	-30.8019	28.012
-37.7114	-33.9127	28.0217
-37.7119	-44.6391	28.0315
-37.7109	-54.3238	28.04126
-37.7112	-51.5235	28.051
-37.7098	-44.981	28.0608
-37.7091	-33.2237	28.0706
-37.7072	-29.9116	28.0803
-37.7065	-38.7856	28.0901
-37.7066	-50.48534	28.0999
-37.707	-55.8675	28.1096
-37.7042	-46.4307	28.1194
-37.7037	-34.2494	28.12915
-37.7029	-29.4338	28.1389
-37.7022	-37.6983	28.1487
-37.701	-47.2672	28.1584
-37.6998	-52.4353	28.1682
-37.7002	-53.9072	28.178
-37.6992	-37.6101	28.1877
-37.6987	-31.3951	28.19751
-37.6971	-30.7686	28.2073
-37.69619	-41.87014	28.217
-37.696	-55.82098	28.2268
-37.6955	-52.0475	28.2366
-37.69426	-42.015	28.2463
-37.6934	-32.5169	28.2561
-37.6922	-30.8579	28.2659
-37.6921	-39.7221	28.2756
-37.691	-47.0992	28.2854
-37.6897	-54.4477	28.2952
-37.6887	-47.0895	28.3049
-37.6889	-36.833	28.3147
-37.68821	-30.1237	28.3245
-37.6865	-31.5389	28.3342
-37.6855	-47.9311	28.344
-37.6853	-52.3349	28.35376
-37.684	-49.77615	28.3635
-37.6835	-41.8418	28.3733
-37.68288	-31.6294	28.3831
-37.6823	-34.2632	28.3928
-37.68092	-39.6173	28.4026
-37.6793	-49.4641	28.4124
-37.6799	-53.449	28.4221
-37.6783	-47.4566	28.4319
-37.6776	-36.9121	28.44165
-37.6774	-31.3645	28.4514
-37.6767	-40.1275	28.4612