File: data/processed_data_files/tensile/0.254_solid_dimension_typeiv_090_r(8).dat
MTS793|BTW|ENU|1|2|.|/|:|1|0|0|A

Data Header:			0.254_solid_dimension_typeiv_090_r0			Time:	20.0176	s	4/14/2019 2:01:57 AM
Data Acquisition:	Timed
Station Name:	ft40.cfg
Test File Name:	monotonic_0.2540_typeiv_solid_090_dimension.tst
Displacement	Force	Running Time
mm	N	s
-37.1258	-108.736	0.0227051
-37.1252	-110.51	0.0422363
-37.1249	-109.043	0.0617676
-37.1252	-107.903	0.0812988
-37.1243	-108.618	0.10083
-37.1228	-115.385	0.120361
-37.12117	-102.734	0.139893
-37.1198	-104.842	0.159424
-37.1183	-107.125	0.178955
-37.1168	-104.785	0.198486
-37.1148	-100.265	0.218018
-37.1142	-107.958	0.237549
-37.11031	-101.139	0.25708
-37.1097	-97.6501	0.276611
-37.1085	-99.0159	0.296143
-37.1075	-99.6766	0.315674
-37.1043	-94.4843	0.335205
-37.104	-99.2307	0.354736
-37.1022	-95.6449	0.374268
-37.1006	-91.4622	0.393799
-37.09927	-92.4367	0.41333
-37.0963	-95.7029	0.432861
-37.0955	-91.2211	0.452393
-37.0928	-88.3213	0.471924
-37.092	-91.228	0.491455
-37.0906	-87.9102	0.510986
-37.0891	-83.9911	0.530518
-37.0865	-85.7561	0.550049
-37.0849	-88.6437	0.56958
-37.0841	-81.7288	0.589111
-37.0835	-86.2048	0.608643
-37.0792	-81.47	0.628174
-37.0786	-76.1934	0.647705
-37.0776	-77.5997	0.667236
-37.0766	-83.9794	0.686768
-37.0741	-73.59684	0.706299
-37.0724	-75.7818	0.72583
-37.07	-76.8472	0.745361
-37.0686	-72.313	0.764893
-37.0672	-70.9165	0.784424
-37.0665	-80.2678	0.803955
-37.0643	-70.3783	0.823486
-37.0626	-68.1644	0.843018
-37.0617	-71.6132	0.862549
-37.0611	-67.8611	0.88208
-37.0571	-63.0825	0.901611
-37.0561	-70.6688	0.921143
-37.0541	-67.9925	0.940674
-37.0529	-60.6521	0.960205
-37.0516	-62.3859	0.979736
-37.0491	-63.3254	0.999268
-37.0478	-61.2816	1.0188
-37.0462	-62.2584	1.03833
-37.0452	-61.8221	1.05786
-37.0432	-56.873	1.07739
-37.0408	-56.2077	1.09692
-37.0402	-59.3587	1.11646
-37.0386	-58.3633	1.13599
-37.0369	-50.8927	1.15552
-37.0348	-56.3227	1.17505
-37.0329	-52.3264	1.19458
-37.0312	-47.8259	1.21411
-37.0297	-50.1257	1.23364
-37.0285	-53.9704	1.25317
-37.0272	-42.9072	1.27271
-37.0254	-48.1862	1.29224
-37.0227	-46.71616	1.31177
-37.0208	-40.5232	1.3313
-37.0202	-41.5822	1.35083
-37.0183	-50.7179	1.37036
-37.017	-39.125	1.38989
-37.01656	-38.8711	1.40942
-37.0125	-41.7199	1.42896
-37.01263	-38.9053	1.44849
-37.0099	-36.1752	1.46802
-37.0091	-41.8435	1.48755
-37.0071	-35.5293	1.50708
-37.0068	-32.9183	1.52661
-37.004	-35.9558	1.54614
-37.00182	-34.1565	1.56567
-37.002	-29.7556	1.58521
-36.9998	-32.1069	1.60474
-36.9987	-33.4847	1.62427
-36.9956	-26.59269	1.6438
-36.9945	-26.6403	1.66333
-36.9916	-28.6586	1.68286
-36.9906	-26.1188	1.70239
-36.9895	-23.4771	1.72192
-36.9878	-25.9419	1.74146
-36.9866	-21.7289	1.76099
-36.9862	-19.0812	1.78052
-36.9838	-22.9177	1.80005
-36.9814	-25.1989	1.81958
-36.9795	-14.1361	1.83911
-36.9778	-20.0061	1.85864
-36.9757	-20.4324	1.87817
-36.9744	-13.1505	1.89771
-36.9736	-13.3267	1.91724
-36.9722	-20.255	1.93677
-36.971	-9.94428	1.9563
-36.9676	-12.9837	1.97583
-36.9683	-13.3317	1.99536
-36.9659	-6.03246	2.01489
-36.9638	-5.90953	2.03442
-36.9623	-14.3005	2.05396
-36.96003	-5.8165	2.07349
-36.9582	-2.730361	2.09302
-36.95726	-7.46893	2.11255
-36.955	-5.06018	2.13208
-36.95377	-2.03035	2.15161
-36.953	-6.92436	2.17114
-36.95052	-2.48425	2.19067
-36.9483	2.19487	2.21021
-36.9475	0.219915	2.22974
-36.946	0.288373	2.24927
-36.9441	4.22164	2.2688
-36.9425	4.21475	2.28833
-36.941	0.9196009	2.30786
-36.9396	8.945673	2.32739
-36.9367	9.76698	2.34692
-36.9359	8.40334	2.36646
-36.9339	5.47199	2.38599
-36.9333	12.629	2.40552
-36.9306	7.8145	2.42505
-36.93	13.2725	2.44458
-36.92852	17.5223	2.46411
-36.9261	11.3861	2.48364
-36.9237	9.8099	2.50317
-36.924	21.4854	2.52271
-36.9223	15.6345	2.54224
-36.9202	15.0921	2.56177
-36.91946	23.0635	2.5813
-36.9162	21.0617	2.60083
-36.9148	14.8302	2.62036
-36.913	23.9574	2.63989
-36.91143	25.1869	2.65942
-36.9098	20.8761	2.67896
-36.9083	25.9307	2.69849
-36.9076	28.0915	2.71802
-36.9058	21.0028	2.73755
-36.9032	26.7736	2.75708
-36.901	32.549	2.77661
-36.90007	28.5452	2.79614
-36.8983	30.2098	2.81567
-36.8975	31.2738	2.83521
-36.8962	33.1263	2.85474
-36.894	32.0436	2.87427
-36.892	38.99786	2.8938
-36.89	36.5428	2.91333
-36.889	34.5769	2.93286
-36.88649	37.1265	2.95239
-36.8847	43.4983	2.97192
-36.8836	36.3281	2.99146
-36.8821	41.4833	3.01099
-36.8805	46.2016	3.03052
-36.8787	42.7706	3.05005
-36.8774	38.8237	3.06958
-36.8767	48.7399	3.08911
-36.87376	44.38308	3.10864
-36.8731	46.0727	3.12817
-36.8708	50.1507	3.14771
-36.86985	48.6916	3.16724
-36.8684	44.3631	3.18677
-36.8656	55.3438	3.2063
-36.8647	54.3189	3.22583
-36.8629	49.46072	3.24536
-36.8611	55.4168	3.26489
-36.8594	55.916	3.28442
-36.8586	51.3983	3.30396
-36.8563	57.93679	3.32349
-36.8555	59.405	3.34302
-36.8528	55.9434	3.36255
-36.8514	60.39838	3.38208
-36.8499	63.435	3.40161
-36.8488	60.0516	3.42114
-36.84594	60.1578	3.44067
-36.8446	68.572	3.46021
-36.8432	64.4158	3.47974
-36.842	63.4214	3.49927
-36.8398	66.5053	3.5188
-36.8382	69.512	3.53833
-36.83659	64.8389	3.55786
-36.8347	72.0454	3.57739
-36.8335	73.6595	3.59692
-36.8316	70.3153	3.61646
-36.8302	70.2149	3.63599
-36.8292	77.4342	3.65552
-36.8273	71.0243	3.67505
-36.8264	75.3845	3.69458
-36.824	81.327	3.71411
-36.8207	77.3021	3.73364
-36.82172	74.3293	3.75317
-36.8185	84.0325	3.77271
-36.8172	79.5025	3.79224
-36.815	79.2665	3.81177
-36.8147	84.5431	3.8313
-36.8122	84.77829	3.85083
-36.811	78.74424	3.87036
-36.8089	88.021	3.88989
-36.8067	89.47522	3.90942
-36.806	84.9649	3.92896
-36.8036	89.4805	3.94849
-36.8039	91.5486	3.96802
-36.7997	86.0426	3.98755
-36.7989	89.7097	4.00708
-36.7975	95.087	4.02661
-36.7956	91.3792	4.04614
-36.7949	94.9988	4.06567
-36.7932	96.6413	4.08521
-36.7907	96.4716	4.10474
-36.789	93.5216	4.12427
-36.7877	103.342	4.1438
-36.7872	100.5275	4.16333
-36.7848	97.9097	4.18286
-36.7837	98.8312	4.20239
-36.7816	105.975	4.22192
-36.7786	100.699	4.24146
-36.7772	105.7914	4.26099
-36.7761	106.8138	4.28052
-36.7752	104.256	4.30005
-36.7739	104.368	4.31958
-36.7718	113.572	4.33911
-36.7695	106.482	4.35864
-36.7684	107.909	4.37817
-36.76672	116.125	4.39771
-36.7648	112.753	4.41724
-36.7651	106.9	4.43677
-36.7621	117.099	4.4563
-36.7597	116.728	4.47583
-36.7582	111.291	4.49536
-36.7581	118.348	4.51489
-36.7551	116.53	4.53442
-36.75301	113.999	4.55396
-36.7519	120.807	4.57349
-36.7516	125.401	4.59302
-36.7492	118.505	4.61255
-36.7469	122.363	4.63208
-36.7453	125.322	4.65161
-36.7437	125.406	4.67114
-36.7423	121.693	4.69067
-36.7411	130.46	4.71021
-36.7383	127.59	4.72974
-36.7377	127.532	4.74927
-36.7371	130.424	4.7688
-36.73407	132.1073	4.78833
-36.7337	127.7459	4.80786
-36.7301	134.5916	4.82739
-36.7295	135.191	4.84692
-36.7273	131.557	4.86646
-36.727	131.6338	4.88599
-36.7241	141.2522	4.90552
-36.7228	134.352	4.92505
-36.7209	138.025	4.94458
-36.7197	141.704	4.96411
-36.71785	138.759	4.98364
-36.7166	136.193	5.00317
-36.7144	145.445	5.02271
-36.7138	140.584	5.04224
-36.7119	139.637	5.06177
-36.70932	150.02	5.0813
-36.709	144.936	5.10083
-36.7075	141.007	5.12036
-36.7057	147.555	5.13989
-36.7039	152.6805	5.15942
-36.7021	146.257	5.17896
-36.7009	152.254	5.19849
-36.69804	153.111	5.21802
-36.697	150.513	5.23755
-36.69474	151.121	5.25708
-36.6939	160.188	5.27661
-36.69215	153.32	5.29614
-36.6898	156.186	5.31567
-36.6885	157.614	5.33521
-36.6872	159.488	5.35474
-36.6859	155.356	5.37427
-36.6838	163.074	5.3938
-36.68219	162.2804	5.41333
-36.6805	160.069	5.43286
-36.6787	161.397	5.45239
-36.6772	168.246	5.47192
-36.6766	160.132	5.49146
-36.6752	166.985	5.51099
-36.671	171.38	5.53052
-36.67107	165.184	5.55005
-36.66935	164.521	5.56958
-36.6669	173.64	5.58911
-36.666	169.209	5.60864
-36.6649	169.907	5.62817
-36.6627	175.961	5.64771
-36.661	172.95	5.66724
-36.6601	171.594	5.68677
-36.6575	179.48	5.7063
-36.6564	178.872	5.72583
-36.6546	174.206	5.74536
-36.6536	182.813	5.76489
-36.651	178.892	5.78442
-36.6501	175.537	5.80396
-36.6482	180.522	5.82349
-36.6464	187.725	5.84302
-36.6453	180.446	5.86255
-36.6435	183.098	5.88208
-36.6415	185.833	5.90161
-36.6403	185.137	5.92114
-36.6381	183.332	5.94067
-36.6363	192.837	5.96021
-36.6355	188.82	5.97974
-36.6342	187.722	5.99927
-36.6306	189.037	6.0188
-36.6302	194.8053	6.03833
-36.6287	188.9424	6.05786
-36.6268	195.742	6.07739
-36.6255	198.351	6.09692
-36.6235	191.93	6.11646
-36.62138	193.984	6.13599
-36.6203	200.787	6.15552
-36.6183	196.232	6.17505
-36.617	199.556	6.19458
-36.61544	205.951	6.21411
-36.6139	199.58	6.23364
-36.6127	198.5945	6.25317
-36.61	208.386	6.27271
-36.6094	206.645	6.29224
-36.6074	202.531	6.31177
-36.6054	209.713	6.3313
-36.6042	205.1427	6.35083
-36.60252	205.372	6.37036
-36.60009	209.695	6.38989
-36.5987	213.256	6.40942
-36.5981	208.2935	6.42896
-36.5962	213.972	6.44849
-36.59375	212.946	6.46802
-36.59267	212.014	6.48755
-36.5902	212.3	6.50708
-36.5897	220.363	6.52661
-36.5875	216.503	6.54614
-36.5859	215.757	6.56567
-36.584	218.816	6.58521
-36.5825	222.122	6.60474
-36.5822	217.946	6.62427
-36.5787	225.839	6.6438
-36.5779	224.201	6.66333
-36.5764	218.869	6.68286
-36.5741	224.439	6.70239
-36.573	229.9158	6.72192
-36.5712	222.313	6.74146
-36.5705	226.964	6.76099
-36.56863	233.395	6.78052
-36.5669	228.065	6.80005
-36.565	227.501	6.81958
-36.5635	234.086	6.83911
-36.562	229.468	6.85864
-36.5597	231.08	6.87817
-36.5598	237.989	6.89771
-36.5571	230.861	6.91724
-36.5546	230.828	6.93677
-36.5541	238.331	6.9563
-36.5516	240.64	6.97583
-36.5504	233.249	6.99536
-36.54932	241.262	7.01489
-36.5476	237.368	7.03442
-36.5458	240.031	7.05396
-36.5442	240.893	7.07349
-36.5423	246.501	7.09302
-36.5403	241.415	7.11255
-36.5388	244.078	7.13208
-36.5369	245.486	7.15161
-36.5359	244.487	7.17114
-36.535	244.536	7.19067
-36.5329	252.045	7.21021
-36.531	249.0464	7.22974
-36.5294	247.083	7.24927
-36.5268	250.326	7.2688
-36.5256	254.206	7.28833
-36.5241	250.413	7.30786
-36.5221	254.839	7.32739
-36.5216	255.962	7.34692
-36.5203	250.423	7.36646
-36.5187	253.351	7.38599
-36.5168	261.167	7.40552
-36.5138	255.485	7.42505
-36.5136	257.551	7.44458
-36.5115	262.923	7.46411
-36.5096	256.187	7.48364
-36.5084	256.186	7.50317
-36.5069	265.243	7.52271
-36.504	262.546	7.54224
-36.5029	261.286	7.56177
-36.503	269.064	7.5813
-36.5001	263.308	7.60083
-36.4975	265.635	7.62036
-36.4964	269.237	7.63989
-36.4948	273.048	7.65942
-36.4942	266.81	7.67896
-36.4925	270.566	7.69849
-36.49	271.152	7.71802
-36.48914	273.353	7.73755
-36.4861	270.245	7.75708
-36.4859	277.039	7.77661
-36.4834	273.645	7.79614
-36.4826	275.503	7.81567
-36.4811	275.59	7.83521
-36.4789	277.256	7.85474
-36.4779	274.327	7.87427
-36.4757	281.978	7.8938
-36.4742	281.454	7.91333
-36.4726	276.028	7.93286
-36.4705	280.096	7.95239
-36.4687	285.3732	7.97192
-36.4673	281.365	7.99146
-36.4656	285.827	8.01099
-36.4648	288.9848	8.03052
-36.4631	281.9892	8.05005
-36.4616	285.463	8.06958
-36.4596	292.801	8.08911
-36.4589	288.146	8.10864
-36.4553	287.025	8.12817
-36.4543	295.881	8.14771
-36.4524	289.007	8.16724
-36.4508	291.385	8.18677
-36.4495	294.46	8.2063
-36.4475	297.498	8.22583
-36.4459	292.601	8.24536
-36.4458	299.671	8.26489
-36.4429	295.876	8.28442
-36.4401	294.889	8.30396
-36.4396	298.055	8.32349
-36.4373	303.422	8.34302
-36.4368	298.563	8.36255
-36.4344	302.193	8.38208
-36.43383	301.924	8.40161
-36.4313	305.939	8.42114
-36.4304	302.5834	8.44067
-36.4285	306.854	8.46021
-36.4278	305.001	8.47974
-36.4249	304.903	8.49927
-36.4237	308.592	8.5188
-36.4208	310.219	8.53833
-36.42136	305.408	8.55786
-36.4187	313.04	8.57739
-36.417	314.891	8.59692
-36.4151	306.692	8.61646
-36.4138	311.997	8.63599
-36.4144	317.1452	8.65552
-36.4096	313.498	8.67505
-36.4089	314.503	8.69458
-36.4071	321.405	8.71411
-36.4048	312.965	8.73364
-36.4043	317.275	8.75317
-36.4022	322.814	8.77271
-36.4004	321.18	8.79224
-36.3994	316.72	8.81177
-36.3973	324.915	8.8313
-36.3956	321.287	8.85083
-36.39439	319.908	8.87036
-36.392	323.663	8.88989
-36.392	326.544	8.90942
-36.3885	324.296	8.92896
-36.3878	325.9415	8.94849
-36.38644	327.9606	8.96802
-36.3842	327.158	8.98755
-36.3827	327.796	9.00708
-36.3819	334.314	9.02661
-36.3791	329.5029	9.04614
-36.3786	328.1853	9.06567
-36.3764	332.325	9.08521
-36.3756	334.673	9.10474
-36.3738	330.173	9.12427
-36.3706	337.388	9.1438
-36.3696	337.325	9.16333
-36.3682	332.3	9.18286
-36.3677	335.937	9.20239
-36.36459	339.9277	9.22192
-36.3628	337.176	9.24146
-36.3626	340.461	9.26099
-36.3607	345.446	9.28052
-36.3576	335.755	9.30005
-36.3568	340.593	9.31958
-36.3561	345.617	9.33911
-36.3535	343.213	9.35864
-36.3526	342.469	9.37817
-36.35	349.5528	9.39771
-36.3485	342.715	9.41724
-36.3466	345.874	9.43677
-36.3458	350.665	9.4563
-36.3433	351.239	9.47583
-36.343	345.768	9.49536
-36.3407	351.402	9.51489
-36.3393	350.531	9.53442
-36.33744	350.529	9.55396
-36.3362	352.762	9.57349
-36.3345	356.282	9.59302
-36.3322	351.814	9.61255
-36.3302	353.528	9.63208
-36.33	355.0701	9.65161
-36.3281	356.165	9.67114
-36.3257	356.514	9.69067
-36.3238	361.646	9.71021
-36.3223	359.577	9.72974
-36.3213	353.059	9.74927
-36.3193	361.292	9.7688
-36.318	363.374	9.78833
-36.3174	357.661	9.80786
-36.3146	362.983	9.82739
-36.3135	368.079	9.84692
-36.3124	359.003	9.86646
-36.3091	366.007	9.88599
-36.308	368.413	9.90552
-36.30706	365.0419	9.92505
-36.3051	366.743	9.94458
-36.3029	373.86	9.96411
-36.3015	364.287	9.98364
-36.3003	367.173	10.0032
-36.29781	373.864	10.0227
-36.2966	372.1748	10.0422
-36.2951	368.566	10.0618
-36.2935	376.101	10.0813
-36.2922	370.1947	10.10083
-36.2917	372.6	10.1204
-36.2879	376.362	10.1399
-36.2866	379.719	10.1594
-36.2857	373.457	10.179
-36.283	378.018	10.1985
-36.2828	377.867	10.218
-36.2822	375.372	10.2375
-36.2782	375.404	10.25708
-36.2774	381.008	10.2766
-36.2766	380.511	10.2961
-36.27356	377.999	10.3157
-36.2722	382.62	10.3352
-36.2706	381.517	10.3547
-36.2682	381.777	10.3743
-36.2673	387.689	10.3938
-36.2648	386.413	10.41333
-36.2637	380.018	10.4329
-36.26297	387.477	10.4524
-36.2617	389.589	10.4719
-36.2598	386.026	10.4915
-36.2571	388.621	10.511
-36.2567	392.054	10.5305
-36.2529	384.139	10.55
-36.2536	391.089	10.56958
-36.251	393.832	10.5891
-36.2492	391.156	10.6086
-36.2473	392.186	10.6282
-36.246	399.496	10.6477
-36.2444	391.034	10.6672
-36.242	394.755	10.6868
-36.2409	398.9122	10.7063
-36.2402	398.1312	10.72583
-36.2382	395.814	10.7454
-36.2363	400.101	10.7649
-36.235	396.896	10.7844
-36.2322	397.845	10.804
-36.23167	399.857	10.8235
-36.22961	404.754	10.843
-36.22942	396.976	10.8625
-36.2275	399.456	10.88208
-36.2249	405.453	10.9016
-36.2239	403.3389	10.9211
-36.2216	401.273	10.9407
-36.2204	406.636	10.9602
-36.2189	406.364	10.9797
-36.2171	401.412	10.9993
-36.215	409.3374	11.0188
-36.21347	408.405	11.03833
-36.2115	406.934	11.0579
-36.2106	411.6644	11.0774
-36.2095	413.1503	11.0969
-36.2063	402.081	11.1165
-36.2047	409.6713	11.136
-36.2037	413.629	11.1555
-36.2021	409.8811	11.175
-36.2012	410.659	11.19458
-36.1993	417.082	11.2141
-36.1974	410.148	11.2336
-36.1964	412.944	11.2532
-36.1949	416.644	11.2727
-36.1927	416.564	11.2922
-36.1912	412.2363	11.3118
-36.1898	420.131	11.3313
-36.1881	414.909	11.35083
-36.1863	415.178	11.3704
-36.1836	418.705	11.3899
-36.1828	423.276	11.4094
-36.1816	418.219	11.429
-36.1798	418.678	11.4485
-36.178	422.126	11.468
-36.1767	419.1431	11.4875
-36.1754	422.723	11.50708
-36.17297	426.457	11.5266
-36.1714	421.71	11.5461
-36.1698	421.657	11.5657
-36.1686	427.477	11.5852
-36.1662	424.766	11.6047
-36.1647	421.959	11.6243
-36.1637	428.127	11.6438
-36.1618	429.45	11.66333
-36.1607	421.778	11.6829
-36.15881	429.89	11.7024
-36.1574	427.088	11.7219
-36.1555	424.766	11.7415
-36.154	430.2	11.761
-36.1508	433.173	11.7805
-36.14925	421.964	11.8
-36.1478	429.645	11.81958
-36.1463	433.424	11.8391
-36.1457	430.107	11.8586
-36.1438	429.425	11.8782
-36.1419	435.184	11.8977
-36.1411	430.283	11.9172
-36.1382	432.151	11.9368
-36.1364	436.421	11.9563
-36.1353	434.762	11.97583
-36.1342	432.917	11.9954
-36.132	437.507	12.0149
-36.1303	436.389	12.0344
-36.1285	431.966	12.054
-36.1277	437.698	12.0735
-36.1258	440.527	12.093
-36.1241	437.488	12.1125
-36.1235	433.019	12.13208
-36.1208	441.631	12.1516
-36.11937	439.112	12.1711
-36.1187	438.792	12.1907
-36.1149	443.643	12.2102
-36.1141	441.12	12.2297
-36.1132	434.864	12.2493
-36.1112	445.153	12.2688
-36.1085	442.606	12.28833
-36.1099	438.752	12.3079
-36.10638	443.845	12.3274
-36.1049	448.265	12.3469
-36.102	437.356	12.3665
-36.1014	444.416	12.386
-36.09988	446.762	12.4055
-36.099	442.5072	12.425
-36.0967	445.8	12.44458
-36.094	450.036	12.4641
-36.0933	441.164	12.4836
-36.0905	445.387	12.5032
-36.0894	450.993	12.5227
-36.0887	447.738	12.5422
-36.0855	444.021	12.5618
-36.0844	449.592	12.5813
-36.0838	448.297	12.60083
-36.0819	445.162	12.6204
-36.0804	449.415	12.6399
-36.0786	450.922	12.6594
-36.0772	446.53	12.679
-36.0758	449.7424	12.6985
-36.0733	452.242	12.718
-36.0725	447.056	12.7375
-36.0703	452.393	12.75708
-36.0694	455.058	12.7766
-36.0669	452.074	12.7961
-36.0647	445.879	12.8157
-36.0651	455.213	12.8352
-36.0633	452.842	12.8547
-36.0606	451.634	12.8743
-36.0589	456.143	12.8938
-36.0579	454.8053	12.91333
-36.0558	448.055	12.9329
-36.0538	458.0625	12.9524
-36.0528	456.81	12.9719
-36.0509	452.247	12.9915
-36.0495	457.192	13.011
-36.0472	459.9642	13.0305
-36.0466	450.917	13.05
-36.04446	455.808	13.06958
-36.0427	459.454	13.0891
-36.0408	455.482	13.1086
-36.0392	455.533	13.1282
-36.0382	460.567	13.1477
-36.0367	453.891	13.1672
-36.0344	455.084	13.1868
-36.0326	461.219	13.2063
-36.0311	460.17	13.22583
-36.0295	454.762	13.2454
-36.02729	457.094	13.2649
-36.0267	460.0408	13.2844
-36.0239	455.629	13.304
-36.0229	460.239	13.3235
-36.0219	462.568	13.343
-36.0203	459.0379	13.3625
-36.01828	457.175	13.38208
-36.0161	463.907	13.4016
-36.0139	456.736	13.4211
-36.0114	459.073	13.4407
-36.012	466.135	13.4602
-36.0096	463.173	13.4797
-36.0082	453.512	13.4993
-36.0073	464.319	13.5188
-36.0057	463.098	13.53833
-36.0039	459.151	13.5579
-36.0013	462.904	13.5774
-36.0013	463.716	13.5969
-35.9987	456.361	13.6165
-35.9977	466.689	13.636
-35.9946	466.824	13.6555
-35.9947	459.139	13.675
-35.9928	462.055	13.69458
-35.9909	465.793	13.7141
-35.9886	459.854	13.7336
-35.9872	460.9115	13.7532
-35.98613	465.272	13.7727
-35.9833	461.664	13.7922
-35.9829	463.143	13.8118
-35.9804	463.884	13.8313
-35.9787	462.397	13.85083
-35.9781	460.524	13.8704
-35.9771	465.3	13.8899
-35.9749	466.165	13.9094
-35.9737	462.735	13.929
-35.97089	461.245	13.9485
-35.9704	467.597	13.968
-35.9674	461.356	13.9875
-35.967	462.501	14.00708
-35.9649	467.719	14.0266
-35.963	464.821	14.0461
-35.9603	460.317	14.0657
-35.9601	470.294	14.0852
-35.9579	463.543	14.1047
-35.9575	462.469	14.1243
-35.9541	468.7576	14.1438
-35.9525	469.416	14.16333
-35.9509	458.167	14.1829
-35.9498	468.733	14.2024
-35.9481	466.592	14.2219
-35.9475	462.41	14.2415
-35.94553	466.3147	14.261
-35.9434	467.514	14.2805
-35.9407	460.019	14.3
-35.9401	466.604	14.31958
-35.938	469.013	14.3391
-35.9376	463.4537	14.3586
-35.9356	464.837	14.3782
-35.9338	468.321	14.3977
-35.9324	465.1362	14.4172
-35.9307	461.328	14.4368
-35.9286	467.962	14.4563
-35.9268	467.591	14.47583
-35.9266	465.481	14.4954
-35.9249	464.799	14.5149
-35.92271	468.095	14.5344
-35.9208	462.462	14.554
-35.9197	467.383	14.5735
-35.9175	470.749	14.593
-35.9157	464.007	14.6125
-35.9142	461.927	14.63208
-35.9122	472.429	14.6516
-35.9112	466.336	14.6711
-35.909	465.848	14.6907
-35.9073	468.281	14.7102
-35.9057	467.681	14.7297
-35.9036	460.858	14.7493
-35.90295	470.064	14.7688
-35.9021	467.096	14.78833
-35.9	463.703	14.8079
-35.8981	470.356	14.8274
-35.8955	468.356	14.8469
-35.8942	461.152	14.8665
-35.8926	468.062	14.886
-35.8907	470.38	14.9055
-35.8893	465.103	14.925
-35.887	464.719	14.94458
-35.8868	467.681	14.9641
-35.884	461.987	14.9836
-35.8827	464.053	15.0032
-35.8812	470.837	15.0227
-35.879	464.806	15.0422
-35.8785	464.675	15.0618
-35.8768	465.862	15.0813
-35.8743	467.638	15.10083
-35.8739	461.763	15.1204
-35.8717	468.586	15.1399
-35.8694	467.185	15.1594
-35.8683	464.009	15.179
-35.8672	463.361	15.1985
-35.866	468.399	15.218
-35.8632	459.236	15.2375
-35.8625	465.963	15.25708
-35.8606	470.131	15.2766
-35.8593	464.642	15.2961
-35.85622	460.25	15.3157
-35.8553	470.278	15.3352
-35.8537	465.3869	15.3547
-35.8517	463.793	15.3743
-35.8504	467.0351	15.3938
-35.8495	467.621	15.41333
-35.8463	460.095	15.4329
-35.8462	467.749	15.4524
-35.8442	466.176	15.4719
-35.8427	461.885	15.4915
-35.8412	465.5321	15.511
-35.8394	467.71	15.5305
-35.8369	459.76	15.55
-35.8365	463.465	15.56958
-35.8339	468.253	15.5891
-35.8328	464.32	15.6086
-35.8309	464.592	15.6282
-35.8304	463.707	15.6477
-35.8275	463.085	15.6672
-35.8256	461.329	15.6868
-35.8248	467.584	15.7063
-35.8233	464.214	15.72583
-35.8208	460.723	15.7454
-35.8191	461.47	15.7649
-35.8176	467.621	15.7844
-35.81646	460.103	15.804
-35.8153	465.784	15.8235
-35.8137	468.453	15.843
-35.812	463.262	15.8625
-35.8114	458.298	15.88208
-35.8078	467.089	15.9016
-35.80698	461.092	15.9211
-35.806	462.456	15.9407
-35.8036	466.889	15.9602
-35.8011	461.805	15.9797
-35.8003	455.169	15.9993
-35.79763	465.543	16.0188
-35.7971	464.407	16.03833
-35.7946	458.883	16.0579
-35.7951	463.627	16.0774
-35.7918	463.883	16.0969
-35.7911	457.1481	16.1165
-35.78896	462.098	16.136
-35.7869	464.58	16.1555
-35.7863	458.821	16.175
-35.7833	461.989	16.19458
-35.7825	463.228	16.2141
-35.7818	459.321	16.2336
-35.7799	457.798	16.2532
-35.777	465.476	16.2727
-35.77668	460.254	16.2922
-35.7746	458.355	16.3118
-35.772	460.234	16.3313
-35.77087	462.373	16.35083
-35.7695	455.091	16.3704
-35.7675	463.602	16.3899
-35.7666	461.6333	16.4094
-35.7656	457.224	16.429
-35.7632	458.054	16.4485
-35.7613	465.8	16.468
-35.75909	455.371	16.4875
-35.7581	458.85	16.50708
-35.7577	463.192	16.5266
-35.7544	459.559	16.5461
-35.753	453.136	16.5657
-35.7506	462.714	16.5852
-35.7505	457.529	16.6047
-35.7483	456.6059	16.6243
-35.7467	463.574	16.6438
-35.7456	459.531	16.66333
-35.7426	450.554	16.6829
-35.741	459.763	16.7024
-35.7405	461.352	16.7219
-35.7378	455.57	16.7415
-35.7357	458.793	16.761
-35.734	459.229	16.7805
-35.734	454.461	16.8
-35.7312	456.351	16.81958
-35.7314	460.817	16.8391
-35.7286	454.4668	16.8586
-35.7269	457.11	16.8782
-35.7265	457.956	16.8977
-35.72298	455.943	16.9172
-35.7216	453.117	16.9368
-35.7213	460.24	16.9563
-35.7188	459.225	16.97583
-35.717	453.892	16.9954
-35.7164	453.19	17.0149
-35.7132	459.434	17.0344
-35.7117	452.839	17.054
-35.7103	456.929	17.0735
-35.7088	458.998	17.093
-35.7075	453.887	17.1125
-35.7073	451.6918	17.13208
-35.7032	459.341	17.1516
-35.70351	452.738	17.1711
-35.7009	451.373	17.1907
-35.7003	457.893	17.2102
-35.6977	455.622	17.2297
-35.69664	450.059	17.2493
-35.694	458.253	17.2688
-35.6938	454.282	17.28833
-35.6909	451.329	17.3079
-35.6887	458.013	17.3274
-35.6881	453.649	17.3469
-35.6871	449.602	17.3665
-35.6843	454.982	17.386
-35.6831	458.066	17.4055
-35.68214	450.0542	17.425
-35.6789	452.01	17.44458
-35.677	454.919	17.4641
-35.6773	454.538	17.4836
-35.6741	450.374	17.5032
-35.673	457.764	17.5227
-35.6709	454.607	17.5422
-35.6702	450.859	17.5618
-35.6677	454.666	17.5813
-35.6664	454.474	17.60083
-35.6645	446.994	17.6204
-35.6643	454.2	17.6399
-35.6615	455.554	17.6594
-35.6602	450.365	17.679
-35.6589	449.505	17.6985
-35.6573	457.828	17.718
-35.6551	448.752	17.7375
-35.6544	450.883	17.75708
-35.6515	455.561	17.7766
-35.6499	449.634	17.7961
-35.6494	446.605	17.8157
-35.6474	455.317	17.8352
-35.6449	450.945	17.8547
-35.6441	446.293	17.8743
-35.6417	454.912	17.8938
-35.6407	451.781	17.91333
-35.6381	447.4234	17.9329
-35.6374	454.09	17.9524
-35.6366	452.758	17.9719
-35.63422	448.183	17.9915
-35.6322	452.507	18.011
-35.6318	452.57	18.0305
-35.6293	447.188	18.05
-35.628	447.453	18.06958
-35.6265	455.331	18.0891
-35.625	448.421	18.1086
-35.6226	449.5141	18.1282
-35.6211	450.022	18.1477
-35.6201	452.102	18.1672
-35.6184	444.921	18.1868
-35.6162	450.9	18.2063
-35.61483	451.628	18.22583
-35.6129	447.519	18.2454
-35.613	448.542	18.2649
-35.6107	453.3515	18.2844
-35.6083	443.466	18.304
-35.6053	449.715	18.3235
-35.6049	452.55	18.343
-35.6045	445.231	18.3625
-35.6023	443.238	18.38208
-35.5994	452.249	18.4016
-35.5989	445.869	18.4211
-35.5969	445.9454	18.4407
-35.5941	450.685	18.4602
-35.594	445.621	18.4797
-35.59214	442.075	18.4993
-35.5905	450.649	18.5188
-35.5881	447.971	18.53833
-35.5863	443.265	18.5579
-35.5855	448.436	18.5774
-35.5831	448.674	18.5969
-35.5817	442.9364	18.6165
-35.5807	446.318	18.636
-35.5796	450.746	18.6555
-35.57634	444.013	18.675
-35.5753	446.408	18.69458
-35.574	445.125	18.7141
-35.5718	445.915	18.7336
-35.5715	441.954	18.7532
-35.5689	450.1189	18.7727
-35.568	445.528	18.7922
-35.5661	442.414	18.8118
-35.5643	443.757	18.8313
-35.56282	447.139	18.85083
-35.5609	439.809	18.8704
-35.55928	446.557	18.8899
-35.5582	446.069	18.9094
-35.5568	439.678	18.929
-35.5552	439.354	18.9485
-35.5526	446.259	18.968
-35.5513	438.818	18.9875
-35.55	439.587	19.00708
-35.5476	444.188	19.0266
-35.5467	437.917	19.0461
-35.5446	434.158	19.0657
-35.5424	440.931	19.0852
-35.5424	436.238	19.1047
-35.5389	432.552	19.1243
-35.5345	-139.184	19.1438
-35.5328	-56.229	19.16333
-35.5331	-42.8115	19.1829
-35.5326	-41.9426	19.2024
-35.5311	-38.7813	19.2219
-35.5293	-45.1143	19.2415
-35.5271	-40.1511	19.261
-35.52626	-41.3706	19.2805
-35.5237	-44.1671	19.3
-35.5227	-44.9873	19.31958
-35.5212	-37.9071	19.3391
-35.5205	-43.0936	19.3586
-35.5187	-42.7827	19.3782
-35.5156	-41.8684	19.3977
-35.5148	-40.9691	19.4172
-35.5132	-46.0789	19.4368
-35.5105	-39.9545	19.4563
-35.5092	-42.0489	19.47583
-35.5093	-46.5792	19.4954
-35.5072	-45.1629	19.5149
-35.5055	-38.6798	19.5344
-35.5038	-45.7178	19.554
-35.5037	-43.0898	19.5735
-35.5001	-39.58342	19.593
-35.4994	-45.7489	19.6125
-35.4971	-46.7894	19.63208
-35.4957	-39.9731	19.6516
-35.4941	-44.3449	19.6711
-35.49242	-45.7115	19.6907
-35.4906	-38.4178	19.7102
-35.4894	-44.227	19.7297
-35.4871	-48.1165	19.7493
-35.48608	-40.7235	19.7688
-35.4847	-41.3136	19.78833
-35.4824	-45.3532	19.8079
-35.4805	-39.1965	19.8274
-35.4802	-43.4243	19.8469
-35.4771	-46.7255	19.8665
-35.4756	-42.2232	19.886
-35.4749	-39.4352	19.9055
-35.4731	-46.213	19.925
-35.4712	-44.191	19.94458
-35.4707	-43.3189	19.9641
-35.46801	-43.0361	19.9836
-35.4659	-47.00552	20.0032
-35.46608	-42.81683	20.0129

Data Header:			0.254_solid_dimension_typeiv_090_r0			Time:	23.0813	s	4/14/2019 2:02:00 AM
Data Acquisition:	Timed
Station Name:	ft40.cfg
Test File Name:	monotonic_0.2540_typeiv_solid_090_dimension.tst
Displacement	Force	Running Time
mm	N	s
-35.4653	-40.17997	20.0227
-35.4635	-43.0035	20.0325
-35.4637	-43.8399	20.0422
-35.4615	-45.5717	20.052
-35.461	-45.3761	20.0618
-35.4604	-43.7428	20.0715
-35.4606	-43.7996	20.0813
-35.45929	-39.6992	20.0911
-35.4592	-40.9941	20.10083
-35.45686	-43.8057	20.1106
-35.4562	-48.6915	20.1204
-35.4566	-48.18718	20.1301
-35.4554	-41.7702	20.1399
-35.4541	-40.2312	20.1497
-35.4539	-40.26939	20.1594
-35.4519	-42.8785	20.1692
-35.4513	-46.9511	20.179
-35.4504	-44.1951	20.1887
-35.4505	-44.6708	20.1985
-35.4497	-38.9652	20.2083
-35.4482	-37.0169	20.218
-35.4476	-42.1421	20.2278
-35.4469	-45.135	20.2375
-35.4454	-50.078	20.2473
-35.4454	-45.0935	20.25708
-35.4445	-39.8554	20.2668
-35.4432	-40.19759	20.2766
-35.4439	-41.49329	20.2864
-35.4411	-45.8833	20.2961
-35.4409	-46.0115	20.3059
-35.4397	-46.6202	20.3157
-35.4398	-42.5931	20.3254
-35.4391	-39.6764	20.3352
-35.4377	-38.7393	20.345
-35.4378	-45.3072	20.3547
-35.4376	-48.2025	20.3645
-35.435	-48.8403	20.3743
-35.434	-41.9992	20.384
-35.4344	-37.2681	20.3938
-35.4328	-41.4677	20.4036
-35.4324	-42.0664	20.41333
-35.4308	-43.8203	20.4231
-35.4311	-46.4211	20.4329
-35.4314	-44.1293	20.4426
-35.4295	-42.0083	20.4524
-35.42873	-39.7404	20.4622
-35.4274	-38.60561	20.4719
-35.4266	-47.8569	20.4817
-35.4256	-43.736	20.4915
-35.424	-45.1938	20.5012
-35.4239	-41.7489	20.511
-35.4225	-41.092	20.5208
-35.4216	-44.7893	20.5305
-35.4211	-41.7144	20.5403
-35.4205	-44.827	20.55
-35.42046	-45.2608	20.5598
-35.4184	-43.6394	20.56958
-35.4182	-43.06271	20.5793
-35.417	-36.13242	20.5891
-35.4165	-43.3708	20.5989
-35.4158	-43.5735	20.6086
-35.4145	-45.2064	20.6184
-35.41481	-43.8209	20.6282
-35.4138	-41.99543	20.6379
-35.4124	-41.1054	20.6477
-35.4121	-40.2872	20.6575
-35.4111	-40.243	20.6672
-35.4116	-44.9282	20.677
-35.4095	-47.7906	20.6868
-35.4082	-44.4545	20.6965
-35.4073	-40.0215	20.7063
-35.4064	-39.8097	20.7161
-35.4062	-39.6946	20.72583
-35.4057	-46.0152	20.7356
-35.4049	-45.0606	20.7454
-35.4031	-44.2823	20.7551
-35.403	-44.3584	20.7649
-35.4026	-38.5434	20.7747
-35.4005	-39.4845	20.7844
-35.4014	-40.3659	20.7942
-35.3997	-46.1434	20.804
-35.399	-48.6292	20.8137
-35.3984	-40.9316	20.8235
-35.3961	-38.2579	20.8333
-35.3956	-39.182	20.843
-35.3963	-43.1978	20.8528
-35.395	-47.0149	20.8625
-35.39447	-43.1046	20.8723
-35.3935	-47.13	20.88208
-35.392	-40.3272	20.8918
-35.3921	-39.8258	20.9016
-35.3905	-41.0328	20.9114
-35.3905	-43.9852	20.9211
-35.3889	-49.4964	20.9309
-35.3881	-45.6029	20.9407
-35.3873	-39.92284	20.9504
-35.3861	-39.004	20.9602
-35.3851	-41.3198	20.97
-35.3863	-45.3166	20.9797
-35.3842	-45.3294	20.9895
-35.3828	-47.4498	20.9993
-35.3821	-44.625	21.009
-35.3809	-40.4781	21.0188
-35.3806	-38.3245	21.0286
-35.3801	-42.0836	21.03833
-35.37986	-47.80426	21.0481
-35.3791	-45.9977	21.0579
-35.3778	-43.4705	21.0676
-35.37569	-38.2624	21.0774
-35.3753	-40.9169	21.0872
-35.3752	-42.6383	21.0969
-35.3737	-43.0702	21.1067
-35.3735	-44.7777	21.1165
-35.37352	-44.1246	21.1262
-35.3719	-44.0708	21.136
-35.3716	-39.52599	21.1458
-35.371	-38.1221	21.1555
-35.3702	-45.53867	21.1653
-35.369	-44.9683	21.175
-35.3681	-45.2219	21.1848
-35.3671	-42.2553	21.19458
-35.3668	-38.8468	21.2043
-35.3654	-43.5297	21.2141
-35.3658	-40.502	21.2239
-35.3639	-43.2509	21.2336
-35.3627	-44.7797	21.2434
-35.3626	-45.5111	21.2532
-35.3609	-44.6958	21.2629
-35.3605	-38.5539	21.2727
-35.359	-39.8578	21.2825
-35.3586	-42.7956	21.2922
-35.3582	-46.3716	21.302
-35.3577	-46.1308	21.3118
-35.3559	-42.0989	21.3215
-35.3566	-42.667	21.3313
-35.3553	-41.9195	21.3411
-35.3542	-40.5382	21.35083
-35.3537	-44.64949	21.3606
-35.35207	-46.8264	21.3704
-35.3509	-46.6332	21.3801
-35.3507	-42.1608	21.3899
-35.3499	-38.7775	21.3997
-35.3488	-39.663	21.4094
-35.3487	-45.4475	21.4192
-35.3483	-44.4317	21.429
-35.34613	-45.4361	21.4387
-35.3456	-45.2156	21.4485
-35.3447	-38.6307	21.4583
-35.3438	-39.8173	21.468
-35.3432	-40.5499	21.4778
-35.3427	-44.314	21.4875
-35.342	-50.1134	21.4973
-35.34071	-43.9194	21.50708
-35.3392	-41.1866	21.5168
-35.3391	-38.1104	21.5266
-35.3383	-42.57251	21.5364
-35.3373	-46.5377	21.5461
-35.337	-44.5536	21.5559
-35.3359	-47.4442	21.5657
-35.3342	-41.5625	21.5754
-35.3354	-39.4228	21.5852
-35.3331	-41.268	21.595
-35.3347	-41.5951	21.6047
-35.3319	-49.341	21.6145
-35.3314	-45.7517	21.6243
-35.3314	-41.5515	21.634
-35.3297	-39.8266	21.6438
-35.3284	-39.8137	21.6536
-35.3284	-44.1602	21.66333
-35.327	-45.3571	21.6731
-35.3275	-43.9832	21.6829
-35.325	-43.8873	21.6926
-35.3249	-41.354	21.7024
-35.3244	-40.5211	21.7122
-35.3234	-39.8439	21.7219
-35.3225	-44.5602	21.7317
-35.3212	-45.0173	21.7415
-35.3215	-45.4722	21.7512
-35.3205	-40.4274	21.761
-35.3192	-39.3657	21.7708
-35.3175	-42.4683	21.7805
-35.3173	-43.2695	21.7903
-35.3165	-44.7876	21.8
-35.316	-43.4745	21.8098
-35.3147	-45.7003	21.81958
-35.3147	-42.59808	21.8293
-35.3125	-38.1755	21.8391
-35.3126	-42.497	21.8489
-35.3119	-44.168	21.8586
-35.30991	-45.2311	21.8684
-35.3096	-43.9314	21.8782
-35.3092	-40.47282	21.8879
-35.3087	-43.7542	21.8977
-35.3075	-40.2925	21.9075
-35.3057	-40.8947	21.9172
-35.3057	-45.1682	21.927
-35.3056	-45.7732	21.9368
-35.3038	-47.2615	21.9465
-35.3034	-39.8882	21.9563
-35.3022	-39.7257	21.9661
-35.3016	-41.7886	21.97583
-35.2997	-43.912	21.9856
-35.3012	-47.1994	21.9954
-35.2998	-43.97234	22.0051
-35.2984	-42.1533	22.0149
-35.29805	-38.8811	22.0247
-35.2976	-37.6121	22.0344
-35.2966	-41.7887	22.0442
-35.29528	-46.5434	22.054
-35.2955	-48.21114	22.0637
-35.2935	-44.1751	22.0735
-35.2929	-39.1525	22.0833
-35.2917	-37.6593	22.093
-35.292	-42.4159	22.1028
-35.2915	-46.2001	22.1125
-35.2901	-45.5545	22.1223
-35.2888	-46.459	22.13208
-35.2874	-40.6783	22.1418
-35.2874	-41.2794	22.1516
-35.28595	-40.3463	22.1614
-35.2845	-43.8968	22.1711
-35.2841	-47.9855	22.1809
-35.2845	-44.8581	22.1907
-35.284	-40.867	22.2004
-35.2824	-39.24712	22.2102
-35.281	-40.0443	22.22
-35.2802	-45.9367	22.2297
-35.2793	-44.1629	22.2395
-35.2796	-45.92865	22.2493
-35.2784	-43.0079	22.259
-35.2774	-40.1855	22.2688
-35.2767	-39.545	22.2786
-35.2771	-40.6808	22.28833
-35.2749	-48.3435	22.2981
-35.27404	-47.6081	22.3079
-35.2731	-43.7328	22.3176
-35.2727	-41.4625	22.3274
-35.2713	-39.8037	22.3372
-35.2718	-43.73671	22.3469
-35.27	-44.5351	22.3567
-35.2695	-43.558	22.3665
-35.2684	-46.3839	22.3762
-35.2669	-43.6413	22.386
-35.2672	-42.7672	22.3958
-35.2665	-39.41198	22.4055
-35.2648	-42.3292	22.4153
-35.2642	-44.8731	22.425
-35.2652	-45.6939	22.4348
-35.26165	-42.9129	22.44458
-35.261	-40.9996	22.4543
-35.2598	-43.0039	22.4641
-35.2601	-42.1285	22.4739
-35.2604	-43.3369	22.4836
-35.2589	-44.9313	22.4934
-35.2584	-47.2851	22.5032
-35.2579	-46.0674	22.5129
-35.2567	-39.3095	22.5227
-35.2547	-39.99622	22.5325
-35.25507	-42.889	22.5422
-35.2532	-46.3932	22.552
-35.25275	-45.52195	22.5618
-35.2526	-42.7369	22.5715
-35.2515	-43.72974	22.5813
-35.25148	-39.2774	22.5911
-35.2497	-41.7552	22.60083
-35.2497	-44.5908	22.6106
-35.248	-46.8195	22.6204
-35.2476	-49.474	22.6301
-35.2464	-43.141	22.6399
-35.2471	-37.8813	22.6497
-35.2454	-39.6583	22.6594
-35.2442	-44.9589	22.6692
-35.2432	-48.4003	22.679
-35.2418	-45.3348	22.6887
-35.24118	-44.2007	22.6985
-35.2409	-41.0239	22.7083
-35.2397	-37.8722	22.718
-35.2391	-42.6385	22.7278
-35.2373	-46.004	22.7375
-35.2368	-48.27792	22.7473
-35.2368	-46.001	22.75708
-35.2359	-38.8754	22.7668
-35.2352	-38.0004	22.7766
-35.2344	-41.8557	22.7864
-35.2343	-45.805	22.7961
-35.2342	-44.7987	22.8059
-35.2322	-45.1995	22.8157
-35.2315	-41.7475	22.8254
-35.2309	-41.2774	22.8352
-35.2293	-40.2527	22.845
-35.228	-41.87796	22.8547
-35.2278	-47.7385	22.8645
-35.22665	-46.0456	22.8743
-35.2265	-42.7506	22.884
-35.2253	-38.06496	22.8938
-35.2249	-38.5283	22.9036
-35.2236	-46.284	22.91333
-35.223	-45.6816	22.9231
-35.221	-45.9643	22.9329
-35.2206	-42.9372	22.9426
-35.2203	-41.836	22.9524
-35.2206	-40.7728	22.9622
-35.2176	-38.9928	22.9719
-35.2193	-45.7327	22.9817
-35.2171	-45.1185	22.9915
-35.2163	-46.95385	23.0012
-35.2154	-42.5619	23.011
-35.2145	-38.4198	23.0208
-35.2149	-41.8889	23.0305
-35.21336	-43.0079	23.0403
-35.2125	-44.2435	23.05
-35.2122	-44.4065	23.0598
-35.2112	-45.2296	23.06958