File: data/processed_data_files/tensile/0.254_solid_dimension_typeiv_4545_r(3).dat
MTS793|BTW|ENU|1|2|.|/|:|1|0|0|A

Data Header:			0.254_solid_dimension_typeiv_4545_r0			Time:	20.0173	s	4/13/2019 8:38:08 PM
Data Acquisition:	Timed
Station Name:	ft40.cfg
Test File Name:	monotonic_0.2540_typeiv_solid_4545_dimension.tst
Displacement	Force	Running Time
mm	N	s
-40.0343	-233.883	0.0222168
-40.0342	-230.302	0.041748
-40.0333	-230.861	0.0612793
-40.0324	-232.064	0.0808105
-40.0296	-232.748	0.1003418
-40.02956	-225.216	0.119873
-40.0275	-226.343	0.1394043
-40.0263	-229.871	0.158936
-40.0251	-227.886	0.1784668
-40.0227	-221.411	0.197998
-40.0201	-224.301	0.2175293
-40.0202	-221.114	0.237061
-40.0166	-217.501	0.2565918
-40.0157	-218.486	0.276123
-40.0166	-222.373	0.2956543
-40.0124	-211.954	0.315186
-40.011	-217.137	0.3347168
-40.0109	-216.452	0.354248
-40.0076	-210.198	0.3737793
-40.0056	-211.953	0.393311
-40.0052	-218.807	0.4128418
-40.0023	-208.9288	0.432373
-40.0014	-207.481	0.4519043
-40.0009	-209.975	0.471436
-39.9983	-206.2646	0.4909668
-39.9975	-203.71	0.510498
-39.994	-209.754	0.5300293
-39.9932	-203.592	0.549561
-39.9915	-199.799	0.5690918
-39.9906	-203.331	0.588623
-39.9885	-203.626	0.6081543
-39.9879	-198.118	0.627686
-39.9851	-201.902	0.6472168
-39.9844	-199.137	0.666748
-39.9821	-193.392	0.6862793
-39.9807	-195.981	0.705811
-39.9788	-196.303	0.7253418
-39.9777	-190.869	0.744873
-39.9747	-192.563	0.7644043
-39.9747	-195.322	0.783936
-39.9721	-188.535	0.8034668
-39.9718	-184.645	0.822998
-39.9704	-187.691	0.8425293
-39.966	-190.1409	0.862061
-39.9654	-182.216	0.8815918
-39.9634	-184.2469	0.901123
-39.9629	-182.237	0.9206543
-39.9608	-179.34	0.940186
-39.9597	-181.132	0.9597168
-39.9572	-184.621	0.979248
-39.9559	-172.989	0.9987793
-39.9551	-176.1272	1.01831
-39.95282	-177.538	1.03784
-39.95042	-173.1	1.057373
-39.95	-170.7429	1.0769
-39.94902	-177.275	1.09644
-39.9455	-170.272	1.11597
-39.9446	-169.547	1.135498
-39.943	-171.439	1.15503
-39.9417	-167.663	1.17456
-39.9395	-164.112	1.19409
-39.9382	-171.429	1.213623
-39.9359	-166.1575	1.23315
-39.9346	-162.63	1.25269
-39.9327	-163.466	1.27222
-39.9303	-164.413	1.291748
-39.9313	-159.374	1.31128
-39.92762	-161.314	1.33081
-39.9266	-160.465	1.35034
-39.926	-155.723	1.369873
-39.9227	-155.934	1.3894
-39.9218	-157.329	1.40894
-39.92075	-153.735	1.42847
-39.9185	-150.985	1.447998
-39.9167	-154.698	1.46753
-39.915	-149.9642	1.48706
-39.9142	-146.6564	1.50659
-39.912	-146.334	1.526123
-39.9111	-150.207	1.54565
-39.908	-144.113	1.56519
-39.9072	-146.092	1.58472
-39.9054	-143.818	1.604248
-39.9044	-138.952	1.62378
-39.9022	-141.278	1.64331
-39.9002	-146.033	1.66284
-39.8991	-135.7585	1.682373
-39.8986	-137.2052	1.7019
-39.8964	-140.117	1.72144
-39.8946	-135.661	1.74097
-39.8925	-130.871	1.760498
-39.8909	-138.525	1.78003
-39.8894	-130.657	1.79956
-39.8878	-129.308	1.81909
-39.8861	-132.1649	1.838623
-39.8846	-130.295	1.85815
-39.8828	-123.6966	1.87769
-39.8807	-130.974	1.89722
-39.879	-128.304	1.916748
-39.8775	-122.647	1.93628
-39.8764	-122.6973	1.95581
-39.8744	-125.038	1.97534
-39.8728	-122.413	1.994873
-39.871	-119.676	2.0144
-39.8695	-122.331	2.03394
-39.8692	-116.05	2.05347
-39.8669	-114.091	2.072998
-39.8645	-116.964	2.09253
-39.8631	-117.189	2.11206
-39.8614	-111.009	2.13159
-39.8601	-114.114	2.151123
-39.8595	-113.1479	2.17065
-39.8572	-107.357	2.19019
-39.8559	-107.211	2.20972
-39.8528	-111.948	2.229248
-39.8521	-103.838	2.24878
-39.85006	-106.11	2.26831
-39.8481	-106.473	2.28784
-39.84618	-100.144	2.307373
-39.8459	-99.765	2.3269
-39.8445	-107.425	2.34644
-39.8428	-97.1827	2.36597
-39.84156	-94.6679	2.385498
-39.83947	-97.5334	2.40503
-39.837	-96.6026	2.42456
-39.8347	-91.7557	2.44409
-39.8335	-98.7145	2.463623
-39.8327	-93.2153	2.48315
-39.8307	-89.8526	2.50269
-39.829	-92.3864	2.52222
-39.8273	-93.156	2.541748
-39.826	-86.6212	2.56128
-39.8241	-89.8526	2.58081
-39.8215	-87.0261	2.60034
-39.821	-85.28611	2.619873
-39.819	-82.1983	2.6394
-39.8181	-85.3275	2.65894
-39.81699	-82.19677	2.67847
-39.81406	-80.3976	2.697998
-39.8129	-81.8045	2.71753
-39.811	-77.27771	2.73706
-39.8083	-74.6201	2.75659
-39.8081	-78.2137	2.776123
-39.8063	-79.30394	2.79565
-39.8052	-71.9269	2.81519
-39.80257	-72.0735	2.83472
-39.8014	-73.4481	2.854248
-39.7995	-68.1848	2.87378
-39.7984	-67.5896	2.89331
-39.7968	-72.4842	2.91284
-39.7946	-64.2628	2.932373
-39.7934	-65.4504	2.9519
-39.7926	-67.3395	2.97144
-39.7905	-62.4435	2.99097
-39.7872	-58.4088	3.010498
-39.7866	-66.5815	3.03003
-39.7856	-60.4345	3.04956
-39.784	-58.075	3.06909
-39.7819	-57.3426	3.088623
-39.7812	-57.5744	3.10815
-39.7779	-52.377	3.12769
-39.7773	-57.40918	3.14722
-39.7751	-53.8684	3.166748
-39.7729	-49.7707	3.18628
-39.7719	-49.9154	3.20581
-39.7701	-53.3757	3.22534
-39.7693	-48.9341	3.244873
-39.7683	-47.3277	3.2644
-39.7653	-48.6301	3.28394
-39.7633	-45.834	3.30347
-39.7627	-40.7459	3.322998
-39.761	-43.4055	3.34253
-39.75877	-42.5307	3.36206
-39.7569	-38.6128	3.38159
-39.756	-41.6203	3.401123
-39.7542	-39.4302	3.42065
-39.752	-34.7689	3.44019
-39.7508	-35.3103	3.45972
-39.7487	-40.1512	3.479248
-39.74802	-31.9654	3.49878
-39.74633	-31.5773	3.51831
-39.74493	-32.6808	3.53784
-39.7425	-29.1506	3.557373
-39.741	-27.7848	3.5769
-39.7409	-33.5835	3.59644
-39.7381	-25.3369	3.61597
-39.7355	-24.676	3.635498
-39.7348	-26.4043	3.65503
-39.7336	-25.6832	3.67456
-39.7324	-18.9671	3.69409
-39.7292	-24.7778	3.713623
-39.7281	-22.12722	3.73315
-39.7273	-19.6953	3.75269
-39.7255	-17.824	3.77222
-39.724	-19.5115	3.791748
-39.7219	-13.3177	3.81128
-39.7204	-17.451	3.83081
-39.71793	-15.9445	3.85034
-39.7173	-11.3187	3.869873
-39.7156	-9.8393	3.8894
-39.7143	-13.0388	3.90894
-39.7121	-10.47	3.92847
-39.70974	-7.73418	3.947998
-39.7091	-8.75106	3.96753
-39.7068	-5.94439	3.98706
-39.7059	-5.0296	4.00659
-39.704	-4.24058	4.026123
-39.70216	-5.52852	4.04565
-39.7003	0.396022	4.06519
-39.6998	-1.2743	4.08472
-39.6972	-2.57713	4.104248
-39.6959	3.42939	4.12378
-39.6944	4.79427	4.14331
-39.6929	-0.534466	4.16284
-39.6902	6.42988	4.182373
-39.688	7.39665	4.2019
-39.6871	6.89331	4.22144
-39.6859	9.119895	4.24097
-39.68515	13.5744	4.260498
-39.6829	6.17462	4.28003
-39.68	12.7356	4.29956
-39.6807	17.3114	4.31909
-39.677	13.0026	4.338623
-39.6765	12.7328	4.35815
-39.6744	20.2485	4.37769
-39.6735	15.1757	4.39722
-39.67	18.9218	4.416748
-39.66975	21.6718	4.43628
-39.6676	22.274	4.45581
-39.667	20.126	4.47534
-39.6651	26.8607	4.494873
-39.6623	23.8621	4.5144
-39.6613	22.7674	4.53394
-39.6597	26.5774	4.55347
-39.6586	31.3842	4.572998
-39.6563	29.8225	4.59253
-39.65593	26.8958	4.61206
-39.6523	31.1198	4.63159
-39.6518	32.4284	4.651123
-39.65	32.4332	4.67065
-39.6485	37.1312	4.69019
-39.6474	37.4206	4.70972
-39.6448	33.738	4.729248
-39.6433	39.9906	4.74878
-39.6413	41.3984	4.76831
-39.6395	37.6291	4.78784
-39.63887	42.082	4.807373
-39.6362	47.0955	4.8269
-39.636	40.2008	4.84644
-39.6333	46.36758	4.86597
-39.6316	48.2181	4.885498
-39.6303	46.1859	4.90503
-39.629	49.0252	4.92456
-39.6281	54.2065	4.94409
-39.6255	46.4787	4.963623
-39.6242	51.6121	4.98315
-39.6227	55.835	5.00269
-39.6203	54.32407	5.02222
-39.62064	53.6554	5.041748
-39.6172	61.7297	5.06128
-39.616	56.0164	5.08081
-39.614	59.818	5.10034
-39.6133	60.6276	5.119873
-39.61087	63.0085	5.1394
-39.6082	59.49744	5.15894
-39.6079	64.354	5.17847
-39.606	66.1009	5.197998
-39.6048	65.34404	5.21753
-39.6036	64.727	5.23706
-39.60146	71.543	5.25659
-39.5989	69.2192	5.276123
-39.5966	68.6756	5.29565
-39.5966	70.5963	5.31519
-39.5949	72.0118	5.33472
-39.5938	71.2703	5.354248
-39.5903	76.5626	5.37378
-39.5897	76.96534	5.39331
-39.5883	71.299	5.41284
-39.587	78.3433	5.432373
-39.5858	82.4696	5.4519
-39.5829	78.1248	5.47144
-39.5822	79.9412	5.49097
-39.5804	86.7593	5.510498
-39.5776	78.3983	5.53003
-39.5782	85.264	5.54956
-39.5761	86.5538	5.56909
-39.5737	85.201	5.588623
-39.5717	85.873	5.60815
-39.5711	93.8726	5.62769
-39.5679	86.3919	5.64722
-39.5671	89.7737	5.666748
-39.5649	94.3112	5.68628
-39.5631	96.6572	5.70581
-39.5624	92.9599	5.72534
-39.5603	98.1607	5.744873
-39.5585	96.94	5.7644
-39.55835	97.5772	5.78394
-39.5549	100.328	5.80347
-39.5537	103.394	5.822998
-39.5525	99.9114	5.84253
-39.55106	102.903	5.86206
-39.5488	106.598	5.88159
-39.5479	104.95	5.901123
-39.546	104.316	5.92065
-39.5445	109.205	5.94019
-39.5423	109.351	5.95972
-39.5405	106.634	5.979248
-39.5401	111.657	5.99878
-39.5387	113.3129	6.01831
-39.53648	110.102	6.03784
-39.5351	115.509	6.057373
-39.5331	118.586	6.0769
-39.5309	111.59	6.09644
-39.53	118.104	6.11597
-39.5269	121.622	6.135498
-39.5275	118.833	6.15503
-39.5256	120.025	6.17456
-39.5232	126.636	6.19409
-39.5211	119.4666	6.213623
-39.5201	124.006	6.23315
-39.518	128.629	6.25269
-39.5161	127.268	6.27222
-39.5152	125.276	6.291748
-39.5135	132.7345	6.31128
-39.5115	129.495	6.33081
-39.51038	129.671	6.35034
-39.5086	131.807	6.369873
-39.5065	136.7462	6.3894
-39.5048	133.102	6.40894
-39.5035	138.39	6.42847
-39.5012	134.834	6.447998
-39.50013	137.582	6.46753
-39.5	138.448	6.48706
-39.4972	145.423	6.50659
-39.4962	141.026	6.526123
-39.49358	139.8997	6.54565
-39.4921	143.077	6.56519
-39.4897	146.525	6.58472
-39.4889	143.149	6.604248
-39.4869	148.7084	6.62378
-39.4853	149.794	6.64331
-39.4847	145.534	6.66284
-39.4828	149.788	6.682373
-39.4811	153.631	6.7019
-39.4795	149.545	6.72144
-39.4775	153.23	6.74097
-39.4764	157.922	6.760498
-39.4756	151.215	6.78003
-39.4727	154.726	6.79956
-39.4709	160.649	6.81909
-39.4694	158.449	6.838623
-39.4676	157.837	6.85815
-39.4665	163.304	6.87769
-39.4662	158.186	6.89722
-39.4614	161.037	6.916748
-39.4623	165.839	6.93628
-39.4596	168.262	6.95581
-39.4582	162.929	6.97534
-39.4563	168.873	6.994873
-39.455	168.273	7.0144
-39.4535	168.642	7.03394
-39.4526	170.774	7.05347
-39.4493	175.031	7.072998
-39.4485	172.306	7.09253
-39.4471	174.144	7.11206
-39.4456	176.083	7.13159
-39.4437	175.572	7.151123
-39.4429	175.082	7.17065
-39.4406	183.726	7.19019
-39.4386	180.025	7.20972
-39.4374	177.515	7.229248
-39.4356	182.276	7.24878
-39.4343	185.546	7.26831
-39.4333	181.984	7.28784
-39.4308	187.431	7.307373
-39.4291	189.151	7.3269
-39.4276	182.649	7.34644
-39.4252	188.1147	7.36597
-39.4251	193.608	7.385498
-39.4235	188.602	7.40503
-39.42086	189.691	7.42456
-39.4193	197.514	7.44409
-39.4184	191.47	7.463623
-39.416	193.895	7.48315
-39.4154	198.271	7.50269
-39.4121	197.221	7.52222
-39.4123	197.7717	7.541748
-39.4103	204.42	7.56128
-39.4073	198.034	7.58081
-39.4071	199.343	7.60034
-39.405	203.516	7.619873
-39.4023	208.017	7.6394
-39.4006	202.309	7.65894
-39.4005	207.102	7.67847
-39.398	206.708	7.697998
-39.3966	208.665	7.71753
-39.3957	207.7726	7.73706
-39.3933	212.717	7.75659
-39.3916	209.9852	7.776123
-39.3901	211.056	7.79565
-39.3882	214.363	7.81519
-39.386	214.493	7.83472
-39.385	211.943	7.854248
-39.3841	218.317	7.87378
-39.3816	219.601	7.89331
-39.3811	215.348	7.91284
-39.3781	218.046	7.932373
-39.3781	223.2522	7.9519
-39.3748	218.995	7.97144
-39.3731	223.324	7.99097
-39.373	227.455	8.010498
-39.3704	219.133	8.03003
-39.3682	223.89	8.04956
-39.3663	232.102	8.06909
-39.3649	227.095	8.088623
-39.3645	225.9382	8.10815
-39.362	235.174	8.12769
-39.36195	229.456	8.14722
-39.3586	230.511	8.166748
-39.3576	235.557	8.18628
-39.3553	236.435	8.20581
-39.354	234.136	8.22534
-39.3526	241.547	8.244873
-39.3514	238.259	8.2644
-39.3492	237.945	8.28394
-39.3482	239.101	8.30347
-39.3459	246.025	8.322998
-39.3433	240.736	8.34253
-39.34314	242.781	8.36206
-39.3407	243.857	8.38159
-39.3404	245.481	8.401123
-39.3389	244.494	8.42065
-39.3365	250.846	8.44019
-39.3342	248.036	8.45972
-39.3328	246.999	8.479248
-39.3313	250.415	8.49878
-39.3285	255.058	8.51831
-39.3282	249.779	8.53784
-39.3267	254.817	8.557373
-39.3242	258.721	8.5769
-39.3227	252.829	8.59644
-39.3224	254.919	8.61597
-39.3202	261.668	8.635498
-39.319	256.847	8.65503
-39.3167	259.467	8.67456
-39.3155	266.5365	8.69409
-39.3137	259.088	8.713623
-39.3128	261.201	8.73315
-39.30999	268.142	8.75269
-39.3076	266.525	8.77222
-39.3074	264.438	8.791748
-39.3054	272.3	8.81128
-39.303	268.407	8.83081
-39.3014	269.017	8.85034
-39.3002	273.3	8.869873
-39.2998	276.376	8.8894
-39.2976	269.532	8.90894
-39.2968	274.842	8.92847
-39.2928	275.758	8.947998
-39.29258	274.736	8.96753
-39.2908	275.596	8.98706
-39.2901	282.783	9.00659
-39.2882	279.2908	9.026123
-39.2856	280.3544	9.04565
-39.2848	281.749	9.06519
-39.2829	283.793	9.08472
-39.2803	281.341	9.104248
-39.2803	288.339	9.12378
-39.2781	287.766	9.14331
-39.2761	283.234	9.16284
-39.27475	288.142	9.182373
-39.2737	293.254	9.2019
-39.2711	287.748	9.22144
-39.2691	291.366	9.24097
-39.2674	295.6618	9.260498
-39.2668	290.912	9.28003
-39.2649	291.361	9.29956
-39.2632	297.993	9.31909
-39.2613	294.66	9.338623
-39.26	295.349	9.35815
-39.2578	304.748	9.37769
-39.2561	297.284	9.39722
-39.2554	296.111	9.416748
-39.2546	304.324	9.43628
-39.2509	306.176	9.45581
-39.2499	300.939	9.47534
-39.248	306.492	9.494873
-39.2469	305.039	9.5144
-39.2449	304.518	9.53394
-39.2442	308.029	9.55347
-39.2428	313.42	9.572998
-39.2422	307.062	9.59253
-39.2398	309.739	9.61206
-39.2366	312.387	9.63159
-39.236	314.073	9.651123
-39.2348	312.038	9.67065
-39.2324	317.025	9.69019
-39.2307	316.573	9.70972
-39.2294	316.436	9.729248
-39.2286	317.678	9.74878
-39.2252	321.916	9.76831
-39.22493	316.609	9.78784
-39.223	324.465	9.807373
-39.2207	324.99	9.8269
-39.2189	319.991	9.84644
-39.218	321.903	9.86597
-39.2154	330.559	9.885498
-39.2146	324.665	9.90503
-39.2133	326.573	9.92456
-39.2113	332.318	9.94409
-39.2101	325.75	9.963623
-39.2084	327.111	9.98315
-39.2069	336.548	10.0027
-39.2049	334.307	10.0222
-39.2034	329.562	10.0417
-39.2013	337.98	10.0613
-39.2008	336.106	10.0808
-39.1973	333.12	10.1003
-39.1977	337.969	10.1199
-39.1945	342.3504	10.1394
-39.1935	337.529	10.1589
-39.1915	343.69	10.1785
-39.1905	343.3	10.198
-39.1884	341.873	10.2175
-39.1871	344.206	10.2371
-39.186	350.925	10.2566
-39.1834	346.29	10.2761
-39.1821	345.726	10.2957
-39.179	347.122	10.3152
-39.1791	351.585	10.3347
-39.1774	347.985	10.3542
-39.17651	355.271	10.3738
-39.1746	353.7984	10.3933
-39.1733	351.795	10.4128
-39.17	355.103	10.4324
-39.169	358.6412	10.4519
-39.1675	352.04	10.4714
-39.1641	359.237	10.491
-39.1635	362.0347	10.5105
-39.1625	357.314	10.53
-39.1605	357.739	10.5496
-39.1592	365.793	10.5691
-39.1577	360.517	10.5886
-39.1562	361.7218	10.6082
-39.1546	370.238	10.6277
-39.1524	363.555	10.6472
-39.1507	363.188	10.6667
-39.148	372.007	10.6863
-39.1483	370.371	10.7058
-39.1464	366.366	10.7253
-39.1445	373.022	10.7449
-39.1435	372.348	10.7644
-39.1421	370.489	10.7839
-39.139	375.727	10.8035
-39.13768	378.5	10.823
-39.1365	374.5994	10.8425
-39.1351	379.092	10.8621
-39.1336	377.832	10.8816
-39.1317	378.776	10.9011
-39.1307	377.1796	10.9207
-39.1273	385.294	10.9402
-39.1262	382.752	10.9597
-39.1249	379.331	10.9792
-39.1239	382.639	10.9988
-39.1211	388.1814	11.0183
-39.1214	382.355	11.0378
-39.11895	390.723	11.0574
-39.1167	390.317	11.0769
-39.1145	386.813	11.0964
-39.11396	388.418	11.116
-39.1124	397.273	11.1355
-39.11	389.424	11.155
-39.1089	392.124	11.1746
-39.1079	398.77	11.1941
-39.1055	394.68	11.2136
-39.1029	391.184	11.2332
-39.1018	401.421	11.2527
-39.1001	397.817	11.2722
-39.099	396.292	11.2917
-39.0968	404.751	11.3113
-39.0951	401.296	11.3308
-39.0939	396.728	11.3503
-39.0931	402.703	11.3699
-39.0912	406.949	11.3894
-39.09034	400.809	11.4089
-39.0874	406.463	11.4285
-39.0853	407.24	11.448
-39.0839	406.513	11.4675
-39.083	407.063	11.4871
-39.0809	414.4646	11.5066
-39.0804	409.319	11.5261
-39.0782	411.03	11.5457
-39.0766	413.501	11.5652
-39.0744	414.697	11.5847
-39.0735	409.518	11.6042
-39.0719	418.945	11.6238
-39.0698	417.8873	11.6433
-39.0679	417.131	11.6628
-39.0653	416.649	11.6824
-39.0647	422.021	11.7019
-39.0641	417.1167	11.7214
-39.0628	422.579	11.741
-39.05933	425.0029	11.7605
-39.0583	421.014	11.78
-39.0572	420.075	11.7996
-39.0546	430.627	11.8191
-39.053	424.574	11.8386
-39.0514	424.399	11.8582
-39.0504	431.023	11.8777
-39.0488	430.169	11.8972
-39.0463	424.828	11.9167
-39.04488	434.609	11.9363
-39.0437	432.589	11.9558
-39.04224	429.309	11.9753
-39.0404	436.898	11.9949
-39.0387	435.727	12.0144
-39.0369	431.068	12.0339
-39.03545	436.738	12.0535
-39.0338	441.134	12.073
-39.0321	436.832	12.0925
-39.0311	441.692	12.1121
-39.0286	441.102	12.1316
-39.0268	439.557	12.1511
-39.0257	441.105	12.1707
-39.02494	447.2561	12.1902
-39.0234	443.129	12.2097
-39.0205	442.945	12.2292
-39.0198	445.282	12.2488
-39.018	449.723	12.2683
-39.0153	443.707	12.2878
-39.0138	449.771	12.3074
-39.0129	452.1615	12.3269
-39.0114	449.071	12.3464
-39.0102	448.557	12.366
-39.0083	455.5459	12.3855
-39.0059	448.699	12.405
-39.0055	454.212	12.4246
-39.0028	458.285	12.4441
-39.0015	454.026	12.4636
-39.0003	449.365	12.4832
-38.9985	462.549	12.5027
-38.9976	458.492	12.5222
-38.9952	455.58	12.5417
-38.994	462.649	12.5613
-38.9915	460.831	12.5808
-38.99181	456.514	12.6003
-38.9891	466.091	12.6199
-38.9857	465.556	12.6394
-38.9863	458.811	12.6589
-38.9833	466.676	12.6785
-38.9822	466.619	12.698
-38.9794	465.47	12.7175
-38.9782	467.788	12.7371
-38.977	472.84	12.7566
-38.9753	469.414	12.7761
-38.97419	471.58	12.7957
-38.9719	471.427	12.8152
-38.9709	471.6434	12.8347
-38.9682	468.674	12.8542
-38.9669	479.59	12.8738
-38.9655	477.006	12.8933
-38.9631	473.904	12.9128
-38.9614	475.953	12.9324
-38.9601	482.361	12.9519
-38.95858	476.277	12.9714
-38.9563	479.485	12.991
-38.9558	484.15	13.0105
-38.9548	479.138	13.03
-38.9526	479.001	13.0496
-38.9512	488.596	13.0691
-38.9486	481.194	13.0886
-38.9475	483.979	13.1082
-38.9469	491.085	13.1277
-38.9435	486.656	13.1472
-38.94342	482.737	13.1667
-38.9416	491.597	13.1863
-38.9397	489.382	13.2058
-38.938	487.98	13.2253
-38.9364	493.159	13.2449
-38.9345	492.96	13.2644
-38.9344	487.08	13.2839
-38.9324	495.676	13.3035
-38.9299	497.744	13.323
-38.92754	491.066	13.3425
-38.927	496.35	13.3621
-38.9247	497.896	13.3816
-38.9239	495.103	13.4011
-38.9214	494.691	13.4207
-38.92	502.79	13.4402
-38.91814	499.089	13.4597
-38.9166	500.988	13.4792
-38.9152	502.796	13.4988
-38.914	503.591	13.5183
-38.9117	499.563	13.5378
-38.9093	506.174	13.5574
-38.9072	506.738	13.5769
-38.9074	503.937	13.5964
-38.904	502.78	13.616
-38.9035	510.767	13.6355
-38.9034	505.105	13.655
-38.90147	509.763	13.6746
-38.8986	511.809	13.6941
-38.8971	510.001	13.7136
-38.8963	508.331	13.7332
-38.8945	517.571	13.7527
-38.8918	512.3714	13.7722
-38.89016	511.53	13.7917
-38.8888	516.636	13.8113
-38.8874	515.8537	13.8308
-38.8863	510.566	13.8503
-38.8841	519.516	13.8699
-38.8819	519.783	13.8894
-38.8814	514.746	13.9089
-38.8784	521.5246	13.9285
-38.8783	522.394	13.948
-38.87561	514.979	13.9675
-38.8755	520.347	13.9871
-38.8732	527.419	14.0066
-38.8703	520.854	14.0261
-38.87	522.378	14.0457
-38.8683	524.8136	14.0652
-38.8654	523.911	14.0847
-38.8635	523.418	14.1042
-38.8625	529.76	14.1238
-38.8608	527.314	14.1433
-38.86	526.369	14.1628
-38.8582	528.277	14.1824
-38.8559	533.396	14.2019
-38.8541	525.525	14.2214
-38.8538	532.695	14.241
-38.8521	535.7229	14.2605
-38.8511	531.449	14.28
-38.8483	529.808	14.2996
-38.8466	537.73	14.3191
-38.8443	533.773	14.3386
-38.8427	534.942	14.3582
-38.8415	541.314	14.3777
-38.8402	537.37	14.3972
-38.8385	532.2251	14.4167
-38.8374	543.03	14.4363
-38.8356	540.407	14.4558
-38.8331	537.629	14.4753
-38.8316	541.293	14.4949
-38.8304	543.12	14.5144
-38.8289	536.548	14.5339
-38.8268	543.867	14.5535
-38.8253	545.016	14.573
-38.8252	540.327	14.5925
-38.8223	544.15	14.6121
-38.8216	547.088	14.6316
-38.8198	542.689	14.6511
-38.8185	543.763	14.6707
-38.815	552.401	14.6902
-38.81422	547.546	14.7097
-38.8133	546.772	14.7292
-38.8107	550.466	14.7488
-38.8097	549.658	14.7683
-38.8083	547.2912	14.7878
-38.806	553.287	14.8074
-38.8048	552.3584	14.8269
-38.8031	549.141	14.8464
-38.8007	550.536	14.866
-38.7997	557.795	14.8855
-38.7981	549.508	14.905
-38.7966	554.328	14.9246
-38.7948	557.906	14.9441
-38.7935	557.056	14.9636
-38.79089	551.072	14.9832
-38.7893	561.816	15.0027
-38.7888	555.897	15.0222
-38.787	557.489	15.0417
-38.7847	562.161	15.0613
-38.7836	561.217	15.0808
-38.7816	552.0177	15.1003
-38.7802	562.905	15.1199
-38.7781	562.637	15.1394
-38.7763	558.6662	15.1589
-38.7753	562.633	15.1785
-38.7733	564.744	15.198
-38.7714	558.668	15.2175
-38.7712	563.843	15.2371
-38.7685	568.838	15.2566
-38.7669	561.535	15.2761
-38.7653	561.68	15.2957
-38.7642	568.087	15.3152
-38.76173	563.134	15.3347
-38.75906	564.151	15.3542
-38.7587	568.9	15.3738
-38.7581	568.185	15.3933
-38.75621	564.202	15.4128
-38.7538	566.97	15.4324
-38.7522	571.316	15.4519
-38.7508	567.287	15.4714
-38.7493	572.682	15.491
-38.748	572.947	15.5105
-38.7478	568.752	15.53
-38.7449	566.852	15.5496
-38.7431	577.59	15.5691
-38.7417	571.581	15.5886
-38.739	570.747	15.6082
-38.737	576.221	15.6277
-38.7358	574.27	15.6472
-38.7336	568.8241	15.6667
-38.7332	578.784	15.6863
-38.7306	573.826	15.7058
-38.7301	571.943	15.7253
-38.7291	577.926	15.7449
-38.7266	578.722	15.7644
-38.7251	570.099	15.7839
-38.7229	577.323	15.8035
-38.721	579.51	15.823
-38.7198	574.807	15.8425
-38.7184	576.663	15.8621
-38.7159	580.665	15.8816
-38.7146	574.115	15.9011
-38.71373	577.138	15.9207
-38.7112	583.144	15.9402
-38.7089	578.26	15.9597
-38.7082	577.454	15.9792
-38.7075	579.83	15.9988
-38.7061	579.571	16.0183
-38.7046	577.679	16.0378
-38.702	583.056	16.0574
-38.7007	582.667	16.0769
-38.6978	579.611	16.0964
-38.6968	579.629	16.116
-38.695	584.889	16.1355
-38.6939	578.351	16.155
-38.692	583.609	16.1746
-38.6909	587.349	16.1941
-38.6896	582.27	16.2136
-38.6877	576.787	16.2332
-38.6851	588.185	16.2527
-38.68325	583.955	16.2722
-38.6831	582.31	16.2917
-38.6806	586.889	16.3113
-38.6796	585.563	16.3308
-38.6777	578.678	16.3503
-38.6759	589.248	16.3699
-38.6741	586.913	16.3894
-38.6727	583.568	16.4089
-38.67128	584.202	16.4285
-38.6696	589.002	16.448
-38.6683	579.729	16.4675
-38.6652	585.1626	16.4871
-38.6656	587.854	16.5066
-38.6613	584.695	16.5261
-38.6612	584.3728	16.5457
-38.66	588.5603	16.5652
-38.6574	583.4812	16.5847
-38.6564	583.623	16.6042
-38.655	589.107	16.6238
-38.6539	587.53	16.6433
-38.6519	584.274	16.6628
-38.6494	585.372	16.6824
-38.6477	587.589	16.7019
-38.6459	584.874	16.7214
-38.64489	586.744	16.741
-38.644	588.046	16.7605
-38.6427	585.891	16.78
-38.6399	584.133	16.7996
-38.6377	592.917	16.8191
-38.6365	585.427	16.8386
-38.635	586.415	16.8582
-38.6337	592.196	16.8777
-38.6323	590.47	16.8972
-38.63039	582.3493	16.9167
-38.6289	592.371	16.9363
-38.6278	587.55	16.9558
-38.6251	585.343	16.9753
-38.6243	590.913	16.9949
-38.62318	589.518	17.0144
-38.6212	580.596	17.0339
-38.62035	591.316	17.0535
-38.6169	590.9021	17.073
-38.6159	586.764	17.0925
-38.6151	586.85	17.1121
-38.611	591.326	17.1316
-38.6116	584.57	17.1511
-38.6096	589.165	17.1707
-38.6085	591.378	17.1902
-38.6045	587.441	17.2097
-38.604	585.457	17.2292
-38.6037	589.932	17.2488
-38.601	586.645	17.2683
-38.5995	583.761	17.2878
-38.5979	588.863	17.3074
-38.59671	588.437	17.3269
-38.59322	585.391	17.3464
-38.5929	586.172	17.366
-38.59074	589.28	17.3855
-38.5891	585.795	17.405
-38.58733	587.704	17.4246
-38.5859	590.507	17.4441
-38.5849	586.031	17.4636
-38.5831	584.051	17.4832
-38.5813	591.293	17.5027
-38.581	585.208	17.5222
-38.5777	584.181	17.5417
-38.5764	588.453	17.5613
-38.5759	589.7356	17.5808
-38.5727	582.156	17.6003
-38.5715	590.391	17.6199
-38.5692	587.666	17.6394
-38.5691	586.52	17.6589
-38.5672	588.57	17.6785
-38.5656	591.414	17.698
-38.5637	582.287	17.7175
-38.5616	588.573	17.7371
-38.5597	589.835	17.7566
-38.5606	585.786	17.7761
-38.5585	586.182	17.7957
-38.5557	589.93	17.8152
-38.5535	583.875	17.8347
-38.5525	585.956	17.8542
-38.5502	588.364	17.8738
-38.5491	587.534	17.8933
-38.5482	584.425	17.9128
-38.5464	587.103	17.9324
-38.5447	586.5542	17.9519
-38.5424	583.76	17.9714
-38.5411	586.82	17.991
-38.5389	587.708	18.0105
-38.5377	586.851	18.03
-38.5352	583.114	18.0496
-38.5358	587.83	18.0691
-38.5328	585.013	18.0886
-38.5311	584.085	18.1082
-38.5296	588.2644	18.1277
-38.528	584.652	18.1472
-38.5265	578.797	18.1667
-38.5245	588.685	18.1863
-38.52314	585.747	18.2058
-38.5204	583.068	18.2253
-38.5198	585.19	18.2449
-38.5172	587.616	18.2644
-38.5162	577.521	18.2839
-38.5157	587.267	18.3035
-38.5135	585.666	18.323
-38.5107	583.186	18.3425
-38.5105	583.599	18.3621
-38.5091	588.625	18.3816
-38.5073	579.617	18.4011
-38.5057	582.936	18.4207
-38.5024	585.776	18.4402
-38.50111	583.797	18.4597
-38.5009	580.5434	18.4792
-38.49836	585.391	18.4988
-38.4961	581.44	18.5183
-38.49501	581.149	18.5378
-38.49268	584.597	18.5574
-38.4921	582.917	18.5769
-38.4895	579.57	18.5964
-38.4894	582.284	18.616
-38.4865	585.16	18.6355
-38.4865	582.051	18.655
-38.4837	581.192	18.6746
-38.4824	583.796	18.6941
-38.4802	581.374	18.7136
-38.4781	578.84	18.7332
-38.4771	584.582	18.7527
-38.47554	581.1615	18.7722
-38.4737	580.6236	18.7917
-38.4728	584.386	18.8113
-38.4708	584.281	18.8308
-38.4686	574.86	18.8503
-38.4679	582.786	18.8699
-38.4666	582.672	18.8894
-38.4661	579.447	18.9089
-38.4613	582.204	18.9285
-38.4618	584.639	18.948
-38.4595	575.757	18.9675
-38.4581	581.5733	18.9871
-38.45533	584.367	19.0066
-38.4548	579.032	19.0261
-38.4527	578.129	19.0457
-38.4505	584.71	19.0652
-38.4509	577.396	19.0847
-38.44709	579.049	19.1042
-38.4476	581.608	19.1238
-38.4441	581.939	19.1433
-38.4435	578.61	19.1628
-38.4415	582.2677	19.1824
-38.4395	578.198	19.2019
-38.437	577.534	19.2214
-38.4361	579.239	19.241
-38.4356	581.028	19.2605
-38.4334	577.078	19.28
-38.4322	574.914	19.2996
-38.4301	580.664	19.3191
-38.4285	578.04	19.3386
-38.4278	577.178	19.3582
-38.4248	580.85	19.3777
-38.4242	579.192	19.3972
-38.4222	573.96	19.4167
-38.41967	581.227	19.4363
-38.4186	577.654	19.4558
-38.418	574.634	19.4753
-38.4152	579.466	19.4949
-38.4137	582.3335	19.5144
-38.4121	573.71	19.5339
-38.41069	578.279	19.5535
-38.4088	579.5459	19.573
-38.4079	576.448	19.5925
-38.4054	577.324	19.6121
-38.4038	580.993	19.6316
-38.4024	571.322	19.6511
-38.401	575.904	19.6707
-38.3993	579.005	19.6902
-38.3987	576.33	19.7097
-38.39592	575.642	19.7292
-38.39436	579.317	19.7488
-38.3923	574.862	19.7683
-38.39098	575.284	19.7878
-38.3896	575.78	19.8074
-38.3884	578.656	19.8269
-38.3875	573.6073	19.8464
-38.38446	576.472	19.866
-38.3832	576.679	19.8855
-38.3818	572.632	19.905
-38.3791	572.946	19.9246
-38.3775	579.636	19.9441
-38.3771	575.3042	19.9636
-38.37516	572.49	19.9832
-38.3739	576.875	20.0027
-38.3715	578.333	20.0125

Data Header:			0.254_solid_dimension_typeiv_4545_r0			Time:	40.0176	s	4/13/2019 8:38:28 PM
Data Acquisition:	Timed
Station Name:	ft40.cfg
Test File Name:	monotonic_0.2540_typeiv_solid_4545_dimension.tst
Displacement	Force	Running Time
mm	N	s
-38.3713	573.979	20.0222
-38.3694	573.47	20.0417
-38.3681	576.672	20.0613
-38.3668	576.0658	20.0808
-38.3654	568.967	20.1003
-38.3634	576.426	20.1199
-38.3623	577.528	20.1394
-38.36092	572.089	20.1589
-38.3585	573.522	20.1785
-38.3579	578.3	20.198
-38.35577	569.867	20.2175
-38.3537	575.333	20.2371
-38.3522	575.698	20.2566
-38.35	571	20.2761
-38.3488	572.264	20.2957
-38.3477	577.8775	20.3152
-38.3451	570.3468	20.3347
-38.3434	571.871	20.3542
-38.342	574.018	20.3738
-38.3397	574.544	20.3933
-38.339	569.502	20.4128
-38.3377	573.332	20.4324
-38.3358	573.439	20.4519
-38.33424	569.366	20.4714
-38.3331	573.0509	20.491
-38.3311	574.002	20.5105
-38.3284	570.454	20.53
-38.3284	571.725	20.5496
-38.3268	573.77	20.5691
-38.3247	572.498	20.5886
-38.3226	570.3866	20.6082
-38.3205	574.176	20.6277
-38.3191	572.459	20.6472
-38.3174	567.7121	20.6667
-38.3159	571.0719	20.6863
-38.3139	570.94	20.7058
-38.3128	569.276	20.7253
-38.3102	571.639	20.7449
-38.3091	573.758	20.7644
-38.3083	564.57	20.7839
-38.3076	572.788	20.8035
-38.3055	573.998	20.823
-38.3033	569.454	20.8425
-38.3016	569.315	20.8621
-38.3	574.56	20.8816
-38.2978	567.061	20.9011
-38.2961	569.329	20.9207
-38.2949	572.828	20.9402
-38.2933	571.398	20.9597
-38.2917	568.081	20.9792
-38.2902	574.656	20.9988
-38.29	568.811	21.0183
-38.2869	568.213	21.0378
-38.2862	570.817	21.0574
-38.2847	573.2063	21.0769
-38.2818	566.697	21.0964
-38.2804	570.501	21.116
-38.2778	570.58	21.1355
-38.2773	569.344	21.155
-38.275	569.585	21.1746
-38.2737	573.029	21.1941
-38.2727	567.863	21.2136
-38.2703	566.861	21.2332
-38.2683	571.9314	21.2527
-38.2675	570.4278	21.2722
-38.2659	566.547	21.2917
-38.2635	571.069	21.3113
-38.2624	571.426	21.3308
-38.2606	563.794	21.3503
-38.2588	567.723	21.3699
-38.2574	569.4361	21.3894
-38.2569	564.831	21.4089
-38.2548	569.504	21.4285
-38.25317	572.383	21.448
-38.2504	562.732	21.4675
-38.2489	566.544	21.4871
-38.2484	572.123	21.5066
-38.24514	568.51	21.5261
-38.2448	565.7713	21.5457
-38.2434	572.467	21.5652
-38.2399	565.128	21.5847
-38.2395	567.332	21.6042
-38.2375	571.4	21.6238
-38.2363	569.4	21.6433
-38.235	563.594	21.6628
-38.2327	570.384	21.6824
-38.2319	566.621	21.7019
-38.23	565.716	21.7214
-38.2292	567.374	21.741
-38.2271	571.106	21.7605
-38.2248	565.093	21.78
-38.2242	567.1604	21.7996
-38.2213	567.7	21.8191
-38.2201	566.219	21.8386
-38.21785	564.1947	21.8582
-38.2162	570.341	21.8777
-38.2152	566.432	21.8972
-38.2135	562.181	21.9167
-38.21188	566.227	21.9363
-38.21059	569.32	21.9558
-38.208	564.822	21.9753
-38.2067	566.705	21.9949
-38.2058	569.99	22.0144
-38.20393	562.364	22.0339
-38.20216	566.41	22.0535
-38.2003	568.926	22.073
-38.1991	563.99	22.0925
-38.1977	564.669	22.1121
-38.1957	571.989	22.1316
-38.1947	561.726	22.1511
-38.1926	564.778	22.1707
-38.1906	568.521	22.1902
-38.1899	567.53	22.2097
-38.1867	564.18	22.2292
-38.1858	569.24	22.2488
-38.1843	562.873	22.2683
-38.183	564.799	22.2878
-38.18029	567.07	22.3074
-38.17881	570.071	22.3269
-38.177	562.1333	22.3464
-38.1755	566.433	22.366
-38.17524	566.099	22.3855
-38.1725	565.244	22.405
-38.1715	564.286	22.4246
-38.1691	567.549	22.4441
-38.1683	564.3277	22.4636
-38.167	564.677	22.4832
-38.165	566.964	22.5027
-38.1631	564.629	22.5222
-38.161	561.847	22.5417
-38.1598	567.303	22.5613
-38.1593	567.3233	22.5808
-38.1555	559.053	22.6003
-38.1548	564.577	22.6199
-38.1537	568.062	22.6394
-38.1513	561.713	22.6589
-38.1491	564.567	22.6785
-38.1484	567.205	22.698
-38.1473	559.73	22.7175
-38.14502	562.959	22.7371
-38.144	567.202	22.7566
-38.1419	562.286	22.7761
-38.1413	561.588	22.7957
-38.1374	569.191	22.8152
-38.1365	560.9549	22.8347
-38.1363	561.162	22.8542
-38.1344	565.102	22.8738
-38.1332	564.731	22.8933
-38.1301	561.189	22.9128
-38.129	567.5	22.9324
-38.1261	562.257	22.9519
-38.1249	561.2	22.9714
-38.1245	562.098	22.991
-38.12249	568.64	23.0105
-38.1209	561.744	23.03
-38.1184	562.971	23.0496
-38.1168	563.236	23.0691
-38.1151	563.666	23.0886
-38.1139	561.267	23.1082
-38.112	566.74	23.1277
-38.1119	564.153	23.1472
-38.1106	559.798	23.1667
-38.1083	564.017	23.1863
-38.1059	563.18	23.2058
-38.1043	559.658	23.2253
-38.1027	563.755	23.2449
-38.10062	566.417	23.2644
-38.1	557.82	23.2839
-38.0978	561.626	23.3035
-38.0964	567.3974	23.323
-38.0941	560.885	23.3425
-38.0934	560.996	23.3621
-38.0912	568.014	23.3816
-38.0901	558.136	23.4011
-38.08791	560.435	23.4207
-38.0865	566.371	23.4402
-38.0847	563.134	23.4597
-38.0831	558.06	23.4792
-38.0816	565.529	23.4988
-38.0807	561.227	23.5183
-38.0783	560.164	23.5378
-38.0764	563.5473	23.5574
-38.0747	564.633	23.5769
-38.0731	559.379	23.5964
-38.0722	563.8255	23.616
-38.0703	561.6499	23.6355
-38.0684	559.877	23.655
-38.0673	559.236	23.6746
-38.0659	566.843	23.6941
-38.06472	561.077	23.7136
-38.0633	559.346	23.7332
-38.0608	562.745	23.7527
-38.0593	562.888	23.7722
-38.0575	560.234	23.7917
-38.0544	563.964	23.8113
-38.0538	562.167	23.8308
-38.0532	557.465	23.8503
-38.0503	561.391	23.8699
-38.0494	563.594	23.8894
-38.0471	557.622	23.9089
-38.0453	561.094	23.9285
-38.04493	564.768	23.948
-38.0425	555.6748	23.9675
-38.0411	558.987	23.9871
-38.03997	563.844	24.0066
-38.0385	559.3739	24.0261
-38.0358	558.753	24.0457
-38.0339	566.282	24.0652
-38.0331	556.448	24.0847
-38.0307	556.0271	24.1042
-38.0301	564.16	24.1238
-38.0285	563.9859	24.1433
-38.0272	557.256	24.1628
-38.0242	563.014	24.1824
-38.0229	558.305	24.2019
-38.0217	559.451	24.2214
-38.0202	559.759	24.241
-38.0181	563.864	24.2605
-38.0182	558.425	24.28
-38.0162	559.286	24.2996
-38.013	560.934	24.3191
-38.0117	561.462	24.3386
-38.0093	557.804	24.3582
-38.0092	563.328	24.3777
-38.0069	561.543	24.3972
-38.0053	557.857	24.4167
-38.0048	558.797	24.4363
-38.0019	562.471	24.4558
-38.0005	557.579	24.4753
-37.9992	562.858	24.4949
-37.9975	562.676	24.5144
-37.9955	555.985	24.5339
-37.99453	557.46	24.5535
-37.9915	563.478	24.573
-37.9906	557.837	24.5925
-37.9883	557.592	24.6121
-37.9871	564.831	24.6316
-37.9856	556.985	24.6511
-37.9835	557.054	24.6707
-37.9824	561.653	24.6902
-37.9808	560.882	24.7097
-37.9795	555.346	24.7292
-37.9772	563.3421	24.7488
-37.9762	557.966	24.7683
-37.9729	555.5	24.7878
-37.9727	559.742	24.8074
-37.9706	563.08	24.8269
-37.9695	556.6543	24.8464
-37.9683	559.91	24.866
-37.9658	559.257	24.8855
-37.9638	557.581	24.905
-37.9623	558.0882	24.9246
-37.9615	562.4469	24.9441
-37.9588	557.89	24.9636
-37.9583	556.211	24.9832
-37.9565	559.614	25.0027
-37.9548	559.849	25.0222
-37.9538	554.221	25.0417
-37.9514	561.345	25.0613
-37.9499	560.822	25.0808
-37.9489	556.496	25.1003
-37.9464	557.12	25.1199
-37.946	560.021	25.1394
-37.9434	554.523	25.1589
-37.94125	557.899	25.1785
-37.9399	562.886	25.198
-37.9382	555.744	25.2175
-37.9374	553.383	25.2371
-37.935	563.037	25.2566
-37.9329	557.3316	25.2761
-37.9328	555.006	25.2957
-37.9301	563.245	25.3152
-37.9286	555.498	25.3347
-37.9273	555.441	25.3542
-37.9256	560.125	25.3738
-37.9231	560.274	25.3933
-37.9224	553.686	25.4128
-37.9205	561.661	25.4324
-37.91851	559.645	25.4519
-37.9165	555.323	25.4714
-37.9163	557.435	25.491
-37.9146	562.6394	25.5105
-37.9125	556.743	25.53
-37.912	558.541	25.5496
-37.9088	558.769	25.5691
-37.9073	557.826	25.5886
-37.9058	556.449	25.6082
-37.9051	562.499	25.6277
-37.9031	558.858	25.6472
-37.9015	553.755	25.6667
-37.9001	558.663	25.6863
-37.8973	560.31	25.7058
-37.8955	554.2984	25.7253
-37.8944	559.7005	25.7449
-37.8926	559.204	25.7644
-37.89069	553.765	25.7839
-37.8902	555.174	25.8035
-37.8879	560.646	25.823
-37.8858	554.027	25.8425
-37.8854	554.974	25.8621
-37.8836	562.059	25.8816
-37.8829	552.54	25.9011
-37.8798	552.807	25.9207
-37.8782	559.654	25.9402
-37.8761	558.054	25.9597
-37.8759	553.689	25.9792
-37.8725	560.124	25.9988
-37.8726	555.48	26.0183
-37.8699	552.56	26.0378
-37.8686	558.15	26.0574
-37.8674	560.267	26.0769
-37.8656	554.144	26.0964
-37.8643	557.719	26.116
-37.8622	558.311	26.1355
-37.8609	556.838	26.155
-37.8588	554.963	26.1746
-37.8576	559.854	26.1941
-37.8564	556.362	26.2136
-37.8541	555.646	26.2332
-37.8502	556.329	26.2527
-37.8515	559.0285	26.2722
-37.8488	552.732	26.2917
-37.8483	559.702	26.3113
-37.84539	558.056	26.3308
-37.8438	552.568	26.3503
-37.8422	553.374	26.3699
-37.8408	560.2171	26.3894
-37.8403	552.244	26.4089
-37.8377	556.851	26.4285
-37.8363	560.108	26.448
-37.8339	553.592	26.4675
-37.8323	552.6524	26.4871
-37.8298	560.383	26.5066
-37.8293	553.417	26.5261
-37.8286	552.8277	26.5457
-37.8265	560.993	26.5652
-37.82444	554.4278	26.5847
-37.8225	551.2395	26.6042
-37.8231	558.486	26.6238
-37.8197	558.464	26.6433
-37.8178	554.176	26.6628
-37.8175	558.546	26.6824
-37.8138	555.195	26.7019
-37.8141	553.15	26.7214
-37.81139	555.294	26.741
-37.8095	559.868	26.7605
-37.808	553.4837	26.78
-37.8068	555.113	26.7996
-37.8062	557.393	26.8191
-37.8046	555.891	26.8386
-37.8016	552.136	26.8582
-37.8006	559.115	26.8777
-37.7986	555.539	26.8972
-37.7964	553.731	26.9167
-37.7965	555.337	26.9363
-37.7939	558.909	26.9558
-37.7924	551.178	26.9753
-37.7894	557.4	26.9949
-37.7893	558.006	27.0144
-37.7872	552.871	27.0339
-37.7854	552.615	27.0535
-37.7841	558.509	27.073
-37.7828	551.941	27.0925
-37.7802	553.87	27.1121
-37.7787	558.894	27.1316
-37.7767	551.777	27.1511
-37.7765	550.301	27.1707
-37.774	557.814	27.1902
-37.7727	555.513	27.2097
-37.7708	550.965	27.2292
-37.7694	557.274	27.2488
-37.7671	553.9527	27.2683
-37.7652	551.166	27.2878
-37.7634	556.715	27.3074
-37.76228	557.643	27.3269
-37.7609	550.993	27.3464
-37.7593	557.078	27.366
-37.7575	553.362	27.3855
-37.7559	552.534	27.405
-37.75486	553.149	27.4246
-37.7517	558.6886	27.4441
-37.7509	553.036	27.4636
-37.7503	552.025	27.4832
-37.7478	554.314	27.5027
-37.745	555.509	27.5222
-37.7444	550.454	27.5417
-37.7426	556.897	27.5613
-37.7413	554.679	27.5808
-37.7409	551.851	27.6003
-37.7383	554.106	27.6199
-37.73724	557.743	27.6394
-37.7352	549.933	27.6589
-37.73357	552.692	27.6785
-37.73159	558.044	27.698
-37.7305	552.955	27.7175
-37.7288	550.324	27.7371
-37.7268	557.533	27.7566
-37.7246	552.278	27.7761
-37.72282	551.911	27.7957
-37.7224	557.807	27.8152
-37.7202	551.33	27.8347
-37.7193	548.983	27.8542
-37.7168	557.682	27.8738
-37.7161	556.86	27.8933
-37.7141	549.0174	27.9128
-37.7117	555.473	27.9324
-37.7103	553.68	27.9519
-37.7092	550.608	27.9714
-37.7072	554.037	27.991
-37.7061	556.939	28.0105
-37.7035	550.974	28.03
-37.7025	553.925	28.0496
-37.7013	554.52	28.0691
-37.6984	552.559	28.0886
-37.69717	549.714	28.1082
-37.6966	558.535	28.1277
-37.695	553.821	28.1472
-37.6941	551.707	28.1667
-37.6903	552.28	28.1863
-37.6889	556.523	28.2058
-37.6884	551.834	28.2253
-37.6861	556.206	28.2449
-37.68462	556.5058	28.2644
-37.6831	548.922	28.2839
-37.6828	552.044	28.3035
-37.6794	559.263	28.323
-37.678	551.477	28.3425
-37.6766	552.272	28.3621
-37.6751	557.148	28.3816
-37.6724	550.972	28.4011
-37.6719	549.695	28.4207
-37.67	555.879	28.4402
-37.6685	553.886	28.4597
-37.6657	550.733	28.4792
-37.6653	557.036	28.4988
-37.6625	551.851	28.5183
-37.6628	548.905	28.5378
-37.6606	555.299	28.5574
-37.6589	556.862	28.5769
-37.6573	549.105	28.5964
-37.6557	553.807	28.616
-37.653	551.752	28.6355
-37.6512	550.9422	28.655
-37.6511	550.832	28.6746
-37.6503	556.243	28.6941
-37.647	550.995	28.7136
-37.6464	550.819	28.7332
-37.6449	553.053	28.7527
-37.6428	553.831	28.7722
-37.641	550.123	28.7917
-37.64011	554.821	28.8113
-37.6369	554.201	28.8308
-37.6366	552.128	28.8503
-37.6342	551.191	28.8699
-37.6323	555.5	28.8894
-37.63055	549.879	28.9089
-37.6297	553.71	28.9285
-37.6284	555.765	28.948
-37.6258	549.396	28.9675
-37.624	548.4278	28.9871
-37.62228	556.807	29.0066
-37.6209	550.565	29.0261
-37.6201	549.285	29.0457
-37.6173	555.106	29.0652
-37.6158	551.237	29.0847
-37.6146	548.768	29.1042
-37.61338	554.229	29.1238
-37.6117	553.327	29.1433
-37.6094	547.547	29.1628
-37.6079	556.854	29.1824
-37.6075	555.303	29.2019
-37.6045	548.106	29.2214
-37.6033	552.963	29.241
-37.6018	556.263	29.2605
-37.5991	550.789	29.28
-37.5986	553.6181	29.2996
-37.5963	552.415	29.3191
-37.5948	552.117	29.3386
-37.5932	549.466	29.3582
-37.5925	556.808	29.3777
-37.5896	552.2926	29.3972
-37.5884	548.8573	29.4167
-37.5864	551.536	29.4363
-37.5842	554.645	29.4558
-37.5837	547.503	29.4753
-37.5814	555.121	29.4949
-37.5809	554.245	29.5144
-37.57803	549.675	29.5339
-37.5769	549.28	29.5535
-37.5745	555.716	29.573
-37.5742	548.203	29.5925
-37.57206	551.113	29.6121
-37.5703	557.057	29.6316
-37.5684	550.605	29.6511
-37.568	545.815	29.6707
-37.56646	554.475	29.6902
-37.5639	551.617	29.7097
-37.5629	549.548	29.7292
-37.5607	554.009	29.7488
-37.5594	550.837	29.7683
-37.5566	547.034	29.7878
-37.5559	553.762	29.8074
-37.5543	555.322	29.8269
-37.5517	547.604	29.8464
-37.551	552.114	29.866
-37.5486	552.975	29.8855
-37.5477	548.151	29.905
-37.5459	549.698	29.9246
-37.54493	555.235	29.9441
-37.54348	551.669	29.9636
-37.5413	551.17	29.9832
-37.5401	550.804	30.0027
-37.5372	550.561	30.0222
-37.5356	547.208	30.0417
-37.5355	554.862	30.0613
-37.5323	553.018	30.0808
-37.5314	548.567	30.1003
-37.5303	549.072	30.1199
-37.5286	555.601	30.1394
-37.5265	548.166	30.1589
-37.5247	550.521	30.1785
-37.5228	553.813	30.198
-37.522	549.473	30.2175
-37.5198	547.8988	30.2371
-37.518	555.14	30.2566
-37.5169	550.082	30.2761
-37.5157	548.274	30.2957
-37.5136	555.154	30.3152
-37.5118	549.457	30.3347
-37.511	543.963	30.3542
-37.50774	553.2113	30.3738
-37.50716	553.497	30.3933
-37.5053	546.201	30.4128
-37.504	553.07	30.4324
-37.5026	550.659	30.4519
-37.5011	546.474	30.4714
-37.4993	551.7132	30.491
-37.4964	555.278	30.5105
-37.49501	548.859	30.53
-37.4943	550.05	30.5496
-37.49255	551.134	30.5691
-37.4904	549.804	30.5886
-37.4895	548.536	30.6082
-37.4867	554.475	30.6277
-37.4863	550.404	30.6472
-37.4839	548.248	30.6667
[...]
-36.639	550.512	40.823
-36.6361	541.119	40.8425
-36.6343	542.436	40.8621
-36.6331	549.767	40.8816
-36.6312	543.149	40.9011
-36.62994	540.433	40.9207
-36.6295	547.615	40.9402
-36.6272	544.85	40.9597
-36.6253	541.182	40.9792
-36.6232	548.706	40.9988
-36.62204	543.488	41.0183
-36.6199	539.309	41.0378
-36.6177	546.39	41.0574
-36.6164	548.572	41.0769
-36.6154	542.433	41.0964
-36.6146	545.871	41.116
-36.6124	544.8891	41.1355
-36.6096	541.59	41.155
-36.6092	543.54	41.1746
-36.6069	548.986	41.1941
-36.6054	542.865	41.2136
-36.6036	542.856	41.2332
-36.6015	545.915	41.2527
-36.6015	546.408	41.2722
-36.5993	541.396	41.2917
-36.5979	547.81	41.3113
-36.5951	547.316	41.3308
-36.5938	541.816	41.3503
-36.5922	542.561	41.3699
-36.5912	547.68	41.3894
-36.5884	541.679	41.4089
-36.5876	545.486	41.4285
-36.5857	547.43	41.448
-36.585	541.685	41.4675
-36.5832	539.874	41.4871
-36.5822	548.9599	41.5066
-36.5783	542.793	41.5261
-36.5778	540.887	41.5457
-36.5753	547.776	41.5652
-36.5739	544.583	41.5847
-36.5731	539.275	41.6042
-36.5719	546.327	41.6238
-36.5692	545.252	41.6433
-36.5693	540.125	41.6628
-36.5657	547.447	41.6824
-36.5638	544.499	41.7019
-36.5625	539.679	41.7214
-36.5607	544.486	41.741
-36.55978	547.164	41.7605
-36.5576	543.0224	41.78
-36.5558	543.766	41.7996
-36.5548	544.487	41.8191
-36.5542	544.635	41.8386
-36.5532	542.601	41.8582
-36.5504	548.705	41.8777
-36.5495	542.883	41.8972
-36.5469	540.585	41.9167
-36.5452	544.572	41.9363
-36.5437	547.088	41.9558
-36.5417	540.04	41.9753
-36.5397	543.784	41.9949
-36.5377	547.149	42.0144
-36.5374	541.754	42.0339
-36.5352	541.128	42.0535
-36.5348	548.157	42.073
-36.53196	541.4505	42.0925
-36.5311	541.276	42.1121
-36.5294	548.384	42.1316
-36.5267	540.807	42.1511
-36.5259	538.3714	42.1707
-36.5247	548.015	42.1902
-36.5214	543.512	42.2097
-36.5205	541.452	42.2292
-36.5189	545.9256	42.2488
-36.5181	543.624	42.2683
-36.51572	540.314	42.2878
-36.5143	545.74	42.3074
-36.5135	546.522	42.3269
-36.5106	539.874	42.3464
-36.5098	544.695	42.366
-36.508	544.848	42.3855
-36.5069	541.575	42.405
-36.5039	541.357	42.4246
-36.5026	547.2265	42.4441
-36.5016	543.585	42.4636
-36.4992	542.795	42.4832
-36.499	544.559	42.5027
-36.496	545.079	42.5222
-36.4947	541.837	42.5417
-36.493	548.605	42.5613
-36.4916	544.457	42.5808
-36.4893	540.187	42.6003
-36.4876	542.62	42.6199
-36.4873	548.88	42.6394
-36.4854	540.428	42.6589
-36.4826	543.768	42.6785
-36.4818	547.376	42.698
-36.4797	542.101	42.7175
-36.4788	540.8161	42.7371
-36.4759	546.734	42.7566
-36.4749	541.236	42.7761
-36.473	540.611	42.7957
-36.4722	548.752	42.8152
-36.4712	543.398	42.8347
-36.4684	537.2298	42.8542
-36.4671	547.1557	42.8738
-36.4653	546.8689	42.8933
-36.4638	538.3064	42.9128
-36.4617	546.118	42.9324
-36.4605	542.988	42.9519
-36.4586	542.194	42.9714
-36.4571	544.109	42.991
-36.455	549.186	43.0105
-36.4531	539.52	43.03
-36.453	543.163	43.0496
-36.4511	545.337	43.0691
-36.4495	544.189	43.0886
-36.4468	539.565	43.1082
-36.4475	546.068	43.1277
-36.4453	544.9837	43.1472
-36.4424	542.53	43.1667
-36.4404	543.815	43.1863
-36.4404	545.516	43.2058
-36.436	541.553	43.2253
-36.4362	545.648	43.2449
-36.4337	546.302	43.2644
-36.4326	540.9726	43.2839
-36.4312	539.903	43.3035
-36.4307	549.136	43.323
-36.4279	541.015	43.3425
-36.4253	541.664	43.3621
-36.4245	546.383	43.3816
-36.4229	539.589	43.4011
-36.42144	538.485	43.4207
-36.4209	546.744	43.4402
-36.4177	543.731	43.4597
-36.4165	540.477	43.4792
-36.4155	547.405	43.4988
-36.4125	542.757	43.5183
-36.4114	539.143	43.5378
-36.4106	544.756	43.5574
-36.408	547.864	43.5769
-36.4067	541.639	43.5964
-36.4053	544.465	43.616
-36.4035	542.598	43.6355
-36.402	542.199	43.655
-36.4005	542.4314	43.6746
-36.3971	548.867	43.6941
-36.3976	542.509	43.7136
-36.3949	542.065	43.7332
-36.395	544.165	43.7527
-36.392	546.192	43.7722
-36.3901	540.659	43.7917
-36.388	545.083	43.8113
-36.3867	545.623	43.8308
-36.3846	541.324	43.8503
-36.3842	541.8103	43.8699
-36.38271	546.537	43.8894
-36.3813	539.445	43.9089
-36.38	543.453	43.9285
-36.3774	547.891	43.948
-36.3754	538.8678	43.9675
-36.3749	539.367	43.9871
-36.3724	546.952	44.0066
-36.3701	542.429	44.0261
-36.3689	540.2851	44.0457
-36.368	546.994	44.0652
-36.366	541.216	44.0847
-36.3643	539.476	44.1042
-36.3635	545.91	44.1238
-36.3617	545.009	44.1433
-36.3592	539.466	44.1628
-36.3571	544.837	44.1824
-36.35635	544.563	44.2019
-36.3545	540.226	44.2214
-36.3531	542.696	44.241
-36.3522	546.129	44.2605
-36.3509	540.689	44.28
-36.3479	542.054	44.2996
-36.3458	543.5647	44.3191
-36.3435	542.591	44.3386
-36.3433	539.985	44.3582
-36.34132	548.121	44.3777
-36.3398	543.392	44.3972
-36.3393	539.469	44.4167
-36.337	542.4364	44.4363
-36.3365	546.802	44.4558
-36.3326	538.77	44.4753
-36.3325	544.313	44.4949
-36.3296	544.985	44.5144
-36.3283	539.398	44.5339
-36.3262	541.091	44.5535
-36.3247	545.873	44.573
-36.3238	540.1825	44.5925
-36.3227	541.005	44.6121
-36.3202	548.365	44.6316
-36.3196	541.233	44.6511
-36.3184	537.797	44.6707
-36.3161	546.922	44.6902
-36.3134	543.75	44.7097
-36.31208	538.356	44.7292
-36.3115	546.605	44.7488
-36.3084	540.752	44.7683
-36.3067	539.242	44.7878
-36.3066	544.174	44.8074
-36.3045	545.623	44.8269
-36.3011	538.736	44.8464
-36.3014	542.115	44.866
-36.2987	543.23	44.8855
-36.2968	540.087	44.905
-36.2961	541.345	44.9246
-36.2943	545.279	44.9441
-36.2929	542.137	44.9636
-36.2901	541.816	44.9832
-36.2899	543.393	45.0027
-36.2881	543.688	45.0222
-36.2869	539.247	45.0417
-36.2851	546.518	45.0613
-36.2831	543.898	45.0808
-36.2811	539.27	45.1003
-36.2807	542.353	45.1199
-36.2787	546.546	45.1394
-36.2764	539.564	45.1589
-36.2747	541.603	45.1785
-36.2731	545.975	45.198
-36.2721	539.76	45.2175
-36.2701	538.6015	45.2371
-36.2686	546.389	45.2566
-36.26646	540.857	45.2761
-36.2658	539.061	45.2957
-36.2635	546.56	45.3152
-36.2623	540.642	45.3347
-36.2606	538.081	45.3542
-36.258	545.1626	45.3738
-36.2569	545.2724	45.3933
-36.2564	540.203	45.4128
-36.2533	545.206	45.4324
-36.2522	542.664	45.4519
-36.24976	539.81	45.4714
-36.2493	543.374	45.491
-36.247	547.333	45.5105
-36.2459	539.635	45.53
-36.2445	540.9187	45.5496
-36.2412	544.146	45.5691
-36.24065	543.609	45.5886
-36.2394	539.468	45.6082
-36.2376	546.32	45.6277
-36.2357	542.601	45.6472
-36.2348	540.3479	45.6667
-36.2322	542.007	45.6863
-36.2304	544.306	45.7058
-36.23	537.848	45.7253
-36.2278	544.276	45.7449
-36.226	545.944	45.7644
-36.2233	537.787	45.7839
-36.2238	539.532	45.8035
-36.2217	547.55	45.823
-36.2192	541.131	45.8425
-36.218	540.419	45.8621
-36.216	546.046	45.8816
-36.2146	539.151	45.9011
-36.2123	539.058	45.9207
-36.2115	545.699	45.9402
-36.2099	541.711	45.9597
-36.2081	538.524	45.9792
-36.2071	545.226	45.9988
-36.2055	541.862	46.0183
-36.2029	539.9801	46.0378
-36.20182	542.928	46.0574
-36.1997	545.222	46.0769
-36.1974	539.051	46.0964
-36.1969	544.12	46.116
-36.1944	541.511	46.1355
-36.1931	539.721	46.155
-36.1919	539.322	46.1746
-36.1895	546.044	46.1941
-36.1887	540.423	46.2136
-36.1879	539.266	46.2332
-36.185	541.297	46.2527
-36.1841	544.367	46.2722
-36.1805	537.928	46.2917
-36.1813	545.106	46.3113
-36.17923	543.545	46.3308
-36.1782	539.078	46.3503
-36.1752	541.621	46.3699
-36.1746	544.643	46.3894
-36.1716	539.48	46.4089
-36.1709	543.114	46.4285
-36.1693	546.482	46.448
-36.167	539.244	46.4675
-36.16658	538.363	46.4871
-36.1643	545.345	46.5066
-36.1624	541.573	46.5261
-36.1613	540.114	46.5457
-36.1596	545.1452	46.5652
-36.1573	537.997	46.5847
-36.1563	539.493	46.6042
-36.15387	545.003	46.6238
-36.1523	543.823	46.6433
-36.1514	539.0769	46.6628
-36.1501	544.072	46.6824
-36.1491	541.732	46.7019
-36.1454	539.917	46.7214
-36.144	541.041	46.741
-36.1429	545.213	46.7605
-36.141	540.13	46.78
-36.1402	543.746	46.7996
-36.1392	541.5271	46.8191
-36.1354	540.386	46.8386
-36.1353	538.822	46.8582
-36.1332	545.998	46.8777
-36.13195	543.305	46.8972
-36.12991	538.472	46.9167
-36.1275	540.738	46.9363
-36.1263	543.682	46.9558
-36.125	539.2	46.9753
-36.1233	543.729	46.9949
-36.12326	543.567	47.0144
-36.1209	536.4458	47.0339
-36.1175	540.595	47.0535
-36.1163	545.284	47.073
-36.1154	538.742	47.0925
-36.11385	540.097	47.1121
-36.1123	545.933	47.1316
-36.1108	539.29	47.1511
-36.108	538.881	47.1707
-36.1074	543.461	47.1902
-36.1053	543.218	47.2097
-36.1044	536.935	47.2292
-36.1023	544.622	47.2488
-36.1023	540.852	47.2683
-36.09856	538.041	47.2878
-36.09734	541.701	47.3074
-36.0963	545.312	47.3269
-36.0931	538.101	47.3464
-36.0922	542.697	47.366
-36.0912	542.326	47.3855
-36.08952	541.72	47.405
-36.0888	539.37	47.4246
-36.0861	544.34	47.4441
-36.0847	539.886	47.4636
-36.0838	539.7525	47.4832
-36.0815	541.261	47.5027
-36.0793	542.883	47.5222
-36.0777	537.544	47.5417
-36.0755	544.608	47.5613
-36.0745	543.367	47.5808
-36.0733	536.982	47.6003
-36.0719	540.353	47.6199
-36.0694	544.458	47.6394
-36.0686	537.531	47.6589
-36.0668	540.558	47.6785
-36.0657	543.3374	47.698
-36.0632	536.968	47.7175
-36.061	538.326	47.7371
-36.06	545.258	47.7566
-36.0583	539.825	47.7761
-36.0582	537.748	47.7957
-36.0554	546.083	47.8152
-36.0548	538.789	47.8347
-36.05188	538.935	47.8542
-36.0503	542.366	47.8738
-36.0497	544.163	47.8933
-36.0489	538.892	47.9128
-36.04641	545.405	47.9324
-36.0443	540.177	47.9519
-36.0417	539.025	47.9714
-36.0408	540.817	47.991
-36.039	545.334	48.0105
-36.0373	539.371	48.03
-36.0358	540.045	48.0496
-36.0334	540.792	48.0691
-36.0314	541.398	48.0886
-36.031	538.594	48.1082
-36.0296	545.522	48.1277
-36.027	539.833	48.1472
-36.027	538.281	48.1667
-36.0231	541.737	48.1863
-36.0226	542.753	48.2058
-36.021	535.065	48.2253
-36.0197	541.006	48.2449
-36.0179	544.486	48.2644
-36.0164	536.382	48.2839
-36.01479	538.646	48.3035
-36.0135	545.229	48.323
-36.0111	540.044	48.3425
-36.009	540.406	48.3621
-36.0087	544.548	48.3816
-36.0062	535.307	48.4011
-36.0041	538.373	48.4207
-36.0038	544.811	48.4402
-36.0011	541.914	48.4597
-36.0001	537.11	48.4792
-35.9973	544.593	48.4988
-35.99712	540.288	48.5183
-35.9941	539.046	48.5378
-35.9926	540.053	48.5574
-35.9923	543.739	48.5769
-35.9895	538.979	48.5964
-35.989	543.561	48.616
-35.9856	542.357	48.6355
-35.9841	539.102	48.655
-35.9831	536.587	48.6746
-35.9829	545.9126	48.6941
-35.97982	539.473	48.7136
-35.9784	539.379	48.7332
-35.9771	540.937	48.7527
-35.9752	542.582	48.7722
-35.9731	537.66	48.7917
-35.972	542.51	48.8113
-35.9688	541.661	48.8308
-35.9681	536.625	48.8503
-35.9679	540.014	48.8699
-35.9661	542.48	48.8894
-35.9642	536.992	48.9089
-35.9622	538.079	48.9285
-35.9608	545.287	48.948
-35.9591	537.119	48.9675
-35.9576	537.943	48.9871
-35.9559	542.625	49.0066
-35.9539	539.857	49.0261
-35.9524	537.311	49.0457
-35.9513	545.269	49.0652
-35.95002	536.52	49.0847
-35.9484	536.564	49.1042
-35.9463	542.965	49.1238
-35.945	545.319	49.1433
-35.943	537.49	49.1628
-35.9419	543.212	49.1824
-35.9389	539.667	49.2019
-35.9385	538.961	49.2214
-35.9377	539.569	49.241
-35.935	542.643	49.2605
-35.933	537.982	49.28
-35.9317	541.838	49.2996
-35.9297	540.708	49.3191
-35.9274	539.727	49.3386
-35.9261	537.505	49.3582
-35.9241	542.328	49.3777
-35.9227	541.494	49.3972
-35.9221	535.545	49.4167
-35.9197	539.738	49.4363
-35.9176	541.247	49.4558
-35.9169	535.587	49.4753
-35.915	540.271	49.4949
-35.9137	541.805	49.5144
-35.91259	534.234	49.5339
-35.91	537.852	49.5535
-35.9084	542.442	49.573
-35.9073	538.282	49.5925
-35.9058	537.228	49.6121
-35.9037	544.572	49.6316
-35.9032	536.939	49.6511
-35.9002	538.163	49.6707
-35.8989	541.987	49.6902
-35.8968	539.969	49.7097
-35.8947	537.502	49.7292
-35.89473	543.903	49.7488
-35.892	537.385	49.7683
-35.8909	536.031	49.7878
-35.8897	540.0871	49.8074
-35.8878	544.81	49.8269
-35.8857	536.645	49.8464
-35.88364	542.157	49.866
-35.8827	539.986	49.8855
-35.8805	539.918	49.905
-35.8791	537.511	49.9246
-35.8765	543.841	49.9441
-35.8759	536.928	49.9636
-35.87402	537.287	49.9832
-35.8737	539.443	50.0027
-35.8713	539.536	50.0222
-35.8708	534.42	50.0417
-35.8681	540.352	50.0613
-35.8673	540.94	50.0808
-35.86467	534.489	50.1003
-35.8634	538.0752	50.1199
-35.86076	541.404	50.1394
-35.8602	535.902	50.1589
-35.8591	538.197	50.1785
-35.8568	542.962	50.198
-35.85553	533.796	50.2175
-35.8531	536.877	50.2371
-35.8512	542.436	50.2566
-35.8496	537.977	50.2761
-35.8482	537.412	50.2957
-35.8463	542.454	50.3152
-35.8448	537.588	50.3347
-35.84391	536.922	50.3542
-35.8409	540.312	50.3738
-35.84	540.189	50.3933
-35.8396	535.341	50.4128
-35.83712	542.047	50.4324
-35.8344	539.0174	50.4519
-35.8343	537.19	50.4714
-35.8323	538.557	50.491
-35.83033	543.812	50.5105
-35.8283	537.405	50.53
-35.8277	538.672	50.5496
-35.8243	538.508	50.5691
-35.8244	538.399	50.5886
-35.8224	536.159	50.6082
-35.8212	541.308	50.6277
-35.8186	538.785	50.6472
-35.8171	534.855	50.6667
-35.8163	538.191	50.6863
-35.81311	539.3504	50.7058
-35.8128	535.145	50.7253
-35.8102	538.207	50.7449
-35.8102	540.977	50.7644
-35.808	532.485	50.7839
-35.806	535.0957	50.8035
-35.8039	540.157	50.823
-35.8017	537.494	50.8425
-35.8017	535.313	50.8621
-35.7998	543.552	50.8816
-35.79784	534.002	50.9011
-35.7965	537.117	50.9207
-35.7938	539.882	50.9402
-35.7947	538.702	50.9597
-35.7917	534.176	50.9792
-35.7899	540.351	50.9988
-35.788	536.075	51.0183
-35.78738	535.77	51.0378
-35.7853	539.346	51.0574
-35.7825	540.63	51.0769
-35.7816	533.0686	51.0964
-35.7799	538.0719	51.116
-35.779	538.229	51.1355
-35.77631	534.9906	51.155
-35.7754	534.878	51.1746
-35.7734	542.0882	51.1941
-35.772	536.214	51.2136
-35.7707	535.084	51.2332
-35.7687	536.28	51.2527
-35.7669	536.324	51.2722
-35.7657	533.32	51.2917
-35.7647	540.582	51.3113
-35.76189	538.899	51.3308
-35.7595	532.404	51.3503
-35.7591	538.054	51.3699
-35.7565	539.5	51.3894
-35.7557	535.0863	51.4089
-35.7555	535.581	51.4285
-35.7522	541.2547	51.448
-35.7511	532.821	51.4675
-35.7484	536.188	51.4871
-35.7486	539.447	51.5066
-35.74654	534.903	51.5261
-35.74387	533.988	51.5457
-35.7429	541.9978	51.5652
-35.7411	534.36	51.5847
-35.7393	534.232	51.6042
-35.73801	537.4	51.6238
-35.7369	540.081	51.6433
-35.7341	532.588	51.6628
-35.7327	537.055	51.6824
-35.7322	536.044	51.7019
-35.7291	534.339	51.7214
-35.72842	536.113	51.741
-35.7266	540.257	51.7605
-35.7255	534.382	51.78
-35.7233	535.093	51.7996
-35.7213	537.064	51.8191
-35.71999	536.485	51.8386
-35.7186	531.258	51.8582
-35.7167	538.733	51.8777
-35.7146	537.219	51.8972
-35.713	532.88	51.9167
-35.71225	535.239	51.9363
-35.7098	536.238	51.9558
-35.7081	532.586	51.9753
-35.7072	536.205	51.9949
-35.7057	539.593	52.0144
-35.704	529.703	52.0339
-35.7022	535.067	52.0535
-35.7005	538.0434	52.073
-35.69804	535.215	52.0925
-35.6978	533.236	52.1121
-35.6962	538.757	52.1316
-35.6943	530.497	52.1511
-35.69212	535.493	52.1707
-35.6906	538.166	52.1902
-35.6897	536.142	52.2097
-35.687	531.3689	52.2292
-35.6862	539.562	52.2488
-35.6837	533.777	52.2683
-35.6818	534.097	52.2878
-35.681	536.187	52.3074
-35.6782	536.798	52.3269
-35.6768	532.99	52.3464
-35.67606	533.589	52.366
-35.6734	533.92	52.3855
-35.6733	532.91	52.405
-35.67078	533.865	52.4246
-35.6691	537.216	52.4441
-35.6682	532.648	52.4636
-35.666	530.124	52.4832
-35.6648	534.938	52.5027
-35.6625	533.699	52.5222
-35.6611	528.3656	52.5417
-35.65852	533.917	52.5613
-35.6575	534.204	52.5808
-35.6571	527.021	52.6003
-35.6543	534.153	52.6199
-35.6536	534.717	52.6394
-35.6525	528.891	52.6589
-35.6501	529.588	52.6785
-35.6488	537.105	52.698
-35.6465	524.301	52.7175
-35.646	527.974	52.7371
-35.6423	533.225	52.7566
-35.641	528.55	52.7761
-35.6409	525.601	52.7957
-35.6381	530.265	52.8152
-35.6372	524.609	52.8347
-35.6346	524.291	52.8542
-35.6337	527.292	52.8738
-35.6315	527.621	52.8933
-35.6303	519.726	52.9128
-35.6287	524.81	52.9324
-35.62706	520.568	52.9519
-35.6246	517.282	52.9714
-35.6231	517.05	52.991
-35.6225	519.648	53.0105
-35.622	511.376	53.03
-35.6196	512.137	53.0496
-35.6171	510.217	53.0691
-35.6157	504.966	53.0886
-35.6147	496.551	53.1082
-35.6094	-37.035	53.1277
-35.6075	-45.2101	53.1472
-35.6067	-49.672	53.1667
-35.6066	-41.1676	53.1863
-35.60601	-40.62545	53.2058
-35.6044	-46.6246	53.2253
-35.6012	-41.3739	53.2449
-35.6004	-39.5926	53.2644
-35.5987	-46.0237	53.2839
-35.5969	-40.6706	53.3035
-35.5958	-38.663	53.323
-35.5938	-43.444	53.3425
-35.5923	-43.5491	53.3621
-35.5904	-36.71582	53.3816
-35.5876	-47.5464	53.4011
-35.5878	-45.2168	53.4207
-35.5851	-41.4255	53.4402
-35.58532	-40.0898	53.4597
-35.5822	-43.3828	53.4792
-35.5814	-40.0114	53.4988
-35.5796	-44.4529	53.5183
-35.5778	-44.9654	53.5378
-35.5759	-41.4216	53.5574
-35.574	-38.4581	53.5769
-35.573	-44.9381	53.5964
-35.5718	-42.2529	53.616
-35.5701	-41.5136	53.6355
-35.5682	-42.7854	53.655
-35.56712	-43.8148	53.6746
-35.5649	-38.8152	53.6941
-35.5634	-42.384	53.7136
-35.5628	-45.0349	53.7332
-35.56023	-39.7119	53.7527
-35.5584	-42.4629	53.7722
-35.5572	-45.5913	53.7917
-35.555	-40.255	53.8113
-35.5542	-40.3368	53.8308
-35.5515	-48.4189	53.8503
-35.5511	-40.6713	53.8699
-35.5497	-39.7621	53.8894
-35.5466	-43.149	53.9089
-35.5458	-42.3252	53.9285
-35.5438	-38.0115	53.948
-35.5428	-46.7027	53.9675
-35.5395	-42.5919	53.9871
-35.5393	-38.9885	54.0066
-35.53764	-43.0852	54.0261
-35.5354	-44.964	54.0457
-35.53405	-36.7692	54.0652
-35.5322	-45.4541	54.0847
-35.5317	-44.4602	54.1042
-35.52932	-41.8355	54.1238
-35.5271	-41.5071	54.1433
-35.52549	-44.3112	54.1628
-35.524	-40.9417	54.1824
-35.5221	-44.0651	54.2019
-35.5215	-44.5678	54.2214
-35.52	-42.7472	54.241
-35.5187	-39.4846	54.2605
-35.51572	-44.4387	54.28
-35.5141	-44.5929	54.2996
-35.5124	-41.0741	54.3191
-35.5107	-42.4746	54.3386
-35.5101	-43.9087	54.3582
-35.5077	-39.5868	54.3777
-35.5064	-41.4484	54.3972
-35.5042	-47.162	54.4167
-35.5035	-42.5262	54.4363
-35.5014	-40.0282	54.4558
-35.4995	-46.732	54.4753
-35.4988	-41.0128	54.4949
-35.4961	-38.29274	54.5144
-35.4948	-48.33754	54.5339
-35.4932	-43.5708	54.5535
-35.492	-39.6955	54.573
-35.4904	-43.8534	54.5925
-35.4887	-44.0395	54.6121
-35.4867	-39.1605	54.6316
-35.4857	-47.5501	54.6511
-35.4829	-44.7649	54.6707
-35.4816	-39.1452	54.6902
-35.4815	-43.2135	54.7097
-35.4783	-46.1523	54.7292
-35.4776	-39.6499	54.7488
-35.4756	-43.8836	54.7683
-35.4729	-44.4707	54.7878
-35.4722	-42.2889	54.8074
-35.4706	-40.0807	54.8269
-35.4698	-45.075	54.8464
-35.4675	-42.9029	54.866
-35.4651	-42.2882	54.8855
-35.4639	-43.6669	54.905
-35.4625	-44.3887	54.9246
-35.4615	-38.8356	54.9441
-35.45927	-42.4161	54.9636
-35.4589	-45.6309	54.9832
-35.4565	-42.1316	55.0027
-35.4541	-42.3627	55.0222
-35.4529	-43.9476	55.0417
-35.4515	-41.6569	55.0613
-35.4496	-41.5441	55.0808
-35.4486	-48.0557	55.1003
-35.44593	-41.1642	55.1199
-35.4448	-39.7699	55.1394
-35.4422	-45.6366	55.1589
-35.4417	-42.0586	55.1785
-35.44	-37.5867	55.198
-35.4383	-47.4959	55.2175
-35.4365	-43.603	55.2371
-35.4345	-41.166	55.2566
-35.4329	-43.51318	55.2761
-35.4321	-45.1455	55.2957
-35.43	-39.2328	55.3152
-35.4279	-46.8972	55.3347
-35.4268	-44.69458	55.3542
-35.4251	-39.1636	55.3738
-35.4247	-41.5722	55.3933
-35.4214	-46.0889	55.4128
-35.4195	-41.7014	55.4324
-35.4188	-43.3226	55.4519
-35.4168	-43.7082	55.4714
-35.4145	-43.1789	55.491
-35.414	-40.6437	55.5105
-35.4118	-44.5022	55.53
-35.4107	-42.776	55.5496
-35.4086	-41.2001	55.5691
-35.4065	-42.6402	55.5886
-35.4057	-45.2271	55.6082
-35.4037	-40.4923	55.6277
-35.4023	-40.9597	55.6472
-35.40073	-47.7301	55.6667
-35.3984	-42.4601	55.6863
-35.3977	-42.3604	55.7058
-35.3969	-43.99567	55.7253
-35.3945	-42.0425	55.7449
-35.3915	-40.7017	55.7644
-35.3903	-48.1811	55.7839
-35.3881	-40.3509	55.8035
-35.3882	-40.3475	55.823
-35.386	-43.7007	55.8425
-35.3842	-44.1484	55.8621
-35.3821	-37.7845	55.8816
-35.3807	-46.2728	55.9011
-35.3795	-42.27824	55.9207
-35.3777	-41.0521	55.9402
-35.3765	-41.1533	55.9597
-35.3751	-44.487	55.9792
-35.3737	-39.4819	55.9988
-35.3714	-45.0589	56.0183
-35.3707	-44.3589	56.0378
-35.3684	-40.9524	56.0574
-35.3664	-38.7531	56.0769
-35.3638	-43.4687	56.0964
-35.3631	-41.55751	56.116
-35.36063	-39.6503	56.1355
-35.35968	-41.7296	56.155
-35.3585	-42.8648	56.1746
-35.3567	-39.6882	56.1941
-35.35585	-43.7348	56.2136
-35.3543	-44.6042	56.2332
-35.3527	-40.2986	56.2527
-35.3503	-42.1569	56.2722
-35.3495	-46.4638	56.2917
-35.3473	-39.7241	56.3113
-35.3447	-38.6047	56.3308
-35.343	-46.22	56.3503
-35.3426	-41.529	56.3699