File: data/processed_data_files/tensile/0.254_solid_uprint_typeiv_4545_r(6).dat
MTS793|BTW|ENU|1|2|.|/|:|1|0|0|A

Data Header:			0.254_solid_uprint_typeiv_4545_r0			Time:	20.01709	s	4/13/2019 7:01:33 PM
Data Acquisition:	Timed
Station Name:	ft40.cfg
Test File Name:	Type IV_Monotonic.tst
Displacement	Force	Running Time
mm	N	s
-40.0442	-208.335	0.0219727
-40.0458	-207.336	0.0415039
-40.0453	-208.227	0.0610352
-40.0432	-204.046	0.0805664
-40.0428	-205.419	0.100098
-40.0409	-208.155	0.119629
-40.0393	-205.464	0.13916
-40.0378	-200.945	0.158691
-40.0353	-206.175	0.178223
-40.0345	-199.791	0.197754
-40.0339	-195.108	0.217285
-40.0315	-201.863	0.236816
-40.0293	-202.394	0.256348
-40.0278	-193.127	0.275879
-40.02655	-197.2252	0.29541
-40.0246	-196.082	0.314941
-40.0229	-190.589	0.334473
-40.0196	-193.256	0.354004
-40.021	-196.243	0.373535
-40.0182	-185.774	0.393066
-40.0167	-187.9617	0.412598
-40.0153	-192.7545	0.432129
-40.0135	-184.875	0.45166
-40.0121	-185.304	0.471191
-40.0105	-191.285	0.490723
-40.0089	-185.189	0.510254
-40.008	-180.702	0.529785
-40.0058	-185.313	0.549316
-40.0032	-181.313	0.568848
-40.0024	-181.187	0.588379
-40.0005	-182.442	0.60791
-39.99778	-181.418	0.627441
-39.9971	-172.824	0.646973
-39.9954	-175.075	0.666504
-39.99366	-176.595	0.686035
-39.9915	-174.917	0.705566
-39.9917	-170.039	0.725098
-39.9888	-176.602	0.744629
-39.98774	-169.148	0.76416
-39.9861	-167.819	0.783691
-39.9839	-171.016	0.803223
-39.983	-170.461	0.822754
-39.9813	-162.116	0.842285
-39.9796	-170.722	0.861816
-39.9779	-166.752	0.881348
-39.9762	-160.418	0.900879
-39.9751	-163.772	0.92041
-39.9725	-168.894	0.939941
-39.9702	-156.3531	0.959473
-39.9706	-160.943	0.979004
-39.9673	-162.019	0.998535
-39.9667	-156.583	1.01807
-39.9642	-157.54	1.0376
-39.9629	-162.008	1.05713
-39.9605	-152.456	1.07666
-39.96	-150.0817	1.09619
-39.958	-157.822	1.11572
-39.95652	-153.009	1.13525
-39.9545	-150.1796	1.15479
-39.953	-153.154	1.17432
-39.952	-150.837	1.19385
-39.9503	-145.857	1.21338
-39.9492	-148.646	1.23291
-39.9468	-147.374	1.25244
-39.9448	-145.166	1.27197
-39.94342	-145.111	1.2915
-39.9432	-146.925	1.31104
-39.9411	-137.617	1.33057
-39.9381	-139	1.3501
-39.9376	-142.949	1.36963
-39.9356	-141.208	1.38916
-39.93454	-133.54	1.40869
-39.9316	-140.901	1.42822
-39.9303	-134.951	1.44775
-39.9283	-129.919	1.46729
-39.9273	-136.182	1.48682
-39.9261	-137.675	1.50635
-39.9241	-127.115	1.52588
-39.9229	-133.4158	1.54541
-39.9217	-133.513	1.56494
-39.9207	-124.821	1.58447
-39.9181	-127.325	1.604
-39.915	-133.853	1.62354
-39.9144	-122.674	1.64307
-39.9139	-123.6083	1.6626
-39.9097	-126.735	1.68213
-39.90987	-121.305	1.70166
-39.9066	-121.667	1.72119
-39.90501	-126.508	1.74072
-39.9044	-118.531	1.76025
-39.9031	-113.333	1.77979
-39.9004	-120.939	1.79932
-39.8998	-119.828	1.81885
-39.8985	-115.24	1.83838
-39.8966	-116.001	1.85791
-39.8957	-115.556	1.87744
-39.8935	-109.098	1.89697
-39.891	-112.712	1.9165
-39.88895	-111.5488	1.93604
-39.8885	-109.717	1.95557
-39.8865	-107.247	1.9751
-39.885	-112.4052	1.99463
-39.88279	-104.112	2.01416
-39.8827	-100.77	2.03369
-39.88	-106.272	2.05322
-39.87785	-108.012	2.07275
-39.87611	-98.2921	2.09229
-39.8755	-103.457	2.11182
-39.8733	-99.7284	2.13135
-39.871	-96.4617	2.15088
-39.8711	-99.7323	2.17041
-39.8693	-103.012	2.18994
-39.8667	-91.3475	2.20947
-39.8644	-95.4297	2.229
-39.8633	-98.14653	2.24854
-39.863	-90.803	2.26807
-39.8605	-91.4143	2.2876
-39.85902	-97.2612	2.30713
-39.8578	-87.8004	2.32666
-39.8559	-87.7402	2.34619
-39.8536	-91.0199	2.36572
-39.8518	-85.4649	2.38525
-39.8513	-83.4196	2.40479
-39.8495	-90.275	2.42432
-39.8474	-86.2035	2.44385
-39.8467	-78.2455	2.46338
-39.8437	-82.9738	2.48291
-39.842	-83.9249	2.50244
-39.8419	-81.0446	2.52197
-39.8399	-79.0141	2.5415
-39.8372	-81.3485	2.56104
-39.8356	-73.9022	2.58057
-39.835	-75.8579	2.6001
-39.8327	-78.6386	2.61963
-39.8317	-75.4124	2.63916
-39.8297	-68.812	2.65869
-39.8284	-76.5685	2.67822
-39.8271	-71.9475	2.69775
-39.8259	-65.0363	2.71729
-39.8223	-71.283	2.73682
-39.822	-73.4238	2.75635
-39.8204	-61.6014	2.77588
-39.8185	-66.662	2.79541
-39.8166	-64.9195	2.81494
-39.814	-60.3295	2.83447
-39.8134	-63.85976	2.854
-39.8111	-67.3758	2.87354
-39.8102	-57.04562	2.89307
-39.8081	-57.41534	2.9126
-39.8072	-61.4802	2.93213
-39.8058	-55.9278	2.95166
-39.804	-56.2651	2.97119
-39.8026	-61.1325	2.99072
-39.7993	-53.9572	3.01025
-39.7986	-50.354	3.02979
-39.7968	-55.21703	3.04932
-39.7952	-51.1689	3.06885
-39.7953	-50.1158	3.08838
-39.7914	-52.2488	3.10791
-39.7899	-50.23278	3.12744
-39.789	-42.4718	3.14697
-39.7871	-46.6523	3.1665
-39.7855	-49.3744	3.18604
-39.7844	-45.4389	3.20557
-39.7822	-41.1174	3.2251
-39.7808	-45.7995	3.24463
-39.7802	-37.9464	3.26416
-39.7784	-37.2059	3.28369
-39.7754	-41.2697	3.30322
-39.7744	-42.312	3.32275
-39.77179	-33.1498	3.34229
-39.7711	-41.2186	3.36182
-39.76881	-39.169	3.38135
-39.7675	-31.00861	3.40088
-39.7664	-33.5771	3.42041
-39.7657	-38.2455	3.43994
-39.763	-27.1938	3.45947
-39.7621	-30.8062	3.479
-39.7596	-32.2971	3.49854
-39.7577	-25.1331	3.51807
-39.7558	-28.7767	3.5376
-39.756	-34.4775	3.55713
-39.7529	-23.5925	3.57666
-39.7514	-21.1261	3.59619
-39.7512	-27.0021	3.61572
-39.7477	-23.224	3.63525
-39.7467	-20.8662	3.65479
-39.7443	-24.3451	3.67432
-39.7448	-19.9081	3.69385
-39.7428	-16.2905	3.71338
-39.7404	-20.6761	3.73291
-39.7383	-18.7047	3.75244
-39.73848	-16.1865	3.77197
-39.7356	-14.2484	3.7915
-39.7338	-17.8868	3.81104
-39.7311	-10.58307	3.83057
-39.7306	-9.28917	3.8501
-39.729	-13.0935	3.86963
-39.7261	-13.1347	3.88916
-39.7255	-5.87705	3.90869
-39.7231	-10.7632	3.92822
-39.7214	-5.72543	3.94775
-39.7207	-2.91839	3.96729
-39.7186	-7.61401	3.98682
-39.7162	-8.36092	4.00635
-39.7157	1.63657	4.02588
-39.714	-3.21831	4.04541
-39.714	-2.58024	4.06494
-39.7112	2.79815	4.08447
-39.7088	1.01979	4.104
-39.7078	-3.36552	4.12354
-39.7059	6.53367	4.14307
-39.7056	4.102242	4.1626
-39.7026	0.572585	4.18213
-39.701	9.06167	4.20166
-39.7003	8.18115	4.22119
-39.6977	2.33712	4.24072
-39.6968	8.83108	4.26025
-39.6944	14.25167	4.27979
-39.6931	9.54951	4.29932
-39.6902	11.2417	4.31885
-39.69038	12.3791	4.33838
-39.6884	12.2667	4.35791
-39.686	13.3969	4.37744
-39.6847	20.4986	4.39697
-39.6843	16.0722	4.4165
-39.6819	15.1633	4.43604
-39.6805	18.6371	4.45557
-39.678	20.9317	4.4751
-39.6769	17.2099	4.49463
-39.6746	25.3126	4.51416
-39.6738	25.9795	4.53369
-39.672	22.2868	4.55322
-39.6694	21.0236	4.57275
-39.6691	30.5312	4.59229
-39.66716	23.8724	4.61182
-39.6654	29.399	4.63135
-39.6637	34.2339	4.65088
-39.66156	29.66065	4.67041
-39.6606	25.911	4.68994
-39.6596	38.57386	4.70947
-39.6569	33.3682	4.729
-39.65485	33.6734	4.74854
-39.65451	37.4492	4.76807
-39.6524	36.1592	4.7876
-39.6512	31.52594	4.80713
-39.6481	40.8218	4.82666
-39.6469	43.3935	4.84619
-39.646	37.3595	4.86572
-39.644	42.9033	4.88525
-39.643	45.01	4.90479
-39.6402	39.525	4.92432
-39.638	42.8241	4.94385
-39.6369	50.7042	4.96338
-39.6348	45.1793	4.98291
-39.635	46.3192	5.00244
-39.63216	49.6129	5.02197
-39.6314	49.6336	5.0415
-39.6295	48.3279	5.06104
-39.6271	55.3906	5.08057
-39.626	54.3251	5.1001
-39.6255	50.8987	5.11963
-39.6222	53.51078	5.13916
-39.6216	61.0157	5.15869
-39.6198	53.3575	5.17822
-39.6184	58.9207	5.19775
-39.618	60.9457	5.21729
-39.6149	58.7138	5.23682
-39.6129	56.7314	5.25635
-39.6121	66.2644	5.27588
-39.6099	61.3459	5.29541
-39.6085	61.7495	5.31494
-39.6072	69.9337	5.33447
-39.6044	66.5586	5.354
-39.6041	60.4921	5.37354
-39.6021	71.6925	5.39307
-39.5998	71.45459	5.4126
-39.59911	65.5754	5.43213
-39.5978	74.2006	5.45166
-39.5946	72.4217	5.47119
-39.5938	67.8457	5.49072
-39.5923	75.95433	5.51025
-39.59124	78.2305	5.52979
-39.5895	72.31617	5.54932
-39.58786	76.8892	5.56885
-39.5865	80.2372	5.58838
-39.5836	77.8767	5.60791
-39.5822	78.9101	5.62744
-39.5802	86.39341	5.64697
-39.5787	82.6931	5.6665
-39.5777	82.0147	5.68604
-39.5762	82.4981	5.70557
-39.5743	86.3845	5.7251
-39.572	83.1085	5.74463
-39.5707	90.4598	5.76416
-39.5693	90.4806	5.78369
-39.5675	86.4218	5.80322
-39.5655	85.31337	5.82275
-39.5646	94.8258	5.84229
-39.5634	88.99054	5.86182
-39.5614	92.2969	5.88135
-39.5608	97.6356	5.90088
-39.5585	92.5635	5.92041
-39.557	90.4543	5.93994
-39.55418	102.535	5.95947
-39.5534	96.1303	5.979
-39.5517	96.511	5.99854
-39.5492	104.128	6.01807
-39.54768	102.379	6.0376
-39.5473	94.493	6.05713
-39.5447	103.6027	6.07666
-39.5433	105.391	6.09619
-39.5414	99.93766	6.11572
-39.539	106.05	6.13525
-39.5382	107.641	6.15479
-39.5361	103.574	6.17432
-39.5353	108.131	6.19385
-39.5352	115.108	6.21338
-39.5332	108.175	6.23291
-39.5308	108.707	6.25244
-39.5291	114.12	6.27197
-39.527	114.9576	6.2915
-39.5256	110.814	6.31104
-39.5239	119.9463	6.33057
-39.5219	118.771	6.3501
-39.5198	116.772	6.36963
-39.5189	116.6258	6.38916
-39.51693	122.994	6.40869
-39.5154	116.482	6.42822
-39.5131	122.205	6.44775
-39.5136	125.032	6.46729
-39.5096	121.595	6.48682
-39.50845	120.006	6.50635
-39.5074	130.529	6.52588
-39.506	125.126	6.54541
-39.5028	126.8783	6.56494
-39.503	131.3557	6.58447
-39.5009	128.34	6.604
-39.4999	124.884	6.62354
-39.4975	136.603	6.64307
-39.4965	134.712	6.6626
-39.4942	129.1781	6.68213
-39.4929	135.949	6.70166
-39.4923	135.498	6.72119
-39.4894	130.206	6.74072
-39.4873	138.8	6.76025
-39.486	141.6142	6.77979
-39.4845	136.498	6.79932
-39.4837	140.499	6.81885
-39.4809	141.369	6.83838
-39.4805	139.199	6.85791
-39.4784	140.585	6.87744
-39.4766	147.428	6.89697
-39.4755	145.012	6.9165
-39.47385	145.5296	6.93604
-39.4714	146.656	6.95557
-39.47	149.972	6.9751
-39.4682	145.297	6.99463
-39.4669	152.204	7.01416
-39.4653	153.031	7.03369
-39.4631	147.986	7.05322
-39.4626	149.835	7.07275
-39.4599	158.814	7.09229
-39.4586	151.471	7.11182
-39.457	154.86	7.13135
-39.456	161.469	7.15088
-39.4529	156.545	7.17041
-39.4533	153.73	7.18994
-39.4499	164.873	7.20947
-39.4494	160.141	7.229
-39.4481	162.501	7.24854
-39.4458	167.635	7.26807
-39.4447	163.952	7.2876
-39.4435	156.826	7.30713
-39.4412	168.852	7.32666
-39.4396	171.187	7.34619
-39.4369	165.013	7.36572
-39.43602	168.45	7.38525
-39.4335	171.168	7.40479
-39.4321	167.501	7.42432
-39.43103	170.488	7.44385
-39.4295	176.365	7.46338
-39.4272	171.624	7.48291
-39.4263	172.595	7.50244
-39.4248	177.137	7.52197
-39.4238	177.397	7.5415
-39.42	173.451	7.56104
-39.41993	183.067	7.58057
-39.4178	182.182	7.6001
-39.4167	178.237	7.61963
-39.4156	178.912	7.63916
-39.4138	185.069	7.65869
-39.4123	180.092	7.67822
-39.4113	185.73	7.69775
-39.4095	189.185	7.71729
-39.4062	183.224	7.73682
-39.4043	183.428	7.75635
-39.4022	193.571	7.77588
-39.402	188.046	7.79541
-39.4002	187.4335	7.81494
-39.3976	194.325	7.83447
-39.3973	193.072	7.854
-39.3956	186.698	7.87354
-39.3945	196.376	7.89307
-39.3916	195.688	7.9126
-39.3894	192.515	7.93213
-39.3886	199.323	7.95166
-39.3864	198.595	7.97119
-39.3844	192.254	7.99072
-39.3838	199.872	8.01025
-39.3825	204.755	8.02979
-39.3808	198.903	8.04932
-39.3797	201.834	8.06885
-39.3777	204.892	8.08838
-39.3765	202.086	8.10791
-39.3741	204.032	8.12744
-39.37196	211.71	8.14697
-39.3707	207.671	8.1665
-39.3695	207.832	8.18604
-39.3675	211.747	8.20557
-39.3659	212.406	8.2251
-39.3642	206.012	8.24463
-39.3631	213.631	8.26416
-39.36137	215.584	8.28369
-39.3601	212.257	8.30322
-39.3587	213.156	8.32275
-39.3561	219.79	8.34229
-39.3542	214.073	8.36182
-39.3522	217.754	8.38135
-39.35186	223.791	8.40088
-39.3497	218.63	8.42041
-39.348	214.778	8.43994
-39.3468	226.555	8.45947
-39.3446	221.355	8.479
-39.3434	220.0984	8.49854
-39.3414	227.6356	8.51807
-39.34045	227.746	8.5376
-39.3376	220.724	8.55713
-39.3364	230.469	8.57666
-39.33503	230.845	8.59619
-39.3343	225.135	8.61572
-39.3327	232.3284	8.63525
-39.3307	232.826	8.65479
-39.3299	226.823	8.67432
-39.32777	231.697	8.69385
-39.3254	239.337	8.71338
-39.3231	233.408	8.73291
-39.3228	235.627	8.75244
-39.3217	235.826	8.77197
-39.3186	238.417	8.7915
-39.3177	235.561	8.81104
-39.3151	244.7256	8.83057
-39.3133	241.263	8.8501
-39.3125	238.78	8.86963
-39.3101	240.9926	8.88916
-39.3085	247.507	8.90869
-39.3068	241.257	8.92822
-39.3055	245.878	8.94775
-39.3041	249.746	8.96729
-39.3035	244.304	8.98682
-39.3003	244.076	9.00635
-39.30014	254.552	9.02588
-39.2982	247.554	9.04541
-39.2952	249.741	9.06494
-39.29549	255.959	9.08447
-39.292	254.243	9.104
-39.2917	246.939	9.12354
-39.2896	258.3894	9.14307
-39.288	257.736	9.1626
-39.2859	254.01	9.18213
-39.2846	259.162	9.20166
-39.2827	258.49	9.22119
-39.2806	253.179	9.24072
-39.2808	261.691	9.26025
-39.2789	265.871	9.27979
-39.276	257.6839	9.29932
-39.2752	263.893	9.31885
-39.2737	265.4379	9.33838
-39.2714	260.969	9.35791
-39.2707	264.372	9.37744
-39.2689	270.791	9.39697
-39.2665	267.792	9.4165
-39.2662	266.742	9.43604
-39.2645	268.431	9.45557
-39.2619	270.835	9.4751
-39.2601	267.783	9.49463
-39.25943	275.385	9.51416
-39.25721	276.845	9.53369
-39.2554	272.195	9.55322
-39.2533	270.743	9.57275
-39.2523	281.18	9.59229
-39.2505	275.156	9.61182
-39.2489	278.233	9.63135
-39.2474	281.9198	9.65088
-39.2447	278.446	9.67041
-39.2452	276.288	9.68994
-39.2425	286.506	9.70947
-39.2401	281.262	9.729
-39.2394	281.072	9.74854
-39.2379	288.627	9.76807
-39.2359	286.6236	9.7876
-39.2345	279.233	9.80713
-39.23357	289.69	9.82666
-39.2303	291.22	9.84619
-39.2302	287.1918	9.86572
-39.2276	291.783	9.88525
-39.2264	292.543	9.90479
-39.22374	287.375	9.92432
-39.22226	292.767	9.94385
-39.2216	299.733	9.96338
-39.2201	292.33	9.98291
-39.218	293.273	10.0024
-39.2164	297.857	10.022
-39.214	296.641	10.0415
-39.2143	294.435	10.061
-39.2115	302.096	10.0806
-39.2106	300.253	10.1001
-39.2084	300.886	10.1196
-39.208	299.664	10.13916
-39.20528	304.79	10.1587
-39.2036	300.086	10.1782
-39.2019	305.842	10.1978
-39.2005	309.958	10.2173
-39.1985	303.91	10.2368
-39.1961	301.733	10.2563
-39.1952	312.116	10.2759
-39.1926	308.0553	10.29541
-39.1915	309.046	10.3149
-39.1898	314.438	10.3345
-39.1887	311.115	10.354
-39.18708	306.111	10.3735
-39.1846	317.756	10.3931
-39.184	315.016	10.4126
-39.1822	311	10.4321
-39.1792	318.052	10.45166
-39.1795	320.244	10.4712
-39.1784	310.8219	10.4907
-39.17564	318.4	10.5103
-39.1741	322.472	10.5298
-39.1719	317.869	10.5493
-39.1714	320.093	10.5688
-39.1687	321.647	10.5884
-39.1674	317.767	10.60791
-39.167	321.137	10.6274
-39.1638	330.239	10.647
-39.16188	324.7916	10.6665
-39.1607	323.44	10.686
-39.1589	326.924	10.7056
-39.1574	331.241	10.7251
-39.1563	324.639	10.7446
-39.1544	333.441	10.76416
-39.1527	334.3848	10.7837
-39.1517	330.083	10.8032
-39.1491	330.294	10.8228
-39.148	339.869	10.8423
-39.1454	330.447	10.8618
-39.1441	335.191	10.8813
-39.1429	341.475	10.9009
-39.1425	336.14	10.92041
-39.1408	332.475	10.9399
-39.1388	344.3588	10.9595
-39.1369	337.366	10.979
-39.136	339.853	10.9985
-39.1332	344.572	11.0181
-39.1318	344.043	11.0376
-39.13	335.836	11.0571
-39.1282	346.837	11.07666
-39.126	347.91	11.0962
-39.1252	341.41	11.1157
-39.1236	347.922	11.1353
-39.1219	348.834	11.1548
-39.1203	344.51	11.1743
-39.1189	347.656	11.1938
-39.1164	353.592	11.2134
-39.1155	348.1398	11.23291
-39.114	350.134	11.2524
-39.1134	353.526	11.272
-39.1108	353.289	11.2915
-39.1096	351.1716	11.311
-39.1072	358.6828	11.3306
-39.1049	356.646	11.3501
-39.1051	353.045	11.3696
-39.1019	354.375	11.38916
-39.1007	360.512	11.4087
-39.0994	356.315	11.4282
-39.0977	362.133	11.4478
-39.0956	363.232	11.4673
-39.0937	359.704	11.4868
-39.0921	358.464	11.5063
-39.0907	369.18	11.5259
-39.0888	363.049	11.54541
-39.087	363.815	11.5649
-39.0855	369.679	11.5845
-39.0848	367.796	11.604
-39.0832	361.022	11.6235
-39.0822	373.022	11.6431
-39.08	369.987	11.6626
-39.0788	368.332	11.6821
-39.076	374.666	11.70166
-39.075	374.611	11.7212
-39.07312	364.666	11.7407
-39.0718	375.629	11.7603
-39.0701	379.401	11.7798
-39.0681	371.612	11.7993
-39.0657	373.217	11.8188
-39.0649	379.468	11.8384
-39.0635	376.609	11.85791
-39.06073	376.6449	11.8774
-39.0605	383.618	11.897
-39.0584	378.4523	11.9165
-39.056	379.02	11.936
-39.0546	383.189	11.9556
-39.0529	384.278	11.9751
-39.052	379.311	11.9946
-39.0498	386.623	12.01416
-39.04763	390.318	12.0337
-39.0463	384.194	12.0532
-39.0457	384.412	12.0728
-39.0436	391.341	12.0923
-39.0432	385.107	12.1118
-39.0405	389.246	12.1313
-39.039	394.761	12.1509
-39.0378	389.752	12.17041
-39.0359	383.8988	12.1899
-39.0334	398.799	12.2095
-39.0333	392.345	12.229
-39.0291	391.515	12.2485
-39.0282	397.218	12.2681
-39.0285	396.925	12.2876
-39.0251	390.067	12.3071
-39.0233	399.301	12.32666
-39.0215	400.486	12.3462
-39.0203	394.432	12.3657
-39.0194	401.196	12.3853
-39.0178	402.2269	12.4048
-39.017	395.835	12.4243
-39.0151	402.115	12.4438
-39.0131	407.486	12.4634
-39.0115	403.0723	12.48291
-39.0103	403.5484	12.5024
-39.0079	404.755	12.522
-39.006	405.608	12.5415
-39.0048	402.379	12.561
-39.0027	412.287	12.5806
-39.0019	409.899	12.6001
-39.0001	404.6	12.6196
-38.9982	408.412	12.63916
-38.9963	414.908	12.6587
-38.9945	406.99	12.6782
-38.9942	412.838	12.6978
-38.9915	417.808	12.7173
-38.9894	411.768	12.7368
-38.98835	410.698	12.7563
-38.987	419.011	12.7759
-38.9847	413.576	12.79541
-38.9829	416.897	12.8149
-38.9826	422.568	12.8345
-38.9803	417.771	12.854
-38.979	410.249	12.8735
-38.9771	424.443	12.8931
-38.9756	422.371	12.9126
-38.9735	419.392	12.9321
-38.9725	423.784	12.95166
-38.9712	424.712	12.9712
-38.9687	417.2403	12.9907
-38.9679	424.595	13.0103
-38.96529	430.429	13.0298
-38.964	422.455	13.0493
-38.9635	426.25	13.0688
-38.9595	429.7298	13.0884
-38.9598	425.958	13.10791
-38.9578	425.675	13.1274
-38.9554	433.271	13.147
-38.9542	429.549	13.1665
-38.95179	428.708	13.186
-38.9514	431.783	13.2056
-38.9497	433.175	13.2251
-38.9468	427.804	13.2446
-38.9462	437.245	13.26416
-38.944	438.487	13.2837
-38.943	431.955	13.3032
-38.942	433.3743	13.3228
-38.9392	441.907	13.3423
-38.9382	434.13	13.3618
-38.93681	438.369	13.3813
-38.9357	444.207	13.4009
-38.9333	438.7	13.42041
-38.931	434.767	13.4399
-38.92878	445.702	13.4595
-38.92823	439.635	13.479
-38.9258	439.413	13.4985
-38.9254	447.574	13.5181
-38.92363	445.179	13.5376
-38.9199	437.649	13.5571
-38.9205	447.436	13.57666
-38.919	449.6835	13.5962
-38.9167	443.183	13.6157
-38.9156	448.29	13.6353
-38.91362	448.45	13.6548
-38.9109	443.378	13.6743
-38.9107	447.99	13.6938
-38.9089	454.178	13.7134
-38.9063	448.313	13.73291
-38.9047	450.633	13.7524
-38.9033	454.366	13.772
-38.902	453.741	13.7915
-38.90073	451.2236	13.811
-38.8994	456.8588	13.8306
-38.8975	455.66	13.8501
-38.8958	455.325	13.8696
-38.8945	456.032	13.88916
-38.8925	460.138	13.9087
-38.8912	454.254	13.9282
-38.8892	461.036	13.9478
-38.88921	463.632	13.9673
-38.8852	456.731	13.9868
-38.8848	454.593	14.0063
-38.8829	466.004	14.0259
-38.8806	458.384	14.04541
-38.8792	460.976	14.0649
-38.878	465.931	14.0845
-38.8767	463.829	14.104
-38.8755	459.403	14.1235
-38.8729	470.387	14.1431
-38.8709	466.348	14.1626
-38.8695	461.948	14.1821
-38.8685	469.3714	14.20166
-38.8661	468.414	14.2212
-38.8654	461.559	14.2407
-38.863	468.928	14.2603
-38.8613	473.781	14.2798
-38.8593	468.893	14.2993
-38.8582	471.1402	14.3188
-38.8569	472.669	14.3384
-38.8548	469.062	14.35791
-38.8537	472.122	14.3774
-38.8509	479.25	14.397
-38.85017	475.008	14.4165
-38.84901	471.924	14.436
-38.8469	475.592	14.4556
-38.845	477.477	14.4751
-38.843	472.0665	14.4946
-38.8413	479.506	14.51416
-38.8406	480.571	14.5337
-38.8382	478.3457	14.5532
-38.8363	475.5502	14.5728
-38.8362	485.068	14.5923
-38.835	476.899	14.6118
-38.831	480.627	14.6313
-38.8304	485.491	14.6509
-38.829	481.649	14.67041
-38.8278	476.322	14.6899
-38.8247	488.353	14.7095
-38.8236	485.515	14.729
-38.8216	483.418	14.7485
-38.8214	489.126	14.7681
-38.8196	487.298	14.7876
-38.8171	480.079	14.8071
-38.8168	490.307	14.82666
-38.814	490.542	14.8462
-38.8135	485.588	14.8657
-38.8105	489.906	14.8853
-38.8101	491.769	14.9048
-38.8075	484.678	14.9243
-38.8053	490.561	14.9438
-38.8047	495.376	14.9634
-38.8021	490.572	14.98291
-38.8016	491.643	15.0024
-38.7999	494.421	15.022
-38.79792	492.296	15.0415
-38.7974	491.9332	15.061
-38.7938	500.368	15.0806
-38.794	496.601	15.1001
-38.79084	495.828	15.1196
-38.7904	496.133	15.13916
-38.7887	501.436	15.1587
-38.7859	495.545	15.1782
-38.7841	499.678	15.1978
-38.7832	502.5217	15.2173
-38.7821	498.303	15.2368
-38.7799	495.488	15.2563
-38.7786	506.826	15.2759
-38.7762	499.667	15.29541
-38.7756	499.909	15.3149
-38.7747	508.877	15.3345
-38.7717	504.288	15.354
-38.7703	497.528	15.3735
-38.7687	507.257	15.3931
-38.7672	505.201	15.4126
-38.7651	503.7135	15.4321
-38.7636	509.001	15.45166
-38.7617	508.877	15.4712
-38.7604	500.188	15.4907
-38.7581	508.3381	15.5103
-38.7582	513.064	15.5298
-38.7559	506.195	15.5493
-38.75449	509.136	15.5688
-38.7526	511.699	15.5884
-38.7504	506.7439	15.60791
-38.749	507.376	15.6274
-38.7471	515.103	15.647
-38.746	510.6507	15.6665
-38.7444	510.605	15.686
-38.7436	512.419	15.7056
-38.7405	514.696	15.7251
-38.739	508.588	15.7446
-38.7371	516.454	15.76416
-38.7371	517.918	15.7837
-38.7346	511.272	15.8032
-38.7319	510.879	15.8228
-38.7306	520.927	15.8423
-38.7298	513.02	15.8618
-38.7268	517.032	15.8813
-38.7265	521.415	15.9009
-38.7253	515.048	15.92041
-38.7231	511.55	15.9399
-38.7208	523.678	15.9595
-38.7201	518.689	15.979
-38.7193	516.555	15.9985
-38.7157	525.081	16.0181
-38.716	522.542	16.0376
-38.7128	513.312	16.0571
-38.7124	525.189	16.07666
-38.7104	524.921	16.0962
-38.709	519.65	16.1157
-38.7062	523.573	16.1353
-38.7059	525.6626	16.1548
-38.704	518.898	16.1743
-38.7011	524.48	16.1938
-38.7003	530.89	16.2134
-38.6989	524.2002	16.23291
-38.6986	522.607	16.2524
-38.6953	526.585	16.272
-38.6923	526.313	16.2915
-38.692	523.742	16.311
-38.6904	531.439	16.3306
-38.68964	528.707	16.3501
-38.68718	525.273	16.3696
-38.6854	527.614	16.38916
-38.6845	533.055	16.4087
-38.6814	524.751	16.4282
-38.6825	528.479	16.4478
-38.6784	533.506	16.4673
-38.6783	528.862	16.4868
-38.6755	526.359	16.5063
-38.6748	535.491	16.5259
-38.672	529.549	16.54541
-38.6704	529.854	16.5649
-38.6684	536.433	16.5845
-38.6682	531.6734	16.604
-38.6664	524.7832	16.6235
-38.6654	536.8573	16.6431
-38.6629	534.324	16.6626
-38.661	529.255	16.6821
-38.6598	535.424	16.70166
-38.6583	536.033	16.7212
-38.6562	529.072	16.7407
-38.6551	534.951	16.7603
-38.6536	537.643	16.7798
-38.6503	533.141	16.7993
-38.64959	535.328	16.8188
-38.6492	538.518	16.8384
-38.647	533.147	16.85791
-38.6447	534.037	16.8774
-38.6435	541.548	16.897
-38.6413	536.0083	16.9165
-38.6404	534.1355	16.936
-38.6377	536.974	16.9556
-38.6366	539.425	16.9751
-38.6356	534.023	16.9946
-38.6342	541.801	17.01416
-38.6322	539.927	17.0337
-38.6299	536.357	17.0532
-38.6287	536.093	17.0728
-38.6276	545.878	17.0923
-38.6253	535.44	17.1118
-38.6237	539.746	17.1313
-38.6216	543.703	17.1509
-38.6211	540.526	17.17041
-38.6188	535.0448	17.1899
-38.618	544.669	17.2095
-38.617	538.423	17.229
-38.6138	538.5354	17.2485
-38.6132	544.768	17.2681
-38.6107	540.859	17.2876
-38.60976	534.588	17.3071
-38.6077	543.874	17.32666
-38.6065	545.6803	17.3462
-38.6046	539.622	17.3657
-38.6032	541.988	17.3853
-38.6008	544.308	17.4048
-38.5996	538.509	17.4243
-38.598	542.577	17.4438
-38.5957	547.698	17.4634
-38.5947	539.865	17.48291
-38.59227	542.027	17.5024
-38.5914	545.008	17.522
-38.5889	542.138	17.5415
-38.5883	539.045	17.561
-38.5872	547.51	17.5806
-38.58532	546.401	17.6001
-38.5828	542.214	17.6196
-38.5804	542.954	17.63916
-38.5804	546.296	17.6587
-38.5785	541.407	17.6782
-38.5775	545.785	17.6978
-38.575	549.61	17.7173
-38.5738	543.606	17.7368
-38.5724	541.529	17.7563
-38.5693	550.386	17.7759
-38.5691	543.966	17.79541
-38.5673	542.512	17.8149
-38.5657	548.883	17.8345
-38.564	545.024	17.854
-38.5626	539.439	17.8735
-38.56	549.537	17.8931
-38.559	547.442	17.9126
-38.5564	541.4046	17.9321
-38.55513	547.652	17.95166
-38.5539	547.442	17.9712
-38.5514	538.938	17.9907
-38.5504	546.352	18.0103
-38.5487	550.652	18.0298
-38.5469	543.995	18.0493
-38.5466	545.8	18.0688
-38.5437	548.76	18.0884
-38.543	544.626	18.10791
-38.5411	544.549	18.1274
-38.5401	550.557	18.147
-38.53693	546.044	18.1665
-38.537	544.539	18.186
-38.5341	547.627	18.2056
-38.5335	550.072	18.2251
-38.5305	541.063	18.2446
-38.5302	547.791	18.26416
-38.52734	549.218	18.2837
-38.5263	545.1	18.3032
-38.5236	544.777	18.3228
-38.5239	551.586	18.3423
-38.5213	542.963	18.3618
-38.5191	547.097	18.3813
-38.5178	552.211	18.4009
-38.5158	545.907	18.42041
-38.5147	540.28	18.4399
-38.5141	552.488	18.4595
-38.5114	545.9726	18.479
-38.5101	544.438	18.4985
-38.5082	549.31	18.5181
-38.50742	547.073	18.5376
-38.5058	541.06	18.5571
-38.5032	549.839	18.57666
-38.5017	548.175	18.5962
-38.5005	542.297	18.6157
-38.49892	547.409	18.6353
-38.497	547.913	18.6548
-38.4959	542.945	18.6743
-38.4933	544.666	18.6938
-38.49295	550.775	18.7134
-38.4901	545.815	18.73291
-38.4886	545.728	18.7524
-38.4859	546.007	18.772
-38.485	547.243	18.7915
-38.4842	541.243	18.811
-38.4811	550.8764	18.8306
-38.4807	548.128	18.8501
-38.478	543.956	18.8696
-38.478	545.016	18.88916
-38.475	552.035	18.9087
-38.4741	542.74	18.9282
-38.4723	547.383	18.9478
-38.4709	550.075	18.9673
-38.4691	544.664	18.9868
-38.4671	542.089	19.0063
-38.4655	549.3819	19.0259
-38.4638	544.065	19.04541
-38.4637	543.407	19.0649
-38.4606	550.362	19.0845
-38.46	544.506	19.104
-38.458	538.895	19.1235
-38.4558	548.445	19.1431
-38.4546	547.07	19.1626
-38.4529	541.349	19.1821
-38.4515	546.295	19.20166
-38.45	546.132	19.2212
-38.4479	539.168	19.2407
-38.4455	545.799	19.2603
-38.44561	547.205	19.2798
-38.4436	540.189	19.2993
-38.44109	544.054	19.3188
-38.4402	544.957	19.3384
-38.4382	541.626	19.35791
-38.4367	539.275	19.3774
-38.4339	547.48	19.397
-38.4332	543.62	19.4165
-38.4327	542.801	19.436
-38.432	543.446	19.4556
-38.4286	544.82	19.4751
-38.4267	538.364	19.4946
-38.4257	546.827	19.51416
-38.4233	546.461	19.5337
-38.4225	540.623	19.5532
-38.4207	540.39	19.5728
-38.4204	547.434	19.5923
-38.4168	538.64	19.6118
-38.414	542.563	19.6313
-38.4136	547.307	19.6509
-38.41185	540.996	19.67041
-38.4103	538.976	19.6899
-38.4086	547.914	19.7095
-38.4072	542.695	19.729
-38.4063	540.115	19.7485
-38.4044	545.416	19.7681
-38.4018	543.968	19.7876
-38.4013	536.045	19.8071
-38.3979	543.906	19.82666
-38.3978	546.721	19.8462
-38.3961	539.333	19.8657
-38.3944	543.525	19.8853
-38.3929	542.131	19.9048
-38.38979	536.108	19.9243
-38.3899	541.803	19.9438
-38.38913	546.241	19.9634
-38.3859	540.154	19.98291
-38.3851	540.29	20.0024
-38.3836	543.141	20.0122

Data Header:			0.254_solid_uprint_typeiv_4545_r0			Time:	40.0181	s	4/13/2019 7:01:53 PM
Data Acquisition:	Timed
Station Name:	ft40.cfg
Test File Name:	Type IV_Monotonic.tst
Displacement	Force	Running Time
mm	N	s
-38.3831	543.603	20.022
-38.38203	542.619	20.0415
-38.3797	537.59	20.061
-38.3782	545.244	20.0806
-38.3768	543.164	20.1001
-38.3745	538.8548	20.1196
-38.37289	539.978	20.13916
-38.3722	544.078	20.1587
-38.3696	536.332	20.1782
-38.3691	543.272	20.1978
-38.3675	546.519	20.2173
-38.3651	538.895	20.2368
-38.3629	534.831	20.2563
-38.3617	547.334	20.2759
-38.3617	540.052	20.29541
-38.3574	539.371	20.3149
-38.3576	543.442	20.3345
-38.3546	540.441	20.354
-38.352	536.791	20.3735
-38.3524	544.564	20.3931
-38.3501	542.595	20.4126
-38.35	536.314	20.4321
-38.34713	543.9715	20.45166
-38.346	542.355	20.4712
-38.3431	535.923	20.4907
-38.3416	540.0376	20.5103
-38.3405	544.341	20.5298
-38.339	536.952	20.5493
-38.3374	538.549	20.5688
-38.3353	540.07	20.5884
-38.3342	537.533	20.60791
-38.3334	537.389	20.6274
-38.3314	545.465	20.647
-38.3296	540.162	20.6665
-38.3274	535.815	20.686
-38.32663	539.105	20.7056
-38.3248	543.031	20.7251
-38.3231	535.183	20.7446
-38.3207	543.6908	20.76416
-38.319	542.68	20.7837
-38.3173	537.401	20.8032
-38.3168	535.628	20.8228
-38.315	545.506	20.8423
-38.3134	536.602	20.8618
-38.3116	538.704	20.8813
-38.3099	542.808	20.9009
-38.3081	536.283	20.92041
-38.30706	533.765	20.9399
-38.3047	543.319	20.9595
-38.3026	538.671	20.979
-38.302	536.439	20.9985
-38.2997	541.5835	21.0181
-38.2979	537.539	21.0376
-38.2967	532.6925	21.0571
-38.2956	539.033	21.07666
-38.2938	542.142	21.0962
-38.2921	534.1	21.1157
-38.29089	539.55	21.1353
-38.289	540.56	21.1548
-38.2868	535.3219	21.1743
-38.2854	536.842	21.1938
-38.2847	542.824	21.2134
-38.2821	537.519	21.23291
-38.2796	536.467	21.2524
-38.2778	537.296	21.272
-38.2769	538.605	21.2915
-38.2758	534.636	21.311
-38.2744	543.036	21.3306
-38.2732	539.985	21.3501
-38.271	536.129	21.3696
-38.2699	535.976	21.38916
-38.2676	542.085	21.4087
-38.2664	534.108	21.4282
-38.2637	538.82	21.4478
-38.2632	541.494	21.4673
-38.2605	535.602	21.4868
-38.2591	533.538	21.5063
-38.2577	543.007	21.5259
-38.2563	535.563	21.54541
-38.2543	535.933	21.5649
-38.2531	542.631	21.5845
-38.2518	537.225	21.604
-38.2491	531.589	21.6235
-38.2481	540.442	21.6431
-38.2468	538.22	21.6626
-38.2447	533.627	21.6821
-38.24305	540.464	21.70166
-38.2419	536.8764	21.7212
-38.2401	530.688	21.7407
-38.2379	536.71	21.7603
-38.2359	541.732	21.7798
-38.2347	535.1004	21.7993
-38.23418	536.704	21.8188
-38.2319	537.462	21.8384
-38.2298	536.05	21.85791
-38.22847	534.065	21.8774
-38.2273	541.464	21.897
-38.22514	537.363	21.9165
-38.2231	533.282	21.936
-38.22253	535.175	21.9556
-38.2207	538.816	21.9751
-38.2189	531.878	21.9946
-38.2163	540.2951	22.01416
-38.2152	539.83	22.0337
-38.21291	532.722	22.0532
-38.2113	532.526	22.0728
-38.2106	541.561	22.0923
-38.2085	534.459	22.1118
-38.2057	534.569	22.1313
-38.2054	539.232	22.1509
-38.20356	533.1192	22.17041
-38.203	531.936	22.1899
-38.2007	538.604	22.2095
-38.1992	535.707	22.229
-38.1969	529.953	22.2485
-38.1961	538.577	22.2681
-38.1951	535.64	22.2876
-38.1925	530.856	22.3071
-38.1917	535.991	22.32666
-38.1898	538.617	22.3462
-38.1888	531.776	22.3657
-38.18644	537.162	22.3853
-38.1852	535.124	22.4048
-38.1831	531.944	22.4243
-38.1817	534.499	22.4438
-38.1791	540.516	22.4634
-38.1767	533.288	22.48291
-38.1764	534.013	22.5024
-38.1753	534.345	22.522
-38.173	536.026	22.5415
-38.1716	530.366	22.561
-38.1697	538.453	22.5806
-38.1681	534.762	22.6001
-38.167	531.512	22.6196
-38.1649	533.518	22.63916
-38.16238	538.412	22.6587
-38.16177	529.962	22.6782
-38.15966	536.302	22.6978
-38.1588	538.712	22.7173
-38.1572	531.696	22.7368
-38.1555	528.9826	22.7563
-38.15321	539.537	22.7759
-38.1514	533.418	22.79541
-38.1506	532.2619	22.8149
-38.1486	538.75	22.8345
-38.1469	534.062	22.854
-38.1454	529.335	22.8735
-38.1446	538.6062	22.8931
-38.1424	536.115	22.9126
-38.1405	529.485	22.9321
-38.1391	535.578	22.95166
-38.1374	534.314	22.9712
-38.1363	530.199	22.9907
-38.1338	532.832	23.0103
-38.1326	538.662	23.0298
-38.13052	531.429	23.0493
-38.1289	534.17	23.0688
-38.12772	535.455	23.0884
-38.1243	532.547	23.10791
-38.12381	529.872	23.1274
-38.1215	539.8775	23.147
-38.1205	535.188	23.1665
-38.119	529.59	23.186
-38.117	532.86	23.2056
-38.11581	536.834	23.2251
-38.1133	529.711	23.2446
-38.11211	536.31	23.26416
-38.1106	535.04	23.2837
-38.1097	528.813	23.3032
-38.1074	531.347	23.3228
-38.1063	539.255	23.3423
-38.1049	530.6178	23.3618
-38.10215	531.595	23.3813
-38.1014	538.092	23.4009
-38.1001	531.524	23.42041
-38.0992	528.2113	23.4399
-38.0958	535.978	23.4595
-38.0953	533.389	23.479
-38.09309	529.316	23.4985
-38.0924	537.479	23.5181
-38.0902	531.122	23.5376
-38.0883	527.708	23.5571
-38.0866	534.725	23.57666
-38.0843	536.709	23.5962
-38.0835	528.561	23.6157
-38.0821	532.875	23.6353
-38.0817	532.555	23.6548
-38.0783	530.638	23.6743
-38.0763	529.472	23.6938
-38.075	535.363	23.7134
-38.07407	532.825	23.73291
-38.072	530.314	23.7524
-38.07032	533.019	23.772
-38.0682	533.961	23.7915
-38.0676	528.343	23.811
-38.0652	536.611	23.8306
-38.0641	536.802	23.8501
-38.0615	529.373	23.8696
-38.0607	530.115	23.88916
-38.0586	537.327	23.9087
-38.0578	528.969	23.9282
-38.0565	533.349	23.9478
-38.0547	535.651	23.9673
-38.0522	528.157	23.9868
-38.0511	527.996	24.0063
-38.0489	538.055	24.0259
-38.048	529.689	24.04541
-38.046	528.55	24.0649
-38.044	535.87	24.0845
-38.04351	530.264	24.104
-38.0418	527.532	24.1235
-38.04	534.048	24.1431
-38.0384	533.025	24.1626
-38.0361	529.787	24.1821
-38.0346	534.886	24.20166
-38.0321	530.3916	24.2212
-38.0324	527.138	24.2407
-38.0296	531.702	24.2603
-38.0273	537.777	24.2798
-38.0271	528.74	24.2993
-38.0248	530.069	24.3188
-38.024	531.497	24.3384
-38.0222	530.794	24.35791
-38.0197	529.184	24.3774
-38.0179	535.2204	24.397
-38.0163	531.751	24.4165
-38.01503	529.197	24.436
-38.014	531.014	24.4556
-38.0123	533.417	24.4751
-38.011	524.907	24.4946
-38.00872	533.271	24.51416
-38.0071	534.761	24.5337
-38.0048	527.336	24.5532
-38.0038	528.514	24.5728
-38.002	532.896	24.5923
-38.0003	528.398	24.6118
-37.9986	529.709	24.6313
-37.997	535.618	24.6509
-37.9958	528.379	24.67041
-37.99493	526.652	24.6899
-37.9927	534.699	24.7095
-37.992	532.25	24.729
-37.9895	525.59	24.7485
-37.9877	533.915	24.7681
-37.98484	529.55	24.7876
-37.9841	525.879	24.8071
-37.982	529.62	24.82666
-37.9803	533.117	24.8462
-37.978	527.151	24.8657
-37.9774	532.513	24.8853
-37.9762	530.805	24.9048
-37.9738	528.428	24.9243
-37.9727	527.895	24.9438
-37.9715	536.664	24.9634
-37.9694	528.339	24.98291
-37.9683	526.565	25.0024
-37.9655	530.109	25.022
-37.9668	531.334	25.0415
-37.9625	526.244	25.061
-37.9615	532.877	25.0806
-37.9605	528.503	25.1001
-37.9586	526.206	25.1196
-37.9566	530.1272	25.13916
-37.9547	534.993	25.1587
-37.9532	525.8	25.1782
-37.95153	528.987	25.1978
-37.9495	533.185	25.2173
-37.9487	526.855	25.2368
-37.9466	525.411	25.2563
-37.9463	532.97	25.2759
-37.9438	527.591	25.29541
-37.94104	527.11	25.3149
-37.9404	534.889	25.3345
-37.9377	524.7713	25.354
-37.9371	526.622	25.3735
-37.9345	533.388	25.3931
-37.93327	532.128	25.4126
-37.9324	525.649	25.4321
-37.9292	532.205	25.45166
-37.9285	527.37	25.4712
-37.9275	526.54	25.4907
-37.9256	529.047	25.5103
-37.924	533.892	25.5298
-37.9217	527.9787	25.5493
-37.92	529.743	25.5688
-37.9186	529.438	25.5884
-37.9176	529.928	25.60791
-37.9158	525.686	25.6274
-37.9146	533.742	25.647
-37.9132	530.067	25.6665
-37.9116	526.73	25.686
-37.9088	528.781	25.7056
-37.90773	531.765	25.7251
-37.9058	526.08	25.7446
-37.9047	530.924	25.76416
-37.9027	532.537	25.7837
-37.9014	524.235	25.8032
-37.8999	529.811	25.8228
-37.898	534.115	25.8423
-37.8965	525.907	25.8618
-37.8946	526.942	25.8813
-37.8933	532.823	25.9009
-37.8923	525.4812	25.92041
-37.8897	525.734	25.9399
-37.8882	532.045	25.9595
-37.8859	530.019	25.979
-37.8855	525.997	25.9985
-37.882	532.058	26.0181
-37.882	525.2807	26.0376
-37.8807	524.82	26.0571
-37.879	530.62	26.07666
-37.8774	533.822	26.0962
-37.8743	526.258	26.1157
-37.874	529.9964	26.1353
-37.8723	528.679	26.1548
-37.8706	527.009	26.1743
-37.8691	529.163	26.1938
-37.8683	533.325	26.2134
-37.8654	527.727	26.23291
-37.8633	526.659	26.2524
-37.8619	530.267	26.272
-37.8603	529.82	26.2915
-37.8593	524.19	26.311
-37.8572	531.259	26.3306
-37.8561	529.914	26.3501
-37.8533	523.8111	26.3696
-37.8522	528.022	26.38916
-37.8517	532.495	26.4087
-37.8484	526.115	26.4282
-37.8472	528.477	26.4478
-37.8454	532.042	26.4673
-37.8433	521.614	26.4868
-37.8425	525.2356	26.5063
-37.84124	531.606	26.5259
-37.8394	528.867	26.54541
-37.8374	525.174	26.5649
-37.8369	531.978	26.5845
-37.8343	524.7182	26.604
-37.8325	525.107	26.6235
-37.83157	527.717	26.6431
-37.83009	529.813	26.6626
-37.8278	525.45	26.6821
-37.82621	531.827	26.70166
-37.8247	527.951	26.7212
-37.8225	524.922	26.7407
-37.8204	526.639	26.7603
-37.81918	533.252	26.7798
-37.8178	526.478	26.7993
-37.8158	526.13	26.8188
-37.81604	527.88	26.8384
-37.8136	527.28	26.85791
-37.81155	526.132	26.8774
-37.8107	530.698	26.897
-37.8087	525.545	26.9165
-37.8072	524.4375	26.936
-37.8054	528.148	26.9556
-37.8027	528.654	26.9751
-37.8023	523.902	26.9946
-37.7992	528.441	27.01416
-37.7992	532.127	27.0337
-37.7981	522.929	27.0532
-37.796	525.354	27.0728
-37.7941	529.1792	27.0923
-37.793	525.472	27.1118
-37.7914	526.005	27.1313
-37.7891	533.369	27.1509
-37.788	522.881	27.17041
-37.7858	525.252	27.1899
-37.7843	530.493	27.2095
-37.7832	528.264	27.229
-37.7812	522.745	27.2485
-37.7799	531.739	27.2681
-37.7775	526.815	27.2876
-37.7766	526.407	27.3071
-37.77438	528.2627	27.32666
-37.7721	529.945	27.3462
-37.77076	524.556	27.3657
-37.7689	529.366	27.3853
-37.7669	527.338	27.4048
-37.7656	524.584	27.4243
-37.7652	525.211	27.4438
-37.764	532.371	27.4634
-37.7622	526.6106	27.48291
-37.76083	524.656	27.5024
-37.7576	526.751	27.522
-37.7559	527.711	27.5415
-37.7569	522.671	27.561
-37.7528	530.307	27.5806
-37.7511	528.626	27.6001
-37.75069	520.7785	27.6196
-37.7479	527.802	27.63916
-37.7465	529.318	27.6587
-37.745	523.755	27.6782
-37.74271	524.892	27.6978
-37.742	530.577	27.7173
-37.7397	524.003	27.7368
-37.7389	525.788	27.7563
-37.7368	529.836	27.7759
-37.7358	526.251	27.79541
-37.7347	522.801	27.8149
-37.7325	533.093	27.8345
-37.7297	521.613	27.854
-37.72958	522.134	27.8735
-37.7265	528.838	27.8931
-37.7245	529.759	27.9126
-37.7232	523.255	27.9321
-37.7224	527.29	27.95166
-37.72102	525.066	27.9712
-37.7182	524.1347	27.9907
-37.717	527.163	28.0103
-37.7151	530.377	28.0298
-37.7143	523.226	28.0493
-37.71162	526.075	28.0688
-37.7102	528.686	28.0884
-37.7105	526.194	28.10791
-37.7071	523.719	28.1274
-37.7062	531.9433	28.147
-37.7039	527.264	28.1665
-37.7038	522.167	28.186
-37.7014	525.424	28.2056
-37.6988	528.605	28.2251
-37.698	522.792	28.2446
-37.6973	526.991	28.26416
-37.6948	530.328	28.2837
-37.6931	518.825	28.3032
-37.6905	524.937	28.3228
-37.6898	530.258	28.3423
-37.6886	524.075	28.3618
-37.6859	523.324	28.3813
-37.6841	531.649	28.4009
-37.6835	521.008	28.42041
-37.6794	523.417	28.4399
-37.67979	527.653	28.4595
-37.6795	525.038	28.479
-37.67704	523.158	28.4985
-37.6753	528.89	28.5181
-37.6738	522.9	28.5376
-37.6732	521.883	28.5571
-37.6692	526.467	28.57666
-37.6687	529.199	28.5962
-37.6673	523.733	28.6157
-37.6656	525.969	28.6353
-37.6633	526.073	28.6548
-37.6616	524.285	28.6743
-37.6613	524.153	28.6938
-37.6585	529.602	28.7134
-37.657	524.954	28.73291
-37.6548	521.763	28.7524
-37.6535	526.237	28.772
-37.6521	525.551	28.7915
-37.6517	521.245	28.811
-37.6484	527.489	28.8306
-37.6466	527.472	28.8501
-37.6457	520.255	28.8696
-37.6442	524.794	28.88916
-37.6416	527.367	28.9087
-37.6411	522.489	28.9282
-37.64	524.0083	28.9478
-37.6378	529.69	28.9673
-37.637	520.031	28.9868
-37.6346	522.8009	29.0063
-37.6332	527.695	29.0259
-37.6323	524.412	29.04541
-37.6296	523.131	29.0649
-37.6281	528.924	29.0845
-37.626	521.237	29.104
-37.6248	522.062	29.1235
-37.62402	525.52	29.1431
-37.6205	527.279	29.1626
-37.619	522.205	29.1821
-37.6182	526.846	29.20166
-37.6167	524.894	29.2212
-37.6135	520.633	29.2407
-37.6136	523.427	29.2603
-37.6107	528.047	29.2798
-37.6102	522.934	29.2993
-37.6089	523.339	29.3188
-37.6061	525.42	29.3384
-37.6053	523.862	29.35791
-37.6047	524.4455	29.3774
-37.6021	528.288	29.397
-37.6007	524.816	29.4165
-37.5977	518.356	29.436
-37.5971	526.356	29.4556
-37.5955	526.161	29.4751
-37.5941	519.618	29.4946
-37.5921	525.688	29.51416
-37.5889	529.06	29.5337
-37.5899	518.675	29.5532
-37.5874	523.949	29.5728
-37.5861	526.11	29.5923
-37.58382	522.414	29.6118
-37.5827	523.833	29.6313
-37.581	529.89	29.6509
-37.57906	519.824	29.67041
-37.5782	522.184	29.6899
-37.5763	528.325	29.7095
-37.5746	525.2594	29.729
-37.5732	521.308	29.7485
-37.5702	528.67	29.7681
-37.5695	522.718	29.7876
-37.56852	522.086	29.8071
-37.567	524.367	29.82666
-37.5635	527.152	29.8462
-37.5639	520.801	29.8657
-37.5616	523.687	29.8853
-37.5591	524.108	29.9048
-37.55759	522.373	29.9243
-37.5559	522.406	29.9438
-37.5556	526.445	29.9634
-37.5523	522.774	29.98291
-37.5516	520.087	30.0024
-37.5503	524.4021	30.022
-37.5477	522.457	30.0415
-37.5467	520.098	30.061
-37.5443	526.69	30.0806
-37.5426	526.367	30.1001
-37.54092	517.46	30.1196
-37.5402	523.96	30.13916
-37.5385	526.934	30.1587
-37.5367	523.539	30.1782
-37.535	524.65	30.1978
-37.534	527.726	30.2173
-37.5311	517.42	30.2368
-37.5297	523.823	30.2563
-37.5279	527.393	30.2759
-37.5264	522.503	30.29541
-37.5264	520.9541	30.3149
-37.52309	529.209	30.3345
-37.5216	520.8	30.354
-37.5206	522.836	30.3735
-37.5183	525.687	30.3931
-37.5167	527.3465	30.4126
-37.5158	521.942	30.4321
-37.5143	526.299	30.45166
-37.5117	523.766	30.4712
-37.5112	521.817	30.4907
-37.5083	522.294	30.5103
-37.5062	527.001	30.5298
-37.5061	521.6347	30.5493
-37.5035	520.77	30.5688
-37.5023	525.6	30.5884
-37.5006	522.2702	30.60791
-37.499	520.445	30.6274
-37.4976	526.636	30.647
-37.496	524.4068	30.6665
-37.4936	518.946	30.686
-37.4934	524.312	30.7056
-37.491	524.258	30.7251
-37.4883	520.989	30.7446
[...]
-36.7075	509.672	40.1196
-36.7068	519.192	40.13916
-36.7043	520.6264	40.1587
-36.703	512.485	40.1782
-36.7018	517.502	40.1978
-36.7006	519.806	40.2173
-36.6991	512.286	40.2368
-36.6968	514.878	40.2563
-36.6954	522.249	40.2759
-36.6934	516.394	40.29541
-36.6925	515.073	40.3149
-36.6907	516.5191	40.3345
-36.6884	516.894	40.354
-36.6866	514.1911	40.3735
-36.6865	520.8111	40.3931
-36.6845	518.501	40.4126
-36.6819	513.124	40.4321
-36.6808	514.114	40.45166
-36.6799	520.319	40.4712
-36.677	511.379	40.4907
-36.6753	517.609	40.5103
-36.6747	519.33	40.5298
-36.6719	514.596	40.5493
-36.6728	511.407	40.5688
-36.6698	521.708	40.5884
-36.668	513.049	40.60791
-36.6654	514.644	40.6274
-36.6634	518.973	40.647
-36.6628	515.767	40.6665
-36.6621	509.6048	40.686
-36.6589	519.71	40.7056
-36.6578	518.837	40.7251
-36.6555	512.813	40.7446
-36.6546	516.934	40.76416
-36.65284	515.567	40.7837
-36.651	510.25	40.8032
-36.64954	516.467	40.8228
-36.6489	519.165	40.8423
-36.6459	511.682	40.8618
-36.64431	516.183	40.8813
-36.6444	517.4256	40.9009
-36.6402	514.63	40.92041
-36.6404	513.151	40.9399
-36.6374	521.821	40.9595
-36.636	515.319	40.979
-36.6354	515.433	40.9985
-36.6319	513.373	41.0181
-36.6316	518.136	41.0376
-36.6296	512.217	41.0571
-36.6291	518.704	41.07666
-36.6265	517.908	41.0962
-36.6245	512.321	41.1157
-36.6231	511.2785	41.1353
-36.6219	521.019	41.1548
-36.6204	511.789	41.1743
-36.6189	515.066	41.1938
-36.618	519.427	41.2134
-36.6149	514.7431	41.23291
-36.61388	511.015	41.2524
-36.6118	521.072	41.272
-36.61137	515.648	41.2915
-36.6087	512.276	41.311
-36.6068	520.401	41.3306
-36.6055	516.3999	41.3501
-36.6049	509.936	41.3696
-36.6032	518.31	41.38916
-36.601	519.697	41.4087
-36.599	513.336	41.4282
-36.5971	517.721	41.4478
-36.5958	516.571	41.4673
-36.5953	511.516	41.4868
-36.5936	514.884	41.5063
-36.5913	519.55	41.5259
-36.5904	513.101	41.54541
-36.5885	516.1485	41.5649
-36.5857	516.006	41.5845
-36.5852	515.768	41.604
-36.5823	510.446	41.6235
-36.5832	519.492	41.6431
-36.5792	516.955	41.6626
-36.5788	512.428	41.6821
-36.5756	513.8775	41.70166
-36.5745	518.828	41.7212
-36.573	509.971	41.7407
-36.5722	516.415	41.7603
-36.5705	519.861	41.7798
-36.5676	512.786	41.7993
-36.5673	509.904	41.8188
-36.5637	519.82	41.8384
-36.5635	512.891	41.85791
-36.561	513.831	41.8774
-36.5609	518.6	41.897
-36.5592	514.534	41.9165
-36.5574	509.833	41.936
-36.5557	519.441	41.9556
-36.5539	516.056	41.9751
-36.5518	511.232	41.9946
-36.5502	519.066	42.01416
-36.5481	517.413	42.0337
-36.5472	511.182	42.0532
-36.5458	515.787	42.0728
-36.5434	520.467	42.0923
-36.5421	513.072	42.1118
-36.5407	516.837	42.1313
-36.5392	515.081	42.1509
-36.5381	512.84	42.17041
-36.5355	512.71	42.1899
-36.5345	519.583	42.2095
-36.532	513.483	42.229
-36.5311	511.333	42.2485
-36.5292	514.187	42.2681
-36.5277	517.234	42.2876
-36.5266	511.027	42.3071
-36.5248	516.666	42.32666
-36.5229	518.275	42.3462
-36.5207	511.952	42.3657
-36.51952	512.881	42.3853
-36.5186	520.437	42.4048
-36.5166	511.839	42.4243
-36.5158	514.442	42.4438
-36.5128	520.094	42.4634
-36.5117	512.822	42.48291
-36.5093	508.328	42.5024
-36.5082	518.115	42.522
-36.5068	513.8	42.5415
-36.5051	511.67	42.561
-36.5036	517.8045	42.5806
-36.5019	513.521	42.6001
-36.5007	508.883	42.6196
-36.4981	517.486	42.63916
-36.4958	516.969	42.6587
-36.4957	509.88	42.6782
-36.4934	515.976	42.6978
-36.4907	516.349	42.7173
-36.4905	512.551	42.7368
-36.4887	513.069	42.7563
-36.486	518.806	42.7759
-36.4854	513.802	42.79541
-36.4839	513.086	42.8149
-36.4809	514.347	42.8345
-36.4805	513.449	42.854
-36.4792	510.347	42.8735
-36.4777	519.104	42.8931
-36.4753	515.3811	42.9126
-36.4735	512.0014	42.9321
-36.4719	512.574	42.95166
-36.4697	519.926	42.9712
-36.4698	510.506	42.9907
-36.4673	514.88	43.0103
-36.4657	517.033	43.0298
-36.4633	510.818	43.0493
-36.4624	509.627	43.0688
-36.4609	519.27	43.0884
-36.4588	511.768	43.10791
-36.4577	510.436	43.1274
-36.4561	519.9021	43.147
-36.4553	513.144	43.1665
-36.452	507.66	43.186
-36.4507	515.973	43.2056
-36.45005	514.901	43.2251
-36.4474	508.106	43.2446
-36.4469	514.947	43.26416
-36.4447	514.491	43.2837
-36.4424	508.651	43.3032
-36.4411	512.448	43.3228
-36.4401	518.635	43.3423
-36.4379	509.324	43.3618
-36.4368	512.388	43.3813
-36.4351	515.184	43.4009
-36.4323	512.847	43.42041
-36.4318	509.056	43.4399
-36.43055	517.236	43.4595
-36.427	513.3797	43.479
-36.4266	510.379	43.4985
-36.426	512.98	43.5181
-36.424	515.376	43.5376
-36.42178	507.426	43.5571
-36.4205	517.287	43.57666
-36.4176	516.899	43.5962
-36.416	510.621	43.6157
-36.4149	509.556	43.6353
-36.414	517.073	43.6548
-36.4116	511.196	43.6743
-36.4102	512.929	43.6938
-36.4083	517.069	43.7134
-36.4073	510.8515	43.73291
-36.40535	508.751	43.7524
-36.4034	517.469	43.772
-36.4024	512.034	43.7915
-36.4002	507.817	43.811
-36.3999	515.981	43.8306
-36.3972	513.686	43.8501
-36.3956	507.527	43.8696
-36.3941	514.448	43.88916
-36.3928	516.053	43.9087
-36.3905	509.755	43.9282
-36.3893	514.008	43.9478
-36.3885	512.966	43.9673
-36.38662	508.32	43.9868
-36.3859	510.5322	44.0063
-36.382	516.495	44.0259
-36.3814	510.97	44.04541
-36.3804	509.547	44.0649
-36.3782	512.246	44.0845
-36.3751	512.984	44.104
-36.3744	508.6673	44.1235
-36.3736	516.271	44.1431
-36.3716	512.524	44.1626
-36.3701	508.783	44.1821
-36.369	511.184	44.20166
-36.3667	516.4696	44.2212
-36.3644	508.362	44.2407
-36.3634	514.7392	44.2603
-36.3626	516.398	44.2798
-36.3605	509.403	44.2993
-36.3577	507.3403	44.3188
-36.3559	516.535	44.3384
-36.3547	511.906	44.35791
-36.35405	511.514	44.3774
-36.3516	516.673	44.397
-36.3506	509.69	44.4165
-36.34787	505.879	44.436
-36.3469	515.5213	44.4556
-36.345	514.847	44.4751
-36.3436	506.2287	44.4946
-36.3417	514.425	44.51416
-36.3407	512.488	44.5337
-36.33926	508.595	44.5532
-36.3373	510.572	44.5728
-36.3354	514.164	44.5923
-36.3339	509.085	44.6118
-36.3327	511.29	44.6313
-36.331	513.8728	44.6509
-36.329	510.692	44.67041
-36.32893	507.584	44.6899
-36.3258	517.404	44.7095
-36.3242	512.686	44.729
-36.3217	510.691	44.7485
-36.3208	511.115	44.7681
-36.3197	514.687	44.7876
-36.31826	508.247	44.8071
-36.3151	515.345	44.82666
-36.3146	514.172	44.8462
-36.3129	508.53	44.8657
-36.3119	509.509	44.8853
-36.3094	517.122	44.9048
-36.3081	508.502	44.9243
-36.305	510.8009	44.9438
-36.3047	516.365	44.9634
-36.3029	509.993	44.98291
-36.3018	507.689	45.0024
-36.3002	514.077	45.022
-36.2986	510.728	45.0415
-36.2957	507.148	45.061
-36.2949	514.715	45.0806
-36.293	510.345	45.1001
-36.292	505.52	45.1196
-36.2897	511.807	45.13916
-36.2879	515.027	45.1587
-36.2859	505.718	45.1782
-36.28577	509.714	45.1978
-36.2827	510.4679	45.2173
-36.2819	509.804	45.2368
-36.2806	508.456	45.2563
-36.2785	515.017	45.2759
-36.2769	507.8689	45.29541
-36.2759	508.805	45.3149
-36.2738	511.029	45.3345
-36.27206	511.556	45.354
-36.2703	504.336	45.3735
-36.2688	513.292	45.3931
-36.266	512.2774	45.4126
-36.2663	506.499	45.4321
-36.2627	506.604	45.45166
-36.26178	512.375	45.4712
-36.2614	505.182	45.4907
-36.2591	510.6058	45.5103
-36.2579	513.014	45.5298
-36.2558	506.002	45.5493
-36.2541	504.345	45.5688
-36.252	513.6662	45.5884
-36.2509	507.3049	45.60791
-36.2498	505.196	45.6274
-36.2478	512.488	45.647
-36.247	506.828	45.6665
-36.245	503.267	45.686
-36.2434	510.922	45.7056
-36.24	509.478	45.7251
-36.2401	503.112	45.7446
-36.2376	510.277	45.76416
-36.2368	507.593	45.7837
-36.2347	502.352	45.8032
-36.2336	507.9809	45.8228
-36.2304	511.251	45.8423
-36.2298	503.04	45.8618
-36.2283	505.293	45.8813
-36.2269	505.3848	45.9009
-36.2244	505.5098	45.92041
-36.2244	501.7467	45.9399
-36.22279	510.066	45.9595
-36.2214	502.1568	45.979
-36.2179	500.728	45.9985
-36.2169	501.864	46.0181
-36.2161	502.818	46.0376
-36.2137	493.5535	46.0571
-36.21207	500.705	46.07666
-36.2091	497.452	46.0962
-36.2055	-39.7782	46.1157
-36.2042	-37.25716	46.1353
-36.2036	-36.4793	46.1548
-36.203	-43.5728	46.1743
-36.2011	-42.3741	46.1938
-36.1997	-37.7844	46.2134
-36.1986	-44.3861	46.23291
-36.1962	-45.3675	46.2524
-36.1954	-38.2269	46.272
-36.194	-41.663	46.2915
-36.19239	-45.6738	46.311
-36.19051	-37.86438	46.3306
-36.189	-41.7271	46.3501
-36.186	-46.10778	46.3696
-36.1862	-39.0017	46.38916
-36.1838	-39.1453	46.4087
-36.182	-46.0655	46.4282
-36.1815	-40.8919	46.4478
-36.1779	-42.1708	46.4673
-36.1773	-44.2463	46.4868
-36.176	-43.9968	46.5063
-36.1733	-35.5551	46.5259
-36.1727	-42.7669	46.54541
-36.1715	-43.3486	46.5649
-36.1689	-42.4426	46.5845
-36.168	-39.9259	46.604
-36.1665	-45.2305	46.6235
-36.1647	-37.6766	46.6431
-36.1635	-41.6108	46.6626
-36.161	-45.6455	46.6821
-36.1611	-41.3335	46.70166
-36.1577	-36.9368	46.7212
-36.1561	-46.2985	46.7407
-36.154	-41.3658	46.7603
-36.1528	-37.5606	46.7798
-36.15086	-45.1777	46.7993
-36.1493	-44.37291	46.8188
-36.1493	-38.3139	46.8384
-36.1467	-44.1211	46.85791
-36.145	-44.36972	46.8774
-36.1432	-38.6976	46.897
-36.1422	-43.5526	46.9165
-36.14056	-48.6696	46.936
-36.1388	-38.7317	46.9556
-36.1375	-39.0267	46.9751
-36.1348	-46.1347	46.9946
-36.1333	-40.3976	47.01416
-36.1315	-42.6774	47.0337
-36.13028	-44.3687	47.0532
-36.1279	-41.0123	47.0728
-36.1279	-38.5096	47.0923
-36.1249	-45.4105	47.1118
-36.1238	-41.0179	47.1313
-36.1217	-41.1467	47.1509
-36.1197	-43.5153	47.17041
-36.1183	-44.9184	47.1899
-36.1176	-37.5624	47.2095
-36.1152	-40.0673	47.229
-36.1143	-43.3729	47.2485
-36.11335	-42.0506	47.2681
-36.1111	-38.0343	47.2876
-36.1102	-46.5364	47.3071
-36.1068	-39.70924	47.32666
-36.1068	-39.0232	47.3462
-36.1042	-45.5483	47.3657
-36.1024	-44.3774	47.3853
-36.1004	-36.268	47.4048
-36.0994	-45.027	47.4243
-36.09763	-45.007	47.4438
-36.0954	-38.1004	47.4634
-36.0947	-41.8322	47.48291
-36.0928	-44.4998	47.5024
-36.092	-38.1792	47.522
-36.0905	-43.4329	47.5415
-36.088	-46.0043	47.561
-36.0865	-38.3912	47.5806
-36.0851	-43.0249	47.6001
-36.0826	-45.8834	47.6196
-36.0811	-40.9633	47.63916
-36.079	-37.4167	47.6587
-36.0784	-45.8966	47.6782
-36.0771	-40.91	47.6978
-36.0752	-41.706	47.7173
-36.073	-45.2463	47.7368
-36.07098	-43.3121	47.7563
-36.0697	-38.3574	47.7759
-36.0678	-43.8133	47.79541
-36.0666	-43.1704	47.8149
-36.06559	-41.3805	47.8345
-36.0635	-39.7241	47.854
-36.0621	-46.06575	47.8735
-36.0609	-38.5884	47.8931
-36.0584	-39.9054	47.9126
-36.0575	-45.9527	47.9321
-36.0553	-44.1889	47.95166
-36.0545	-39.6943	47.9712
-36.0523	-46.86734	47.9907
-36.0514	-41.5622	48.0103
-36.0483	-39.55714	48.0298
-36.0484	-46.94202	48.0493
-36.0459	-45.0723	48.0688
-36.0431	-38.2134	48.0884
-36.0434	-43.7365	48.10791
-36.0414	-45.9206	48.1274
-36.0394	-38.6153	48.147
-36.0363	-43.9576	48.1665
-36.0368	-45.8583	48.186
-36.0346	-39.2335	48.2056
-36.0323	-41.325	48.2251
-36.0312	-46.7722	48.2446
-36.02824	-39.4305	48.26416
-36.029	-41.5229	48.2837
-36.026	-46.033	48.3032
-36.024	-43.1964	48.3228
-36.0235	-38.4526	48.3423
-36.0211	-43.4635	48.3618
-36.0196	-42.4337	48.3813
-36.0175	-41.8394	48.4009
-36.0166	-42.7037	48.42041
-36.0137	-45.0007	48.4399
-36.013	-36.7751	48.4595
-36.0114	-41.9772	48.479
-36.0101	-44.4665	48.4985
-36.0085	-43.4033	48.5181
-36.0059	-37.3201	48.5376
-36.00423	-44.23217	48.5571
-36.00333	-41.5832	48.57666
-36.0017	-39.1613	48.5962
-36.0015	-46.01833	48.6157
-35.9973	-45.31826	48.6353
-35.9968	-38.135	48.6548
-35.9955	-45.2794	48.6743
-35.9938	-44.8212	48.6938
-35.9928	-38.4087	48.7134
-35.9902	-44.8509	48.73291
-35.98967	-46.7228	48.7524
-35.9876	-38.1055	48.772
-35.9845	-40.3102	48.7915
-35.9832	-46.6505	48.811
-35.982	-38.8571	48.8306
-35.9814	-42.8512	48.8501
-35.9793	-45.3685	48.8696
-35.977	-41.4178	48.88916
-35.976	-39.5568	48.9087
-35.9737	-46.1509	48.9282
-35.9729	-40.91803	48.9478
-35.9714	-41.0813	48.9673
-35.9697	-43.6097	48.9868
-35.9673	-43.8293	49.0063
-35.9662	-38.657	49.0259
-35.9641	-42.0017	49.04541
-35.9625	-43.3074	49.0649
-35.9612	-41.91708	49.0845
-35.9578	-41.2474	49.104
-35.9578	-44.7467	49.1235
-35.9572	-38.491	49.1431
-35.955	-40.6284	49.1626
-35.9536	-45.98185	49.1821
-35.95142	-43.2695	49.20166
-35.9492	-38.8136	49.2212
-35.9483	-46.5169	49.2407
-35.9452	-43.199	49.2603
-35.945	-40.3341	49.2798
-35.9437	-45.8199	49.2993
-35.9403	-46.1881	49.3188
-35.9399	-38.3027	49.3384
-35.9381	-43.9673	49.35791
-35.9375	-44.9412	49.3774
-35.9354	-35.1207	49.397
-35.933	-43.5967	49.4165
-35.9318	-47.52013	49.436
-35.9289	-40.311	49.4556
-35.92709	-39.3181	49.4751
-35.9267	-45.4229	49.4946
-35.9259	-40.1376	49.51416
-35.9226	-43.5011	49.5337
-35.9237	-44.7091	49.5532
-35.9204	-41.5935	49.5728
-35.91814	-36.9079	49.5923
-35.9179	-44.4917	49.6118
-35.9157	-41.3248	49.6313
-35.9141	-42.0653	49.6509
-35.9122	-41.2131	49.67041
-35.91198	-45.4124	49.6899
-35.9085	-37.6693	49.7095
-35.907	-41.3997	49.729
-35.9059	-42.2515	49.7485
-35.9037	-41.6406	49.7681
-35.9035	-40.511	49.7876
-35.901	-45.8086	49.8071
-35.9006	-39.6247	49.82666
-35.8978	-40.4155	49.8462
-35.8961	-46.458	49.8657
-35.8943	-45.81987	49.8853
-35.8932	-38.9272	49.9048
-35.8917	-45.1175	49.9243
-35.8899	-44.4872	49.9438
-35.8883	-38.40419	49.9634
-35.8862	-45.45713	49.98291
-35.8856	-46.8207	50.0024
-35.8832	-38.8601	50.022
-35.8798	-41.9525	50.0415
-35.8805	-45.8719	50.061
-35.8779	-38.9575	50.0806
-35.8757	-42.7828	50.1001
-35.875	-46.1634	50.1196
-35.8734	-42.2357	50.13916
-35.8727	-38.3663	50.1587
-35.8688	-44.3189	50.1782
-35.8685	-40.2546	50.1978
-35.8669	-42.5273	50.2173
-35.8649	-44.667	50.2368
-35.8627	-45.0227	50.2563
-35.8628	-36.9803	50.2759
-35.85944	-42.4149	50.29541
-35.8584	-44.3567	50.3149
-35.8569	-41.144	50.3345
-35.855	-37.5803	50.354
-35.8523	-45.7783	50.3735
-35.8508	-39.1736	50.3931
-35.8516	-40.068	50.4126
-35.849	-45.3458	50.4321
-35.847	-43.504	50.45166
-35.8467	-39.11797	50.4712
-35.8432	-45.285	50.4907
-35.8424	-42.9352	50.5103
-35.8407	-38.0058	50.5298
-35.8378	-46.4534	50.5493
-35.8371	-46.4041	50.5688
-35.836	-39.5543	50.5884
-35.8342	-42.4053	50.60791
-35.8335	-45.5595	50.6274
-35.8302	-38.5815	50.647
-35.8299	-44.8286	50.6665
-35.82795	-45.1102	50.686
-35.8262	-39.3125	50.7056
-35.824	-40.3909	50.7251
-35.8232	-46.3583	50.7446
-35.8214	-40.9469	50.76416
-35.82	-42.4478	50.7837
-35.8189	-43.54549	50.8032
-35.8153	-44.0359	50.8228
-35.81522	-37.5144	50.8423
-35.8124	-42.7658	50.8618
-35.8119	-44.1206	50.8813
-35.8094	-42.7488	50.9009
-35.8077	-41.366	50.92041
-35.8062	-45.2261	50.9399
-35.8041	-37.5663	50.9595
-35.8021	-41.268	50.979
-35.8013	-45.1668	50.9985
-35.7991	-43.9556	51.0181
-35.7978	-39.8714	51.0376
-35.7958	-45.1832	51.0571
-35.7947	-40.2407	51.07666
-35.79417	-39.8727	51.0962
-35.79166	-44.7609	51.1157
-35.79	-44.4786	51.1353
-35.7881	-38.3983	51.1548
-35.7864	-44.4818	51.1743
-35.7859	-44.5988	51.1938
-35.7842	-38.2366	51.2134
-35.7817	-45.7731	51.23291
-35.7811	-44.7194	51.2524
-35.7787	-40.0487	51.272
-35.776	-41.2407	51.2915
-35.7755	-44.8218	51.311
-35.7742	-37.79435	51.3306
-35.7726	-42.8451	51.3501
-35.7708	-45.8817	51.3696
-35.7686	-40.6926	51.38916
-35.7679	-38.4702	51.4087
-35.76506	-45.6552	51.4282
-35.7644	-39.8127	51.4478
-35.76144	-42.0344	51.4673
-35.7614	-43.8178	51.4868
-35.7592	-43.6924	51.5063
-35.7566	-38.2004	51.5259
-35.7564	-42.869	51.54541
-35.75518	-41.7583	51.5649
-35.7522	-41.3699	51.5845
-35.7512	-41.1928	51.604
-35.7495	-46.189	51.6235
-35.7474	-38.6838	51.6431
-35.7465	-39.5173	51.6626
-35.7442	-45.52174	51.6821
-35.74218	-43.6635	51.70166
-35.7415	-38.5821	51.7212
-35.7386	-44.9674	51.7407
-35.7379	-42.514	51.7603
-35.7364	-38.3625	51.7798
-35.7342	-46.0481	51.7993
-35.7338	-45.507	51.8188
-35.7315	-38.20155	51.8384
-35.7294	-41.4032	51.85791
-35.7298	-45.5094	51.8774
-35.72625	-37.83	51.897
-35.7254	-43.1764	51.9165
-35.7225	-43.6543	51.936
-35.7215	-41.0596	51.9556
-35.721	-39.55793	51.9751
-35.7179	-44.3175	51.9946
-35.7155	-38.4021	52.01416
-35.7161	-42.7087	52.0337
-35.7134	-44.52911	52.0532
-35.7125	-40.0083	52.0728
-35.7122	-37.6018	52.0923
-35.7091	-45.366	52.1118
-35.7075	-43.0656	52.1313
-35.706	-40.9465	52.1509
-35.7041	-38.4357	52.17041
-35.70195	-44.8592	52.1899
-35.70105	-38.5034	52.2095
-35.6985	-41.19669	52.229
-35.6977	-45.0387	52.2485
-35.6957	-41.8653	52.2681
-35.69355	-39.7063	52.2876
-35.6925	-45.9039	52.3071
-35.6915	-40.0549	52.32666
-35.6895	-36.6477	52.3462
-35.688	-45.6139	52.3657
-35.6856	-44.2285	52.3853
-35.68523	-38.0352	52.4048
-35.6833	-43.8441	52.4243
-35.6814	-42.1724	52.4438
-35.68008	-37.5349	52.4634
-35.678	-45.0938	52.48291
-35.6761	-44.3165	52.5024
-35.6744	-38.805	52.522
-35.6729	-39.9586	52.5415
-35.6706	-45.4575	52.561
-35.6689	-38.9544	52.5806
-35.6677	-43.00412	52.6001
-35.6678	-43.2049	52.6196
-35.66544	-40.75	52.63916
-35.6639	-38.9045	52.6587
-35.6624	-45.1361	52.6782
-35.66	-38.5571	52.6978
-35.6591	-40.3633	52.7173
-35.65696	-42.98608	52.7368
-35.6548	-45.0314	52.7563
-35.6525	-36.5773	52.7759
-35.6516	-42.1136	52.79541
-35.6494	-42.9002	52.8149
-35.6487	-41.7896	52.8345
-35.6475	-40.1854	52.854
-35.645	-44.2901	52.8735
-35.6448	-39.1793	52.8931
-35.6412	-40.4091	52.9126
-35.6404	-46.2488	52.9321
-35.6385	-40.8973	52.95166
-35.637	-36.6635	52.9712
-35.6352	-45.65876	52.9907
-35.6338	-42.9015	53.0103
-35.6328	-37.1252	53.0298
-35.6307	-45.346	53.0493
-35.6287	-44.63	53.0688
-35.6279	-38.3271	53.0884
-35.6254	-43.938	53.10791
-35.6238	-44.2605	53.1274
-35.6223	-38.1304	53.147
-35.6203	-43.4407	53.1665
-35.6189	-45.1036	53.186
-35.617	-38.7779	53.2056
-35.6165	-38.3226	53.2251
-35.6149	-44.7628	53.2446
-35.6122	-40.1664	53.26416
-35.6114	-42.424	53.2837
-35.6101	-45.3774	53.3032
-35.6073	-42.5169	53.3228
-35.6068	-37.9374	53.3423
-35.60463	-44.72826	53.3618
-35.6032	-41.3266	53.3813
-35.6012	-40.5302	53.4009
-35.60104	-40.78	53.42041
-35.5978	-45.4898	53.4399
-35.5967	-37.7057	53.4595
-35.5936	-40.3247	53.479
-35.592	-44.185	53.4985
-35.5908	-43.8786	53.5181
-35.5899	-39.8892	53.5376
-35.58831	-46.0102	53.5571
-35.5871	-40.1586	53.57666
-35.5842	-38.3211	53.5962
-35.5839	-45.0486	53.6157
-35.582	-43.3315	53.6353
-35.5802	-37.8116	53.6548
-35.5792	-43.5614	53.6743
-35.5766	-43.8665	53.6938
-35.5754	-36.5676	53.7134
-35.5732	-44.9621	53.73291
-35.57156	-43.2378	53.7524
-35.5706	-39.7554	53.772
-35.5684	-42.1579	53.7915
-35.5675	-44.8764	53.811
-35.5655	-37.517	53.8306
-35.5642	-42.2592	53.8501
-35.5626	-43.2952	53.8696
-35.5602	-41.7466	53.88916
-35.5588	-37.9618	53.9087
-35.558	-44.58276	53.9282
-35.5563	-40.3785	53.9478
-35.5549	-41.6263	53.9673
-35.5527	-41.8219	53.9868
-35.5514	-42.3956	54.0063
-35.5482	-36.8604	54.0259
-35.5479	-41.2047	54.04541
-35.5461	-44.0252	54.0649
-35.5438	-41.2543	54.0845
-35.5419	-40.6626	54.104
-35.5419	-45.6215	54.1235
-35.54	-39.16354	54.1431
-35.5372	-39.5845	54.1626
-35.5366	-43.9904	54.1821
-35.5355	-41.4121	54.20166
-35.5331	-38.74155	54.2212
-35.5323	-43.0544	54.2407
-35.5292	-41.7956	54.2603
-35.528	-37.4991	54.2798
-35.5263	-45.9928	54.2993
-35.525	-44.6025	54.3188
-35.5239	-39.02153	54.3384
-35.5221	-40.7144	54.35791
-35.5211	-45.1156	54.3774
-35.5185	-38.5498	54.397
-35.5164	-43.9616	54.4165
-35.5148	-43.9928	54.436
-35.5139	-39.3985	54.4556
-35.5128	-39.0386	54.4751
-35.5096	-45.5998	54.4946
-35.5078	-39.5751	54.51416
-35.5064	-43.57478	54.5337
-35.5045	-43.5479	54.5532
-35.5039	-44.3306	54.5728
-35.5012	-38.4648	54.5923
-35.5025	-43.3567	54.6118
-35.4988	-42.2037	54.6313
-35.497	-43.6868	54.6509
-35.4949	-40.8418	54.67041
-35.4941	-43.5251	54.6899
-35.4926	-38.2578	54.7095
-35.4904	-41.26223	54.729
-35.4905	-45.8338	54.7485
-35.4874	-40.836	54.7681
-35.4856	-39.4144	54.7876
-35.4845	-45.5279	54.8071
-35.4831	-41.91312	54.82666
-35.4812	-39.9733	54.8462
-35.4784	-46.1854	54.8657
-35.4782	-43.2373	54.8853
-35.4759	-38.6791	54.9048
-35.4747	-43.296	54.9243
-35.4726	-43.6461	54.9438
-35.4712	-36.5316	54.9634
-35.4695	-46.3098	54.98291
-35.4685	-44.5665	55.0024
-35.4656	-39.4402	55.022
-35.4645	-41.1335	55.0415
-35.4635	-44.4806	55.061
-35.4613	-38.77718	55.0806
-35.4609	-43.0489	55.1001
-35.4577	-43.5054	55.1196
-35.4569	-41.9766	55.13916
-35.4548	-37.6771	55.1587
-35.4532	-45.0745	55.1782
-35.4515	-40.1874	55.1978
-35.4494	-39.5405	55.2173
-35.4488	-42.86541	55.2368
-35.4469	-44.2471	55.2563
-35.4444	-37.8627	55.2759
-35.4441	-43.0707	55.29541
-35.4413	-42.3167	55.3149
-35.44022	-41.203	55.3247