File: data/processed_data_files/tensile/0.254_solid_uprint_typei_090_r(4).dat
MTS793|BTW|ENU|1|2|.|/|:|1|0|0|A

Data Header:			0.254_solid_uprint_typei_090_r0			Time:	20.0205	s	4/15/2019 2:56:36 PM
Data Acquisition:	Timed
Station Name:	ft40.cfg
Test File Name:	monotonic_0.2540_typei_solid_090_uprint.tst
Displacement	Force	Running Time
mm	N	s
9.982317	-108.078	0.0256348
9.981	-115.899	0.045166
9.98138	-111.235	0.0646973
9.98219	-105.693	0.0842285
9.9831	-107.729	0.10376
9.98489	-117.285	0.123291
9.987071	-102.648	0.142822
9.98793	-104.614	0.162354
9.99031	-111.278	0.181885
9.99125	-102.217	0.201416
9.99275	-99.0996	0.220947
9.99524	-109.497	0.240479
9.99578	-100.215	0.26001
9.998311	-98.0494	0.279541
9.99885	-102.516	0.299072
10.00109	-98.6783	0.318604
10.0023	-89.7101	0.338135
10.0052	-102.312	0.357666
10.0056	-98.2957	0.377197
10.0087	-91.0321	0.396729
10.0099	-91.9361	0.41626
10.0115	-96.508	0.435791
10.0132	-87.3187	0.455322
10.01512	-88.64238	0.474854
10.0166	-93.7295	0.494385
10.0175	-86.55619	0.513916
10.0198	-83.7983	0.533447
10.0201	-89.9245	0.552979
10.0226	-86.671	0.57251
10.0247	-79.1517	0.592041
10.0255	-85.7423	0.611572
10.0279	-84.5777	0.631104
10.0292	-77.3586	0.650635
10.0306	-78.7771	0.670166
10.0326	-84.0092	0.689697
10.03395	-72.3416	0.709229
10.0352	-76.9863	0.72876
10.0372	-80.6332	0.748291
10.03919	-70.51033	0.767822
10.0409	-68.5988	0.787354
10.041	-81.0944	0.806885
10.0443	-69.6795	0.826416
10.0453	-66.2054	0.845947
10.0465	-73.4784	0.865479
10.0482	-68.1639	0.88501
10.0509	-60.375	0.904541
10.0524	-71.8674	0.924072
10.0532	-64.79361	0.943604
10.0551	-58.8302	0.963135
10.05648	-62.9751	0.982666
10.0581	-66.0165	1.0022
10.0599	-55.6148	1.02173
10.0615	-61.0174	1.04126
10.0638	-62.108	1.060791
10.0645	-55.1479	1.08032
10.06676	-52.8799	1.09985
10.0688	-57.6341	1.11938
10.0704	-52.6215	1.138916
10.0721	-49.9449	1.15845
10.0725	-55.6086	1.17798
10.0748	-49.1989	1.19751
10.0761	-44.81673	1.217041
10.0779	-50.6637	1.23657
10.0791	-51.8145	1.2561
10.08141	-39.8277	1.27563
10.0829	-46.4929	1.295166
10.0839	-46.9159	1.3147
10.0856	-40.243	1.33423
10.0882	-40.0879	1.35376
10.0887	-48.5413	1.373291
10.0912	-35.3322	1.39282
10.0922	-38.2936	1.41235
10.0946	-42.4978	1.43188
10.0961	-35.276	1.451416
10.0974	-29.6959	1.47095
10.0988	-42.30489	1.49048
10.10171	-33.6727	1.51001
10.10331	-28.7744	1.529541
10.104	-32.6283	1.54907
10.1063	-30.8679	1.5686
10.1073	-24.2729	1.58813
10.1097	-33.9099	1.607666
10.1102	-30.0684	1.6272
10.11155	-22.36816	1.64673
10.11379	-24.1028	1.66626
10.1158	-27.8357	1.685791
10.1171	-19.9045	1.70532
10.1189	-21.8065	1.72485
10.1193	-25.8431	1.74438
10.1216	-18.9983	1.763916
10.1235	-13.99411	1.78345
10.1253	-20.5555	1.80298
10.1272	-15.88393	1.82251
10.1288	-11.9307	1.842041
10.1298	-18.1707	1.86157
10.1315	-15.4184	1.8811
10.13355	-6.3283	1.90063
10.135	-10.5041	1.920166
10.1357	-15.8519	1.9397
10.1371	-4.468298	1.95923
10.139	-7.60664	1.97876
10.1412	-11.1351	1.998291
10.1439	-2.20231	2.01782
10.14487	-1.46753	2.03735
10.1458	-12.3436	2.05688
10.1481	3.37425	2.076416
10.1498	1.41259	2.09595
10.1508	-4.91463	2.11548
10.1532	2.22709	2.13501
10.154	9.061038	2.154541
10.1557	-2.60032	2.17407
10.15848	2.848062	2.1936
10.1589	9.81137	2.21313
10.1608	7.25499	2.232666
10.1613	5.57461	2.2522
10.1646	16.2261	2.27173
10.1655	7.751	2.29126
10.1676	7.86814	2.310791
10.16896	16.7344	2.33032
10.17021	16.6419	2.34985
10.1715	8.53807	2.36938
10.175	15.9738	2.388916
10.1756	18.5584	2.40845
10.1766	14.1325	2.42798
10.1787	17.8578	2.44751
10.1807	23.8787	2.467041
10.1816	19.9636	2.48657
10.1844	20.49917	2.5061
10.1849	27.85194	2.52563
10.1868	22.9091	2.545166
10.18883	21.6726	2.5647
10.1899	31.3034	2.58423
10.1914	32.7736	2.60376
10.193	22.6959	2.623291
10.19534	33.48703	2.64282
10.19715	33.45002	2.66235
10.1985	27.9921	2.68188
10.19979	36.3217	2.701416
10.2011	40.3737	2.72095
10.2013	28.35424	2.74048
10.2047	38.90834	2.76001
10.2077	42.24255	2.779541
10.20915	36.9044	2.79907
10.2103	36.9397	2.8186
10.212	48.7499	2.83813
10.2121	39.78	2.857666
10.21452	41.2443	2.8772
10.2158	48.0579	2.89673
10.218	46.1932	2.91626
10.2206	43.2001	2.935791
10.2211	53.9007	2.95532
10.2233	49.35323	2.97485
10.2247	45.2107	2.99438
10.22528	51.2769	3.013916
10.22732	56.5731	3.03345
10.22918	50.52697	3.05298
10.231	55.1458	3.07251
10.2331	59.1058	3.092041
10.2345	53.8453	3.11157
10.236	55.3333	3.1311
10.2378	64.0169	3.15063
10.2386	59.7445	3.170166
10.24047	57.2845	3.1897
10.2425	67.6076	3.20923
10.2437	65.3513	3.22876
10.2455	60.179	3.248291
10.2471	69.6854	3.26782
10.249	71.5557	3.28735
10.25085	62.514	3.30688
10.2519	70.7833	3.326416
10.2539	72.8332	3.34595
10.2551	65.738	3.36548
10.2571	72.9856	3.38501
10.2577	81.2395	3.404541
10.25907	68.9628	3.42407
10.2617	75.5122	3.4436
10.264	82.8901	3.46313
10.2653	77.9869	3.482666
10.2671	76.6544	3.5022
10.2672	86.6912	3.52173
10.2701	79.748	3.54126
10.2713	79.113	3.560791
10.2732	86.6503	3.58032
10.2746	86.14325	3.59985
10.2767	80.7208	3.61938
10.2787	90.3358	3.638916
10.2786	90.5765	3.65845
10.2818	85.141	3.67798
10.283	88.9829	3.69751
10.2832	97.5434	3.717041
10.2861	90.9411	3.73657
10.2877	91.3873	3.7561
10.2897	98.363	3.77563
10.2914	94.7447	3.795166
10.293	92.9508	3.8147
10.2923	102.732	3.83423
10.29511	100.608	3.85376
10.2968	95.1006	3.873291
10.2999	105.286	3.89282
10.299	105.974	3.91235
10.3024	98.8117	3.93188
10.3033	105.519	3.951416
10.3052	112.494	3.97095
10.3073	100.761	3.99048
10.308	108.979	4.01001
10.3097	112.168	4.029541
10.3117	106.893	4.04907
10.31401	108.849	4.0686
10.3145	120.719	4.08813
10.3166	108.633	4.107666
10.3186	112.319	4.1272
10.3209	120.115	4.14673
10.3227	119.2	4.16626
10.3235	115.16	4.185791
10.3249	124.491	4.20532
10.3268	119.3848	4.22485
10.32827	117.551	4.24438
10.3296	123.857	4.263916
10.3317	128.78	4.28345
10.33229	119.734	4.30298
10.3346	127.0462	4.32251
10.3347	131.207	4.342041
10.338	126.188	4.36157
10.3396	126.961	4.3811
10.3412	135.074	4.40063
10.3429	131.279	4.420166
10.3446	129.317	4.4397
10.3463	136.399	4.45923
10.3482	134.901	4.47876
10.3501	131.561	4.498291
10.3521	139.596	4.51782
10.35303	142.316	4.53735
10.35282	132.144	4.55688
10.3555	141.968	4.576416
10.3585	146.82	4.59595
10.36	138.285	4.61548
10.3607	142.34	4.63501
10.3623	151.494	4.654541
10.364	140.134	4.67407
10.3667	146.064	4.6936
10.3664	153.211	4.71313
10.36926	148.034	4.732666
10.3709	145.493	4.7522
10.3721	158.1031	4.77173
10.3739	150.672	4.79126
10.3756	149.214	4.810791
10.37724	155.891	4.83032
10.3783	161.298	4.84985
10.381	152.975	4.86938
10.3819	160.059	4.888916
10.3832	159.387	4.90845
10.3854	155.514	4.92798
10.3872	160.561	4.94751
10.3887	168.46	4.967041
10.3898	159.014	4.98657
10.3922	163.614	5.0061
10.3934	169.124	5.02563
10.394	166.784	5.045166
10.3957	164.591	5.0647
10.3976	174.11	5.08423
10.4011	172.425	5.10376
10.40111	167.959	5.123291
10.40349	174.716	5.14282
10.4054	175.035	5.16235
10.4068	167.33	5.18188
10.40716	177.307	5.201416
10.4092	183.361	5.22095
10.4117	171.877	5.24048
10.4135	177.367	5.26001
10.4142	184.799	5.279541
10.4153	177.956	5.29907
10.4182	179.823	5.3186
10.41933	190.0712	5.33813
10.4215	180.407	5.357666
10.4228	182.369	5.3772
10.425	191.25	5.39673
10.4258	189.2283	5.41626
10.4282	184.115	5.435791
10.429	196.532	5.45532
10.4315	191.47	5.47485
10.4318	188.177	5.49438
10.4342	193.967	5.513916
10.4358	200.76	5.53345
10.4383	191.02	5.55298
10.4385	199.464	5.57251
10.4411	200.071	5.592041
10.44248	196.827	5.61157
10.444	198.749	5.6311
10.4447	208.692	5.65063
10.4468	202.093	5.670166
10.4486	199.778	5.6897
10.4502	207.4364	5.70923
10.4517	207.703	5.72876
10.454	201.807	5.748291
10.4545	211.737	5.76782
10.4567	212.5127	5.78735
10.4588	203.97	5.80688
10.46	211.733	5.826416
10.4623	217.715	5.84595
10.46347	207.937	5.86548
10.4643	214.153	5.88501
10.4668	223.595	5.904541
10.469	212.211	5.92407
10.46944	214.627	5.9436
10.4715	223.104	5.96313
10.4735	218.6445	5.982666
10.4744	217.6506	6.0022
10.4764	229.638	6.02173
10.4792	221.857	6.04126
10.479	219.434	6.060791
10.481	228.59	6.08032
10.4827	231.803	6.09985
10.4851	221.502	6.11938
10.4864	231.284	6.138916
10.4886	232.421	6.15845
10.4895	229.755	6.17798
10.4908	231.376	6.19751
10.493	239.0791	6.217041
10.4935	233.457	6.23657
10.49544	236.838	6.2561
10.4975	239.996	6.27563
10.49906	236.61	6.295166
10.50042	234.1	6.3147
10.5027	245.809	6.33423
10.5038	242.883	6.35376
10.50605	239.209	6.373291
10.5083	245.696	6.39282
10.5088	249.195	6.41235
10.5108	241.321	6.43188
10.5117	249.1109	6.451416
10.5143	253.585	6.47095
10.515	241.856	6.49048
10.5168	249.472	6.51001
10.5179	257.289	6.529541
10.5196	249.693	6.54907
10.5213	248.724	6.5686
10.5235	263.138	6.58813
10.5239	253.716	6.607666
10.5261	253.604	6.6272
10.528	260.0788	6.64673
10.5304	259.727	6.66626
10.5317	254.8289	6.685791
10.5338	268.619	6.70532
10.5354	261.569	6.72485
10.5356	258.048	6.74438
10.5383	265.365	6.763916
10.5395	273.353	6.78345
10.5413	262.897	6.80298
10.5429	268.5528	6.82251
10.545	271.7402	6.842041
10.5455	267.0556	6.86157
10.548	268.626	6.8811
10.5497	280.217	6.90063
10.5517	271.424	6.920166
10.5521	270.992	6.9397
10.55563	279.948	6.95923
10.5546	279.383	6.97876
10.5583	271.43	6.998291
10.559	282.913	7.01782
10.5619	284.417	7.03735
10.5622	277.4039	7.05688
10.56412	282.116	7.076416
10.5656	287.798	7.09595
10.5669	279.123	7.11548
10.5701	285.9007	7.13501
10.57003	293.828	7.154541
10.5721	282.889	7.17407
10.5733	285.045	7.1936
10.57531	296.717	7.21313
10.5773	290.494	7.232666
10.579	286.706	7.2522
10.5802	298.6738	7.27173
10.5821	292.975	7.29126
10.5835	290.445	7.310791
10.5861	300.129	7.33032
10.5869	300.213	7.34985
10.5883	292.594	7.36938
10.5902	303.073	7.388916
10.5919	302.823	7.40845
10.5935	297.584	7.42798
10.59482	300.617	7.44751
10.597	311.776	7.467041
10.599	302.149	7.48657
10.5999	304.725	7.5061
10.6016	309.296	7.52563
10.6024	307.645	7.545166
10.6048	305.8165	7.5647
10.6065	317.091	7.58423
10.6089	312.058	7.60376
10.6098	306.375	7.623291
10.61173	314.865	7.64282
10.6127	319.237	7.66235
10.6139	309.856	7.68188
10.6157	317.035	7.701416
10.61788	322.826	7.72095
10.6193	315.258	7.74048
10.6209	317.583	7.76001
10.6222	326.8	7.779541
10.6245	317.907	7.79907
10.6258	320.861	7.8186
10.6286	331.891	7.83813
10.6288	322.087	7.857666
10.6307	320.835	7.8772
10.6324	332.928	7.89673
10.63402	331.065	7.91626
10.635	323.138	7.935791
10.6366	335.919	7.95532
10.639	332.345	7.97485
10.64	328.538	7.99438
10.6421	335.86	8.013916
10.6427	340.188	8.03345
10.6448	331.0542	8.05298
10.6467	338.32	8.07251
10.6484	340.904	8.092041
10.6502	338.104	8.11157
10.6517	336.2	8.1311
10.6532	346.844	8.15063
10.6547	341.13	8.170166
10.6573	341.77	8.1897
10.6581	347.594	8.20923
10.6606	348.077	8.22876
10.661	340.604	8.248291
10.6634	353.406	8.26782
10.6649	352.386	8.28735
10.6666	344.566	8.30688
10.6681	349.027	8.326416
10.6695	359.81	8.34595
10.6712	348.059	8.36548
10.6727	355.007	8.38501
10.6735	361.506	8.404541
10.6762	351.786	8.42407
10.6789	354.422	8.4436
10.6795	366.72	8.46313
10.6814	358.697	8.482666
10.6816	355.3031	8.5022
10.6845	370.218	8.52173
10.6856	364.004	8.54126
10.688	356.832	8.560791
10.6895	369.19	8.58032
10.6909	370.475	8.59985
10.6926	362.02	8.61938
10.6935	372.09	8.638916
10.69564	370.943	8.65845
10.698	365.768	8.67798
10.6985	370.563	8.69751
10.7017	380.503	8.717041
10.7019	368.805	8.73657
10.7046	373.312	8.7561
10.7062	380.522	8.77563
10.7066	378.0936	8.795166
10.70918	373.406	8.8147
10.71	384.86	8.83423
10.7115	382.572	8.85376
10.7127	379.319	8.873291
10.7153	383.873	8.89282
10.7157	388.298	8.91235
10.718	377.204	8.93188
10.7211	388.166	8.951416
10.722	394.39	8.97095
10.7234	383.236	8.99048
10.7249	385.789	9.01001
10.7259	396.151	9.029541
10.7282	387.962	9.04907
10.7297	389.275	9.0686
10.7316	400.945	9.08813
10.7336	391.448	9.107666
10.7346	389.238	9.1272
10.7363	403.499	9.14673
10.7371	398.4339	9.16626
10.7414	389.525	9.185791
10.7411	404.583	9.20532
10.7427	403.408	9.22485
10.745	394.844	9.24438
10.7453	403.857	9.263916
10.7478	409.153	9.28345
10.7487	399.724	9.30298
10.7515	407.452	9.32251
10.7523	411.3439	9.342041
10.7546	403.494	9.36157
10.7565	404.159	9.3811
10.75806	418.042	9.40063
10.7588	411.039	9.420166
10.7602	409.1189	9.4397
10.7631	417.388	9.45923
10.7631	417.822	9.47876
10.7653	408.963	9.498291
10.7676	421.6485	9.51782
10.7704	421.3222	9.53735
10.7714	414.082	9.55688
10.7719	419.924	9.576416
10.77359	427.242	9.59595
10.7745	414.651	9.61548
10.7773	423.019	9.63501
10.7791	431.723	9.654541
10.7802	422.999	9.67407
10.78173	419.554	9.6936
10.7832	434.259	9.71313
10.785	425.461	9.732666
10.78667	425.195	9.7522
10.7876	436.976	9.77173
10.7897	431.6846	9.79126
10.7909	424.542	9.810791
10.7935	438.139	9.83032
10.7952	438.674	9.84985
10.7966	427.233	9.86938
10.7982	441.324	9.888916
10.7997	441.348	9.90845
10.8004	433.423	9.92798
10.8034	438.717	9.94751
10.80478	445.22	9.967041
10.8058	437.355	9.98657
10.8079	443.847	10.0061
10.8091	449.079	10.0256
10.8109	445.177	10.0452
10.813	439.764	10.0647
10.8156	453.6593	10.0842
10.8161	452.182	10.10376
10.8172	445.583	10.1233
10.8199	450.912	10.1428
10.8208	456.344	10.1624
10.8227	445.4	10.1819
10.82417	456.436	10.2014
10.826	459.702	10.2209
10.8279	450.238	10.2405
10.83	453.298	10.26001
10.8314	466.172	10.2795
10.8316	453.348	10.2991
10.8345	456.879	10.3186
10.8354	468.257	10.3381
10.8374	460.12	10.3577
10.8389	457.071	10.3772
10.8399	470.701	10.3967
10.8421	465.638	10.41626
10.84339	460.538	10.4358
10.8465	472.772	10.4553
10.8479	471.295	10.4749
10.85	461.22	10.4944
10.8503	471.827	10.5139
10.8514	476.356	10.5334
10.8537	467.166	10.553
10.8559	474.7359	10.57251
10.8575	480.655	10.592
10.8588	473.243	10.6116
10.86	475.5141	10.6311
10.8621	484.377	10.6506
10.8626	475.906	10.6702
10.8644	477.98	10.6897
10.8664	485.361	10.7092
10.869	482.973	10.72876
10.8692	475.3446	10.7483
10.87299	489.302	10.7678
10.87406	490.616	10.7874
10.8753	482.237	10.8069
10.8765	485.826	10.8264
10.8783	494.733	10.8459
10.8787	483.3721	10.8655
10.88131	491.4491	10.88501
10.883	500.0553	10.9045
10.8842	488.321	10.9241
10.8852	486.856	10.9436
10.8888	503.678	10.9631
10.8901	495.343	10.9827
10.8908	490.404	11.0022
10.8924	504.598	11.0217
10.8942	500.049	11.04126
10.8962	491.637	11.0608
10.8972	505.945	11.0803
10.8989	503.471	11.0999
10.9007	495.114	11.1194
10.9027	506.345	11.1389
10.9033	509.747	11.1584
10.9068	498.191	11.178
10.9077	506.923	11.19751
10.9091	513.842	11.217
10.9105	505.604	11.2366
10.9117	508.185	11.2561
10.914	516.2948	11.2756
10.9148	511.008	11.2952
10.9166	508.84	11.3147
10.9189	521.277	11.3342
10.9196	512.47	11.35376
10.9212	511.177	11.3733
10.92366	518.939	11.3928
10.9255	523.119	11.4124
10.92619	512.623	11.4319
10.928	522.123	11.4514
10.93052	528.466	11.4709
10.9312	518.7265	11.4905
10.9331	520.837	11.51001
10.934	531.9	11.5295
10.937	520.034	11.5491
10.938	524.8089	11.5686
10.9402	535.941	11.5881
10.942	527.433	11.6077
10.9442	522.969	11.6272
10.9447	536.651	11.6467
10.9459	532.753	11.66626
10.9474	527.197	11.6858
10.9491	538.927	11.7053
10.9523	538.305	11.7249
10.9527	526.1861	11.7444
10.9549	537.621	11.7639
10.9558	542.212	11.7834
10.9573	530.3371	11.803
10.9594	540.187	11.82251
10.9599	545.328	11.842
10.96297	535.98	11.8616
10.96458	538.945	11.8811
10.9656	550.039	11.9006
10.96777	542.604	11.9202
10.96888	544.773	11.9397
10.9711	548.5174	11.9592
10.9719	546.449	11.97876
10.97375	540.329	11.9983
10.976	554.93	12.0178
10.9766	554.077	12.0374
10.9784	545.913	12.0569
10.9798	549.644	12.0764
10.9834	560.621	12.0959
10.9833	547.287	12.1155
10.9852	554.275	12.13501
10.987	561.614	12.1545
10.9887	554.05	12.1741
10.9903	554.1618	12.1936
10.9913	567.523	12.2131
10.9942	555.322	12.2327
10.9946	556.589	12.2522
10.9967	570.776	12.2717
10.99754	565.2937	12.29126
10.9997	554.093	12.3108
11.0014	570.357	12.3303
11.0032	568.281	12.3499
11.0041	561.204	12.3694
11.0067	571.239	12.3889
11.0087	573.128	12.4084
11.0095	561.757	12.428
11.0113	573.0061	12.44751
11.0135	579.388	12.467
11.01536	568.47	12.4866
11.0162	571.908	12.5061
11.018	579.845	12.5256
11.0204	573.351	12.5452
11.0207	571.629	12.5647
11.023	583.889	12.5842
11.0244	578.452	12.60376
11.0271	576.478	12.6233
11.0289	583.629	12.6428
11.0294	585.012	12.6624
11.0312	576.103	12.6819
11.0332	588.094	12.7014
11.0342	591.034	12.7209
11.03566	583.246	12.7405
11.0389	583.524	12.76001
11.0388	596.954	12.7795
11.0407	584.946	12.7991
11.04244	589.6958	12.8186
11.0439	597.845	12.8381
11.0448	591.391	12.8577
11.0475	586.87	12.8772
11.0487	601.754	12.8967
11.0506	594.019	12.91626
11.0517	588.865	12.9358
11.0543	603.183	12.9553
11.0558	602.523	12.9749
11.0582	589.685	12.9944
11.05888	602.066	13.0139
11.0609	605.117	13.0334
11.062	596.792	13.053
11.0636	604.519	13.07251
11.0655	609.414	13.092
11.0663	598.5647	13.1116
11.0687	603.457	13.1311
11.0706	615.33	13.1506
11.0715	604.76	13.1702
11.073	604.312	13.1897
11.0754	614.434	13.2092
11.0769	610.829	13.22876
11.0786	606.266	13.2483
11.08	615.748	13.2678
11.08059	616.097	13.2874
11.0831	611.068	13.3069
11.0846	615.717	13.3264
11.0863	623.733	13.3459
11.088	611.196	13.3655
11.0901	618.874	13.38501
11.0905	626.2392	13.4045
11.0922	619.6322	13.4241
11.0954	616.682	13.4436
11.0961	630.391	13.4631
11.0979	621.664	13.4827
11.099	621.691	13.5022
11.10135	633.171	13.5217
11.1019	627.977	13.54126
11.1046	618.605	13.5608
11.106	635.4538	13.5803
11.1074	632.38	13.5999
11.11	624.163	13.6194
11.1106	632.789	13.6389
11.112	638.333	13.6584
11.1132	624.679	13.678
11.1152	635.132	13.69751
11.1179	639.3316	13.717
11.1185	633.092	13.7366
11.1215	636.501	13.7561
11.1215	646.738	13.7756
11.1242	634.7785	13.7952
11.1252	633.62	13.8147
11.1278	646.236	13.8342
11.1296	641.302	13.85376
11.13	638.214	13.8733
11.1334	646.592	13.8928
11.1334	648.496	13.9124
11.1359	639.821	13.9319
11.1368	649.682	13.9514
11.1389	652.626	13.9709
11.1395	645.99	13.9905
11.1414	647.911	14.01001
11.1437	659.703	14.0295
11.1451	646.232	14.0491
11.1465	652.506	14.0686
11.14845	661.498	14.0881
11.1506	656.1394	14.1077
11.1509	648.502	14.1272
11.1529	664.209	14.1467
11.154	656.949	14.16626
11.1561	653.755	14.1858
11.158	666.024	14.2053
11.1597	666.754	14.2249
11.1608	652.747	14.2444
11.1633	666.277	14.2639
11.1642	668.977	14.2834
11.1668	660.4115	14.303
11.1673	665.498	14.32251
11.16951	672.267	14.342
11.1703	663.219	14.3616
11.1728	667.771	14.3811
11.1741	674.857	14.4006
11.1763	667.229	14.4202
11.1774	668.93	14.4397
11.1799	678.3	14.4592
11.1811	673.0304	14.47876
11.1825	665.665	14.4983
11.1842	678.362	14.5178
11.1857	680.273	14.5374
11.1874	672.711	14.5569
11.1884	678.245	14.5764
11.1904	681.984	14.5959
11.1926	672.966	14.6155
11.195	680.486	14.63501
11.19543	686.454	14.6545
11.1973	679.757	14.6741
11.19813	679.047	14.6936
11.2004	693.189	14.7131
11.2023	684.095	14.7327
11.2038	681.633	14.7522
11.2055	692.009	14.7717
11.2063	690.575	14.79126
11.2088	680.409	14.8108
11.21	696.356	14.8303
11.2119	693.266	14.8499
11.2137	686.897	14.8694
11.215	696.169	14.8889
11.2161	700.928	14.9084
11.2179	684.824	14.928
11.2194	697.404	14.94751
11.2222	702.078	14.967
11.2236	695.193	14.9866
11.22415	696.378	15.0061
11.2267	705.284	15.0256
11.2292	696.909	15.0452
11.2311	697.791	15.0647
11.2309	707.841	15.0842
11.2325	703.446	15.10376
11.2348	699.647	15.1233
11.2364	708.479	15.1428
11.2384	709.745	15.1624
11.2392	700.5188	15.1819
11.2413	709.473	15.2014
11.242	712.901	15.2209
11.2441	706.814	15.2405
11.2445	710.074	15.26001
11.2467	716.802	15.2795
11.2497	707.8172	15.2991
11.251	711.991	15.3186
11.2515	721.293	15.3381
11.2534	715.311	15.3577
11.2565	708.596	15.3772
11.2577	724.766	15.3967
11.259	719.19	15.41626
11.2617	713.789	15.4358
11.2623	723.73	15.4553
11.2643	725.147	15.4749
11.2653	712.961	15.4944
11.2676	726.595	15.5139
11.2689	726.996	15.5334
11.2712	719.353	15.553
11.2718	726.643	15.57251
11.2731	734.405	15.592
11.274	720.821	15.6116
11.2772	726.3858	15.6311
11.2786	733.229	15.6506
11.28	727.97	15.6702
11.2817	726.378	15.6897
11.28315	736.898	15.7092
11.2843	730.0451	15.72876
11.2865	730.205	15.7483
11.2877	738.669	15.7678
11.2902	739.296	15.7874
11.2912	730.377	15.8069
11.293	738.251	15.8264
11.29491	742.4093	15.8459
11.297	734.538	15.8655
11.2988	738.007	15.88501
11.2993	745.8	15.9045
11.3019	739.771	15.9241
11.3031	739.831	15.9436
11.3043	749.307	15.9631
11.30579	741.619	15.9827
11.3076	740.229	16.0022
11.3093	752.77	16.0217
11.3112	749.906	16.04126
11.31314	739.053	16.0608
11.3142	753.416	16.0803
11.3158	753.289	16.0999
11.3173	746.616	16.1194
11.3189	754.678	16.1389
11.3205	759.963	16.1584
11.3222	744.1568	16.178
11.3239	755.916	16.19751
11.3262	760.74	16.217
11.3273	752.72	16.2366
11.3284	754.021	16.2561
11.3302	765.3089	16.2756
11.331	754.5224	16.2952
11.3341	756.478	16.3147
11.3355	765.1427	16.3342
11.3378	761.136	16.35376
11.3389	756.8158	16.3733
11.33989	768.462	16.3928
11.3425	767.063	16.4124
11.3433	758.37	16.4319
11.3452	768.795	16.4514
11.3471	772.849	16.4709
11.3488	763.419	16.4905
11.3497	765.427	16.51001
11.3518	773.486	16.5295
11.3541	767.292	16.5491
11.3558	768.578	16.5686
11.3573	776.828	16.5881
11.3576	772.028	16.6077
11.36	768.157	16.6272
11.3603	781.084	16.6467
11.3627	776.112	16.66626
11.364	768.915	16.6858
11.3664	780.958	16.7053
11.3676	784.1366	16.7249
11.3698	770.3512	16.7444
11.3706	782.4234	16.7639
11.3729	784.834	16.7834
11.3728	776.745	16.803
11.376	782.774	16.82251
11.377	790.707	16.842
11.3793	777.574	16.8616
11.3806	784.252	16.8811
11.3828	791.948	16.9006
11.384	784.51	16.9202
11.3852	783.206	16.9397
11.3885	794.447	16.9592
11.38859	786.364	16.97876
11.3906	785.046	16.9983
11.3917	794.503	17.0178
11.3941	794.367	17.0374
11.3953	786.714	17.0569
11.3972	795.492	17.0764
11.3992	797.757	17.0959
11.39919	789.661	17.1155
11.4016	796.02	17.13501
11.404	802.655	17.1545
11.4051	796.276	17.1741
11.4073	796.159	17.1936
11.4077	805.638	17.2131
11.4108	799.172	17.2327
11.4121	796.6236	17.2522
11.41359	807.565	17.2717
11.41536	805.629	17.29126
11.4167	796.0274	17.3108
11.4181	809.24	17.3303
11.421	807.154	17.3499
11.4218	799.895	17.3694
11.4224	807.802	17.3889
11.4254	814.164	17.4084
11.4269	800.563	17.428
11.42859	808.675	17.44751
11.43	814.655	17.467
11.4314	808.504	17.4866
11.4326	809.405	17.5061
11.4343	821.95	17.5256
11.4356	809.149	17.5452
11.4373	810.55	17.5647
11.4401	820.114	17.5842
11.4411	818.0321	17.60376
11.4425	812.429	17.6233
11.4446	824.166	17.6428
11.4459	820.502	17.6624
11.4481	815.45	17.6819
11.4498	823.293	17.7014
11.451	826.592	17.7209
11.4525	817.417	17.7405
11.4537	822.9389	17.76001
11.4559	828.711	17.7795
11.4564	820.911	17.7991
11.4586	822.483	17.8186
11.46082	830.416	17.8381
11.4614	827.916	17.8577
11.4638	821.374	17.8772
11.4654	832.938	17.8967
11.4675	828.709	17.91626
11.4685	825.575	17.9358
11.4704	835.01	17.9553
11.4714	835.92	17.9749
11.4736	823.957	17.9944
11.4757	834.96	18.0139
11.4776	838.026	18.0334
11.4791	830.376	18.053
11.4802	836.237	18.07251
11.48	843.337	18.092
11.4829	830.259	18.1116
11.4842	839.071	18.1311
11.487	843.8692	18.1506
11.4887	839.0238	18.1702
11.4895	836.774	18.1897
11.4911	849.778	18.2092
11.4935	840.319	18.22876
11.495	838.342	18.2483
11.4956	846.177	18.2678
11.4983	848.888	18.2874
11.50021	840.3606	18.3069
11.5019	849.141	18.3264
11.50287	846.2868	18.3459
11.505	842.458	18.3655
11.5068	846.271	18.38501
11.5078	853.275	18.4045
11.50985	843.991	18.4241
11.5108	846.923	18.4436
11.512	853.322	18.4631
11.5145	848.505	18.4827
11.5165	845.659	18.5022
11.5176	854.3913	18.5217
11.5192	853.853	18.54126
11.5207	846.032	18.5608
11.5229	856.7337	18.5803
11.5232	854.53	18.5999
11.5258	849.547	18.6194
11.5277	857.24	18.6389
11.5285	864.678	18.6584
11.5307	848.938	18.678
11.53241	858.8642	18.69751
11.5349	863.549	18.717
11.5347	856.184	18.7366
11.5374	857.763	18.7561
11.539	866.645	18.7756
11.5414	857.538	18.7952
11.5418	859.0321	18.8147
11.5428	868.41	18.8342
11.5445	864.142	18.85376
11.54628	858.888	18.8733
11.5487	871.141	18.8928
11.5515	865.373	18.9124
11.5516	861.329	18.9319
11.5538	867.532	18.9514
11.5567	872.378	18.9709
11.5573	864.1311	18.9905
11.558	869.578	19.01001
11.5597	872.5459	19.0295
11.5619	868.01	19.0491
11.563	868.141	19.0686
11.5643	879.157	19.0881
11.5668	871.806	19.1077
11.5688	867.7381	19.1272
11.5697	877.551	19.1467
11.5712	877.774	19.16626
11.5729	869.901	19.1858
11.5749	880.428	19.2053
11.5764	881.823	19.2249
11.578	871.649	19.2444
11.5796	881.69	19.2639
11.5811	884.122	19.2834
11.5828	875.719	19.303
11.5836	878.806	19.32251
11.58455	889.379	19.342
11.5894	877.098	19.3616
11.5896	880.162	19.3811
11.5913	889.592	19.4006
11.5924	883.136	19.4202
11.5955	881.883	19.4397
11.5956	893.219	19.4592
11.5968	882.934	19.47876
11.5995	884.3288	19.4983
11.6008	890.425	19.5178
11.6023	891.536	19.5374
11.60329	882.421	19.5569
11.6049	892.313	19.5764
11.6071	891.677	19.5959
11.608	887.569	19.6155
11.60993	890.625	19.63501
11.6117	898.082	19.6545
11.6133	888.94	19.6741
11.61511	892.6806	19.6936
11.6172	899.366	19.7131
11.6183	893.82	19.7327
11.62058	889.903	19.7522
11.6221	902.293	19.7717
11.6242	898.395	19.79126
11.6249	892.2	19.8108
11.6266	899.78	19.8303
11.6274	902.865	19.8499
11.629	894.978	19.8694
11.6318	902.934	19.8889
11.6325	906.252	19.9084
11.6352	896.524	19.928
11.6364	903.232	19.94751
11.6391	910.092	19.967
11.6403	900.584	19.9866
11.6414	901.89	20.0061
11.6416	910.575	20.0159

Data Header:			0.254_solid_uprint_typei_090_r0			Time:	31.4265	s	4/15/2019 2:56:47 PM
Data Acquisition:	Timed
Station Name:	ft40.cfg
Test File Name:	monotonic_0.2540_typei_solid_090_uprint.tst
Displacement	Force	Running Time
mm	N	s
11.6435	913.791	20.0256
11.6429	908.259	20.0354
11.6442	903.666	20.0452
11.6457	900.425	20.0549
11.6457	903.595	20.0647
11.6471	910.538	20.0745
11.6476	912.189	20.0842
11.6485	913.345	20.094
11.6485	909.508	20.10376
11.6494	899.8689	20.1135
11.6515	903.362	20.1233
11.652	907.526	20.1331
11.6529	914.782	20.1428
11.6536	915.583	20.1526
11.6541	909.602	20.1624
11.6563	906.936	20.1721
11.6559	905.531	20.1819
11.6566	908.2915	20.19165
11.6581	911.757	20.2014
11.6572	916.923	20.2112
11.6589	918.78	20.2209
11.6602	910.257	20.2307
11.6614	908.63	20.2405
11.6615	908.803	20.2502
11.6624	912.395	20.26001
11.6626	920.014	20.2698
11.6637	915.964	20.2795
11.665	915.046	20.2893
11.6659	912.176	20.2991
11.6663	909.712	20.3088
11.6674	911.276	20.3186
11.6679	916.826	20.3284
11.6684	920.898	20.3381
11.6701	920.877	20.3479
11.6711	913.906	20.3577
11.6708	910.526	20.3674
11.672	912.724	20.3772
11.6734	918.743	20.387
11.6742	921.136	20.3967
11.6739	922.638	20.4065
11.6755	920.664	20.41626
11.6768	915.866	20.426
11.6768	911.433	20.4358
11.6778	914.552	20.4456
11.67879	921.404	20.4553
11.6804	928.2243	20.4651
11.68162	923.01	20.4749
11.6803	914.514	20.4846
11.6829	914.576	20.4944
11.684	917.742	20.50415
11.6841	919.98	20.5139
11.6841	928.548	20.5237
11.6846	925.966	20.5334
11.6862	923.821	20.5432
11.6872	916.861	20.553
11.6878	914.16	20.5627
11.6894	921.274	20.57251
11.6894	929.443	20.5823
11.6899	931.21	20.592
11.6912	925.844	20.6018
11.6926	917.956	20.6116
11.6931	920.273	20.6213
11.6937	921.424	20.6311
11.6942	928.858	20.6409
11.6954	930.145	20.6506
11.69651	930.27	20.6604
11.6974	925.631	20.6702
11.698	918.31	20.6799
11.6986	921.951	20.6897
11.6992	928.238	20.6995
11.7003	932.4104	20.7092
11.7006	932.031	20.719
11.7013	926.099	20.72876
11.7027	921.173	20.7385
11.7026	924.245	20.7483
11.704	929.483	20.7581
11.70584	931.172	20.7678
11.7053	935.426	20.7776
11.70689	932.002	20.7874
11.707	926.877	20.7971
11.7085	923.5354	20.8069
11.70947	926.004	20.81665
11.7096	934.818	20.8264
11.71174	936.978	20.8362
11.7119	931.194	20.8459
11.7119	930.37	20.8557
11.712	927.665	20.8655
11.7132	928.825	20.8752
11.7156	929.577	20.88501
11.715	936.77	20.8948
11.7159	939.219	20.9045
11.7181	931.843	20.9143
11.7177	930.709	20.9241
11.7187	926.795	20.9338
11.7193	932.975	20.9436
11.7205	938.3158	20.9534
11.7216	936.466	20.9631
11.7216	936.919	20.9729
11.7227	934.931	20.9827
11.7242	929.893	20.9924
11.7244	931.7276	21.0022
11.7253	934.115	21.012
11.726	941.005	21.0217
11.7269	942.496	21.0315
11.7289	937.033	21.04126
11.7288	930.854	21.051
11.7292	933.009	21.0608
11.7308	934.92	21.0706
11.7309	939.798	21.0803
11.7308	943.377	21.0901
11.7329	942.66	21.0999
11.7337	936.065	21.1096
11.7333	931.445	21.1194
11.73559	931.991	21.12915
11.73704	940.189	21.1389
11.7364	946.596	21.1487
11.7372	944.945	21.1584
11.7379	938.909	21.1682
11.7389	934.608	21.178
11.7389	936.352	21.1877
11.7409	939.163	21.19751
11.7411	946.946	21.2073
11.7422	946.299	21.217
11.743	945.233	21.2268
11.7449	936.696	21.2366
11.7446	933.689	21.2463
11.7456	938.193	21.2561
11.7456	947.276	21.2659
11.7474	950.9679	21.2756
11.749	945.559	21.2854
11.7492	938.635	21.2952
11.7499	938.6358	21.3049
11.7513	938.095	21.3147
11.7511	945.707	21.3245
11.7519	947.774	21.3342
11.7527	949.8	21.344
11.7536	946.214	21.35376
11.7549	937.088	21.3635
11.75539	939.5033	21.3733
11.7562	944.274	21.3831
11.7564	951.185	21.3928
11.7577	952.518	21.4026
11.7581	946.381	21.4124
11.7603	941.977	21.4221
11.7606	942.461	21.4319
11.7609	942.879	21.44165
11.7617	947.095	21.4514
11.7634	953.139	21.4612
11.7625	951.351	21.4709
11.7653	945.817	21.4807
11.7654	942.874	21.4905
11.7648	942.776	21.5002
11.7669	948.526	21.51001
11.7681	951.729	21.5198
11.768	952.008	21.5295
11.7685	948.646	21.5393
11.7704	947.077	21.5491
11.7701	945.569	21.5588
11.7712	943.263	21.5686
11.7717	952.0141	21.5784
11.7727	956.792	21.5881
11.77378	952.312	21.5979
11.7742	949.965	21.6077
11.7767	942.8399	21.6174
11.7756	948.449	21.6272
11.77746	950.168	21.637
11.7781	953.264	21.6467
11.779	956.781	21.6565
11.7797	952.087	21.66626
11.7804	948.965	21.676
11.7812	944.227	21.6858
11.7824	946.747	21.6956
11.7828	956.104	21.7053
11.7841	959.685	21.7151
11.7844	955.251	21.7249
11.7847	949.477	21.7346
11.78678	946.508	21.7444
11.7863	950.976	21.75415
11.7874	953.647	21.7639
11.78845	960.59	21.7737
11.7901	960.478	21.7834
11.7898	954.065	21.7932
11.7906	948.647	21.803
11.7916	944.961	21.8127
11.7932	953.08	21.82251
11.7938	961.468	21.8323
11.7954	962.604	21.842
11.7947	954.611	21.8518
11.7962	952.038	21.8616
11.7979	949.74	21.8713
11.7972	953.3855	21.8811
11.7977	959.607	21.8909
11.7998	962.806	21.9006
11.8	960.49	21.9104
11.8007	953.69	21.9202
11.8019	949.665	21.9299
11.8032	953.4754	21.9397
11.8049	958.708	21.9495
11.8052	965.366	21.9592
11.8054	960.133	21.969
11.8056	957.286	21.97876
11.8075	954.586	21.9885
11.8067	953.1416	21.9983
11.8086	958.833	22.0081
11.8092	961.498	22.0178
11.81	965.358	22.0276
11.8116	963.856	22.0374
11.8115	954.143	22.0471
11.8125	953.794	22.0569
11.8131	958.045	22.06665
11.8139	964.688	22.0764
11.8152	965.644	22.0862
11.81602	960.966	22.0959
11.81704	959.448	22.1057
11.81708	956.275	22.1155
11.8184	956.74	22.1252
11.8187	960.271	22.13501
11.8196	963.374	22.1448
11.8204	967.903	22.1545
11.8211	961.989	22.1643
11.82222	956.714	22.1741
11.823	956.989	22.1838
11.8239	960.191	22.1936
11.82503	964.821	22.2034
11.8257	965.278	22.2131
11.8263	965.48	22.2229
11.8269	963.2099	22.2327
11.828	959.516	22.2424
11.8278	958.559	22.2522
11.82982	963.45	22.262
11.8304	967.667	22.2717
11.8317	967.926	22.2815
11.8311	965.051	22.29126
11.8328	958.761	22.301
11.8331	961.351	22.3108
11.8338	962.296	22.3206
11.8356	965.824	22.3303
11.83502	970.832	22.3401
11.8373	967.887	22.3499
11.8368	964.581	22.3596
11.8373	959.488	22.3694
11.84052	960.7644	22.37915
11.83941	966.774	22.3889
11.8409	972.7674	22.3987
11.8418	970.747	22.4084
11.8425	963.6745	22.4182
11.8436	960.277	22.428
11.845	963.4845	22.4377
11.8445	964.285	22.44751
11.8455	971.4953	22.4573
11.8462	971.849	22.467
11.8466	970.54	22.4768
11.84827	963.77	22.4866
11.8492	958.788	22.4963
11.8504	964.182	22.5061
11.8508	972.654	22.5159
11.8508	974.193	22.5256
11.8532	971.781	22.5354
11.8523	964.297	22.5452
11.8538	963.337	22.5549
11.8546	963.387	22.5647
11.8557	968.7229	22.5745
11.85717	972.9032	22.5842
11.8567	974.802	22.594
11.8588	969.19	22.60376
11.859	962.38	22.6135
11.86	963.1554	22.6233
11.8593	969.075	22.6331
11.8615	974.335	22.6428
11.8619	974.09	22.6526
11.8619	970.039	22.6624
11.8634	966.32	22.6721
11.864	965.642	22.6819
11.8651	968.634	22.69165
11.8652	970.537	22.7014
11.8668	977.465	22.7112
11.8681	974.037	22.7209
11.8683	967.294	22.7307
11.8696	966.204	22.7405
11.8697	965.069	22.7502
11.8716	972.994	22.76001
11.872	975.336	22.7698
11.8734	972.738	22.7795
11.873	974.399	22.7893
11.8743	969.846	22.7991
11.8757	967.145	22.8088
11.8765	968.0921	22.8186
11.8768	974.38	22.8284
11.8775	979.386	22.8381
11.8776	973.894	22.8479
11.878	971.288	22.8577
11.8804	967.982	22.8674
11.8806	969.491	22.8772
11.8812	974.632	22.887
11.8826	974.493	22.8967
11.883	977.456	22.9065
11.8835	976.1156	22.91626
11.8846	968.974	22.926
11.8857	968.454	22.9358
11.8865	973.032	22.9456
11.8869	977.073	22.9553
11.8878	979.636	22.9651
11.88806	976.115	22.9749
11.889	970.94	22.9846
11.8901	969.713	22.9944
11.89107	969.692	23.00415
11.8924	974.517	23.0139
11.8925	980.236	23.0237
11.8937	979.019	23.0334
11.89466	977.032	23.0432
11.89522	968.127	23.053
11.8959	967.941	23.0627
11.897	974.428	23.07251
11.8971	981.39	23.0823
11.8981	981.537	23.092
11.9	974.1568	23.1018
11.9004	972.166	23.1116
11.9024	970.893	23.1213
11.9018	971.819	23.1311
11.9021	979.15	23.1409
11.90353	980.66	23.1506
11.9042	982.752	23.1604
11.9045	974.477	23.1702
11.906	967.0752	23.1799
11.9055	970.965	23.1897
11.9077	978.521	23.1995
11.9078	983.174	23.2092
11.9088	981.477	23.219
11.9106	975.495	23.22876
11.9098	973.839	23.2385
11.9116	970.438	23.2483
11.9126	975.11	23.2581
11.9128	981.986	23.2678
11.914	983.526	23.2776
11.9143	979.1615	23.2874
11.9161	972.368	23.2971
11.9156	969.8703	23.3069
11.9165	974.568	23.31665
11.9172	979.875	23.3264
11.9186	983.266	23.3362
11.92	979.548	23.3459
11.9215	975.775	23.3557
11.9208	974.349	23.3655
11.92148	974.071	23.3752
11.9234	975.021	23.38501
11.9236	983.201	23.3948
11.9236	983.937	23.4045
11.9256	979.485	23.4143
11.9261	973.98	23.4241
11.9269	972.874	23.4338
11.9275	979.352	23.4436
11.92852	982.034	23.4534
11.9298	982.379	23.4631
11.9304	982.349	23.4729
11.931	978.491	23.4827
11.9325	975.553	23.4924
11.932	974.038	23.5022
11.9334	978.05	23.512
11.9336	985.086	23.5217
11.93513	982.31	23.5315
11.9358	980.763	23.54126
11.9365	974.759	23.551
11.9386	975.038	23.5608
11.9383	979.616	23.5706
11.9394	979.624	23.5803
11.9397	985.533	23.5901
11.9413	985.055	23.5999
11.94185	976.716	23.6096
11.9428	973.4245	23.6194
11.9436	974.132	23.62915
11.9449	983.506	23.6389
11.9447	985.252	23.6487
11.946	983.896	23.6584
11.9463	980.398	23.6682
11.948	975.426	23.678
11.9486	975.583	23.6877
11.94938	979.271	23.69751
11.9497	985.155	23.7073
11.9505	988.433	23.717
11.9519	984.238	23.7268
11.9522	975.3114	23.7366
11.9535	973.286	23.7463
11.9536	977.055	23.7561
11.9551	984.341	23.7659
11.9548	986.868	23.7756
11.95583	981.727	23.7854
11.9575	978.735	23.7952
11.958	974.305	23.8049
11.9583	974.374	23.8147
11.959	982.817	23.8245
11.9608	984.616	23.8342
11.9612	987.9563	23.844
11.9626	981.078	23.85376
11.9636	973.308	23.8635
11.964	977.281	23.8733
11.9649	980.251	23.8831
11.965	986.815	23.8928
11.96625	986.26	23.9026
11.9664	981.854	23.9124
11.9684	980.415	23.9221
11.9689	974.075	23.9319
11.9696	979.2868	23.94165
11.9697	983.142	23.9514
11.9706	987.489	23.9612
11.9713	986.809	23.9709
11.97274	977.184	23.9807
11.9731	976.992	23.9905
11.9734	977.89	24.0002
11.9755	981.939	24.01001
11.9759	986.2948	24.0198
11.9756	984.991	24.0295
11.9771	980.456	24.0393
11.97771	979.794	24.0491
11.9805	975.3866	24.0588
11.98	979.015	24.0686
11.9815	984.754	24.0784
11.98128	987.044	24.0881
11.9817	983.058	24.0979
11.9832	981.368	24.1077
11.9843	977.59	24.1174
11.9855	980.33	24.1272
11.9854	980.429	24.137
11.9868	985.357	24.1467
11.9867	985.608	24.1565
11.9878	983.15	24.16626
11.9897	979.2	24.176
11.9895	974.404	24.1858
11.9907	979.067	24.1956
11.9912	986.465	24.2053
11.9923	985.851	24.2151
11.9927	986.845	24.2249
11.9932	978.109	24.2346
11.9948	977.626	24.2444
11.995	980.0022	24.25415
11.9961	980.27	24.2639
11.9977	987.536	24.2737
11.99701	987.801	24.2834
11.9977	984.047	24.2932
12	976.7475	24.303
12.0008	974.523	24.3127
12.0016	983.376	24.32251
12.0018	988.169	24.3323
12.0026	988.342	24.342
12.0036	985.835	24.3518
12.0045	978.25	24.3616
12.0045	978.591	24.3713
12.0053	976.653	24.3811
12.0071	985.577	24.3909
12.00775	990.112	24.4006
12.0089	986.82	24.4104
12.0095	980.973	24.4202
12.0109	973.663	24.4299
12.0107	977.898	24.4397
12.0122	985.556	24.4495
12.0131	987.5058	24.4592
12.0142	985.516	24.469
12.0136	982.949	24.47876
12.0152	977.814	24.4885
12.0154	976.732	24.4983
12.0166	981.724	24.5081
12.018	986.549	24.5178
12.0181	990.808	24.5276
12.0191	984.155	24.5374
12.0191	976.7	24.5471
12.0218	975.012	24.5569
12.021	981.684	24.56665
12.022	987.1	24.5764
12.0231	986.3446	24.5862
12.0232	985.876	24.5959
12.0241	983.276	24.6057
12.0257	976.826	24.6155
12.0264	979.173	24.6252
12.0274	980.354	24.63501
12.02816	987.708	24.6448
12.0289	988.882	24.6545
12.0293	981.614	24.6643
12.0302	978.268	24.6741
12.0314	978.439	24.6838
12.0323	980.894	24.6936
12.0324	984.578	24.7034
12.03359	984.978	24.7131
12.0342	986.438	24.7229
12.03517	980.83	24.7327
12.0364	976.267	24.7424
12.0364	977.126	24.7522
12.0381	982.423	24.762
12.039	988.056	24.7717
12.0395	985.588	24.7815
12.0405	980.203	24.79126
12.0404	976.51	24.801
12.0428	977.691	24.8108
12.0425	980.291	24.8206
12.0435	984.105	24.8303
12.0443	985.381	24.8401
12.0443	986.433	24.8499
12.046	981.094	24.8596
12.0463	973.665	24.8694
12.0473	976.294	24.87915
12.04857	983.962	24.8889
12.0485	985.779	24.8987
12.0493	987.88	24.9084
12.0503	979.617	24.9182
12.0514	978.273	24.928
12.0533	976.076	24.9377
12.0532	979.375	24.94751
12.0543	986.073	24.9573
12.0548	986.903	24.967
12.0559	985.915	24.9768
12.0567	977.069	24.9866
12.0569	973.497	24.9963
12.0578	979.83	25.0061
12.0588	985.27	25.0159
12.0596	988.242	25.0256
12.0602	985.058	25.0354
12.0616	978.893	25.0452
12.0617	977.021	25.0549
12.0632	974.257	25.0647
12.0637	982.555	25.0745
12.06405	987.481	25.0842
12.06565	987.052	25.094
12.0672	981.022	25.10376
12.0676	974.391	25.1135
12.0665	976.322	25.1233
12.0687	980.727	25.1331
12.0688	985.4389	25.1428
12.0702	986.91	25.1526
12.07091	982.814	25.1624
12.0722	979.529	25.1721
12.0725	974.682	25.1819
12.0724	978.378	25.19165
12.075	982.388	25.2014
12.0758	989.375	25.2112
12.0752	984.373	25.2209
12.0774	978.498	25.2307
12.077	975.267	25.2405
12.0774	976.63	25.2502
12.0778	982.674	25.26001
12.0795	983.038	25.2698
12.0817	985.716	25.2795
12.0816	981.747	25.2893
12.0832	976.043	25.2991
12.084	977.914	25.3088
12.0843	976.386	25.3186
12.0862	984.414	25.3284
12.0854	986.373	25.3381
12.0867	980.112	25.3479
12.08701	978.24	25.3577
12.0869	974.176	25.3674
12.0893	976.535	25.3772
12.0895	979.97	25.387
12.0913	982.203	25.3967
12.0914	985.377	25.4065
12.0922	981.138	25.41626
12.0933	976.024	25.426
12.0939	973.933	25.4358
12.0942	978.26	25.4456
12.096	984.416	25.4553
12.0965	983.462	25.4651
12.0976	982.915	25.4749
12.0986	977.803	25.4846
12.09819	975.935	25.4944
12.0987	978.142	25.50415
12.1001	978.659	25.5139
12.1015	981.3	25.5237
12.1019	986.74	25.5334
12.1028	980.11	25.5432
12.10365	973.565	25.553
12.1048	974.674	25.5627
12.1057	980.0249	25.57251
12.10704	984.884	25.5823
12.1067	984.974	25.592
12.1072	980.954	25.6018
12.1088	977.202	25.6116
12.1092	973.221	25.6213
12.1104	975.0899	25.6311
12.1103	981.098	25.6409
12.1116	985.518	25.6506
12.1141	984.163	25.6604
12.1133	974.396	25.6702
12.1139	971.9826	25.6799
12.1164	974.468	25.6897
12.1154	980.259	25.6995
12.1167	987.159	25.7092
12.118	983.137	25.719
12.1184	981.063	25.72876
12.1192	975.2373	25.7385
12.1197	970.3288	25.7483
12.1201	977.899	25.7581
12.1232	982.97	25.7678
12.122	987.057	25.7776
12.1244	982.762	25.7874
12.1235	972.162	25.7971
12.1244	972.203	25.8069
12.1248	976.846	25.81665
12.1262	981.986	25.8264
12.1272	983.973	25.8362
12.128	980.733	25.8459
12.1286	978.211	25.8557
12.1302	972.002	25.8655
12.13026	973.62	25.8752
12.1313	978.2193	25.88501
12.1318	983.584	25.8948
12.133	985.01	25.9045
12.1339	977.842	25.9143
12.1343	973.2	25.9241
12.13533	974.642	25.9338
12.1359	976.875	25.9436
12.1367	979.927	25.9534
12.13752	981.998	25.9631
12.1395	981.654	25.9729
12.1394	975.407	25.9827
12.1404	973.405	25.9924
12.1421	972.175	26.0022
12.14187	980.97	26.012
12.1413	983.609	26.0217
12.1433	981.104	26.0315
12.1449	977.047	26.04126
12.1451	972.7641	26.051
12.145	974.082	26.0608
12.1471	975.674	26.0706
12.1481	978.592	26.0803
12.1489	982.784	26.0901
12.1497	980.389	26.0999
12.1499	975.587	26.1096
12.1508	969.297	26.1194
12.15077	972.341	26.12915
12.1523	980.326	26.1389
12.1532	980.306	26.1487
12.1535	982.5166	26.1584
12.1546	976.781	26.1682
12.1562	972.847	26.178
12.1571	971.414	26.1877
12.15771	972.517	26.19751
12.1586	981.2041	26.2073
12.1604	982.655	26.217
12.1583	977.882	26.2268
12.1602	973.3623	26.2366
12.1615	969.481	26.2463
12.1619	974.23	26.2561
12.163	980.479	26.2659
12.1641	981.9856	26.2756
12.1647	979.012	26.2854
12.1648	974.687	26.2952
12.1669	969.634	26.3049
12.1681	970.594	26.3147
12.1677	974.267	26.3245
12.1691	982.315	26.3342
12.1698	982.852	26.344
12.1711	974.699	26.35376
12.1704	970.379	26.3635
12.1723	970.369	26.3733
12.1721	974.8938	26.3831
12.1735	979.876	26.3928
12.1745	980.091	26.4026
12.1746	978.128	26.4124
12.1767	972.437	26.4221
12.1768	967.652	26.4319
12.17852	973.052	26.44165
12.1782	976.303	26.4514
12.1791	981.945	26.4612
12.1803	980.843	26.4709
12.1803	971.049	26.4807
12.1817	969.665	26.4905
12.1827	969.94	26.5002
12.184	975.767	26.51001
12.1846	978.639	26.5198
12.1856	978.554	26.5295
12.1875	977.443	26.5393
12.1874	969.256	26.5491
12.1877	970.109	26.5588
12.189	972.762	26.5686
12.1893	977.061	26.5784
12.1901	981.25	26.5881
12.191	974.699	26.5979
12.1914	971.376	26.6077
12.1928	970.202	26.6174
12.1932	971.066	26.6272
12.1942	974.883	26.637
12.1951	978.377	26.6467
12.1959	977.793	26.6565
12.1959	975.862	26.66626
12.1972	969.594	26.676
12.1977	967.046	26.6858
12.19883	974.276	26.6956
12.1997	976.9317	26.7053
12.2003	978.463	26.7151
12.20128	975.693	26.7249
12.201	971.77	26.7346
12.203	971.685	26.7444
12.2039	968.732	26.75415
12.2036	973.6	26.7639
12.2062	977.755	26.7737
12.2057	979.43	26.7834
12.2073	973.548	26.7932
12.20716	965.207	26.803
12.209	967.387	26.8127
12.2108	973.291	26.82251
12.21	974.8064	26.8323
12.211	980.681	26.842
12.2115	974.456	26.8518
12.21292	970.137	26.8616
12.21426	968.004	26.8713
12.2149	966.856	26.8811
12.2153	975.827	26.8909
12.215	977.645	26.9006
12.2163	977.707	26.9104
12.2176	968.815	26.9202
12.2182	963.6936	26.9299
12.218	968.247	26.9397
12.2202	973.028	26.9495
12.2208	979.087	26.9592
12.2214	975.779	26.969
12.223	973.011	26.97876
12.2228	966.97	26.9885
12.2235	962.059	26.9983
12.2253	969.267	27.0081
12.2259	977.533	27.0178
12.2273	979.179	27.0276
12.2276	974.365	27.0374
12.2287	966.012	27.0471
12.22878	964.835	27.0569
12.2301	969.864	27.06665
12.2307	973.381	27.0764
12.2319	974.792	27.0862
12.2323	975.108	27.0959
12.2335	970.681	27.1057
12.2342	963.852	27.1155
12.2347	967.641	27.1252
12.2348	969.763	27.13501
12.2354	977.913	27.1448
12.2371	975.765	27.1545
12.2382	968.463	27.1643
12.23864	965.956	27.1741
12.2388	965.107	27.1838
12.2406	969.021	27.1936
12.2414	972.373	27.2034
12.2412	974.766	27.2131
12.2439	976.07	27.2229
12.244	967.6488	27.2327
12.2441	964.934	27.2424
12.2452	964.056	27.2522
12.2457	972.956	27.262
12.2473	974.395	27.2717
12.2469	971.067	27.2815
12.2499	969.309	27.29126
12.2498	965.144	27.301
12.2501	964.498	27.3108
12.2513	966.718	27.3206
12.2521	970.79	27.3303
12.2542	975.503	27.3401
12.253	972.434	27.3499
12.2549	966.133	27.3596
12.2547	962.456	27.3694
12.257	966.26	27.37915
12.256	971.656	27.3889
12.2581	971.736	27.3987
12.2583	972.788	27.4084
12.2598	968.593	27.4182
12.261	965.075	27.428
12.2611	961.969	27.4377
12.2609	965.824	27.44751
12.2623	970.511	27.4573
12.2636	977.444	27.467
12.2634	969.595	27.4768
12.2646	961.223	27.4866
12.266	961.3988	27.4963
12.2667	966.057	27.5061
12.2664	970.175	27.5159
12.2688	975.435	27.5256
12.2687	968.67	27.5354
12.26967	968.167	27.5452
12.26991	963.052	27.5549
12.2719	961.155	27.5647
12.2723	969.264	27.5745
12.2728	972.657	27.5842
12.2736	974.948	27.594
12.2746	967.608	27.60376
12.2755	960.4267	27.6135
12.2764	963.903	27.6233
12.2768	965.679	27.6331
12.2781	972.626	27.6428
12.278	971.967	27.6526
12.27965	969.2373	27.6624
12.2807	965.705	27.6721
12.2813	958.125	27.6819
12.28239	963.595	27.69165
12.2826	970.572	27.7014
12.284	973.616	27.7112
12.2843	970.036	27.7209
12.2858	963.371	27.7307
12.2852	959.793	27.7405
12.2858	963.2558	27.7502
12.2885	966.2536	27.76001
12.2883	970.856	27.7698
12.2897	970.814	27.7795
12.2891	967.337	27.7893
12.29104	960.506	27.7991
12.29245	959.692	27.8088
12.2929	963.877	27.8186
12.2925	970.781	27.8284
12.2936	971.195	27.8381
12.29562	966.509	27.8479
12.296	963.025	27.8577
12.2972	960.793	27.8674
12.29677	964.852	27.8772
12.2989	963.321	27.887
12.2985	968.94	27.8967
12.2999	970.679	27.9065
12.3013	964.2066	27.91626
12.2997	961.719	27.926
12.3018	959.586	27.9358
12.3031	964.951	27.9456
12.304	968.759	27.9553
12.3052	969.257	27.9651
12.3056	969.169	27.9749
12.3058	961.801	27.9846
12.3074	960.793	27.9944
12.3076	961.193	28.00415
12.3088	964.23	28.0139
12.309	970.866	28.0237
12.3099	969.738	28.0334
12.3114	964.093	28.0432
12.31146	959.011	28.053
12.3133	957.794	28.0627
12.3139	966.046	28.07251
12.3137	967.489	28.0823
12.3157	970.1145	28.092
12.3163	966.1073	28.1018
12.3166	961.334	28.1116
12.3174	957.7666	28.1213
12.318	959.451	28.1311
12.3197	965.734	28.1409
12.32055	972.074	28.1506
12.3207	967.88	28.1604
12.3224	960.497	28.1702
12.3224	957.32	28.1799
12.3224	959.885	28.1897
12.3247	964.679	28.1995
12.32615	968.7962	28.2092
12.32493	966.738	28.219
12.3264	966.0304	28.22876
12.3278	959.401	28.2385
12.3274	955.422	28.2483
12.3286	961.8371	28.2581
12.3299	967.204	28.2678
12.3311	970.469	28.2776
12.3318	963.153	28.2874
12.332	958.392	28.2971
12.3326	957.132	28.3069
12.3343	958.07	28.31665
12.3342	965.587	28.3264
12.3359	966.841	28.3362
12.3369	967.533	28.3459
12.3366	963.137	28.3557
12.3383	954.803	28.3655
12.3389	957.841	28.3752
12.33982	961.967	28.38501
12.3406	968.036	28.3948
12.3406	967.149	28.4045
12.3423	961.524	28.4143
12.3436	957.328	28.4241
12.3444	958.234	28.4338
12.3442	961.252	28.4436
12.3457	964.016	28.4534
12.3462	965.035	28.4631
12.3478	965.088	28.4729
12.3474	957.842	28.4827
12.3482	955.626	28.4924
12.3488	958.104	28.5022
12.3504	962.955	28.512
12.3514	964.124	28.5217
12.3526	964.051	28.5315
12.3532	959.253	28.54126
12.35231	957.678	28.551
12.3543	955.7818	28.5608
12.3553	958.7821	28.5706
12.35592	963.137	28.5803
12.3584	965.094	28.5901
12.3568	963.925	28.5999
12.359	958.954	28.6096
12.3596	953.683	28.6194
12.3604	958.09	28.62915
12.3601	961.543	28.6389
12.362	963.044	28.6487
12.362	963.054	28.6584
12.363	959.8855	28.6682
12.36381	956.689	28.678
12.3654	953.303	28.6877
12.3651	956.6	28.69751
12.3669	964.653	28.7073
12.3668	966.413	28.717
12.3679	962.61	28.7268
12.3689	953.651	28.7366
12.3694	954.881	28.7463
12.3706	957.6	28.7561
12.3715	959.287	28.7659
12.3725	965.329	28.7756
12.3734	962.339	28.7854
12.3736	958.9729	28.7952
12.3747	953.945	28.8049
12.3761	951.086	28.8147
12.3758	958.242	28.8245
12.378	965.636	28.8342
12.3783	964.473	28.844
12.3784	957.058	28.85376
12.3799	950.331	28.8635
12.3809	954.4884	28.8733
12.3811	957.6217	28.8831
12.3824	961.973	28.8928
12.3821	962.551	28.9026
12.3838	959.769	28.9124
12.3844	953.799	28.9221
12.3855	949.7	28.9319
12.3862	951.416	28.94165
12.3862	961.5097	28.9514
12.3879	963.952	28.9612
12.3885	959.36	28.9709
12.3894	954.392	28.9807
12.3895	950.069	28.9905
12.39	952.485	29.0002
12.3918	956.4339	29.01001
12.3922	957.952	29.0198
12.3936	962.313	29.0295
12.3937	957.408	29.0393
12.3957	949.357	29.0491
12.39547	953.051	29.0588
12.3958	952.242	29.0686
12.3972	960.044	29.0784
12.398	959.852	29.0881
12.39941	954.167	29.0979
12.4	951.799	29.1077
12.4007	947.5014	29.1174
12.4109	-8.80809	29.1272
12.4086	-41.728	29.137
12.4093	-30.2158	29.1467
12.4079	-28.9794	29.1565
12.4089	-50.6158	29.16626
12.4097	-43.8669	29.176
12.4092	-49.1517	29.1858
12.4096	-39.5966	29.1956
12.4101	-38.343	29.2053
12.4121	-39.5455	29.2151
12.4115	-42.08	29.2249
12.4117	-43.1218	29.2346
12.4125	-46.24332	29.2444
12.4133	-46.1115	29.25415
12.414	-42.2839	29.2639
12.4148	-36.9243	29.2737
12.4148	-35.6726	29.2834
12.4168	-43.3121	29.2932
12.4176	-47.1935	29.303
12.418	-45.1772	29.3127
12.4193	-43.2755	29.32251
12.4196	-38.8617	29.3323
12.42017	-36.4238	29.342
12.42051	-39.9459	29.3518
12.4218	-43.6664	29.3616
12.4223	-48.9037	29.3713
12.4237	-47.5325	29.3811
12.4238	-40.4191	29.3909
12.4258	-37.057	29.4006
12.4259	-38.2533	29.4104
12.426	-46.23103	29.4202
12.4277	-48.5044	29.4299
12.42647	-46.4932	29.4397
12.4287	-41.7626	29.4495
12.4293	-36.60931	29.4592
12.4307	-38.7593	29.469
12.4324	-40.1485	29.47876
12.4331	-45.6948	29.4885
12.4336	-50.7807	29.4983
12.4337	-43.4354	29.5081
12.4341	-36.5293	29.5178
12.4347	-35.8969	29.5276
12.4362	-39.7464	29.5374
12.4375	-48.6189	29.5471
12.4377	-46.9036	29.5569
12.43796	-43.98254	29.56665
12.4401	-40.8775	29.5764
12.4403	-36.8022	29.5862
12.4408	-36.7379	29.5959
12.4419	-44.3783	29.6057
12.4427	-49.6339	29.6155
12.4442	-47.9944	29.6252
12.444	-40.7777	29.63501
12.4448	-36.392	29.6448
12.4452	-38.3162	29.6545
12.44608	-43.2258	29.6643
12.4476	-46.04509	29.6741
12.4485	-45.1608	29.6838
12.4495	-42.5712	29.6936
12.4508	-40.3582	29.7034
12.4504	-37.043	29.7131
12.45112	-37.5453	29.7229
12.4525	-45.689	29.7327
12.45356	-47.1963	29.7424
12.4539	-46.2305	29.7522
12.455	-37.39764	29.762
12.4553	-38.4619	29.7717
12.4566	-41.394	29.7815
12.4577	-42.1084	29.79126
12.4573	-45.0598	29.801
12.459	-44.2001	29.8108
12.46	-45.2542	29.8206
12.4609	-40.5169	29.8303
12.4621	-35.3137	29.8401
12.4636	-41.85479	29.8499
12.4623	-42.5407	29.8596
12.46323	-48.0894	29.8694
12.4644	-44.2043	29.87915
12.4659	-38.4866	29.8889
12.4659	-39.5341	29.8987
12.4669	-37.9892	29.9084
12.4668	-40.7816	29.9182
12.4691	-45.568	29.928
12.4702	-45.8521	29.9377
12.4702	-43.7746	29.94751
12.4712	-37.2702	29.9573
12.4718	-35.5645	29.967
12.4726	-40.9975	29.9768
12.47342	-44.6796	29.9866
12.4743	-46.6651	29.9963
12.47543	-44.1583	30.0061
12.4755	-41.8931	30.0159
12.4757	-37.6517	30.0256
12.4779	-37.3392	30.0354
12.4784	-41.2426	30.0452
12.4796	-48.1567	30.0549
12.4808	-46.6406	30.0647
12.4808	-42.3466	30.0745
12.48107	-35.5888	30.0842
12.4826	-35.5239	30.094
12.4824	-43.811	30.10376
12.4838	-46.167	30.1135
12.4855	-46.5783	30.1233
12.4855	-44.237	30.1331
12.4854	-37.3305	30.1428
12.48665	-36.2065	30.1526
12.4881	-36.3104	30.1624
12.4899	-44.33194	30.1721
12.4903	-49.366	30.1819
12.4903	-46.10519	30.19165
12.49233	-38.4404	30.2014
12.4919	-33.7323	30.2112
12.4925	-37.4705	30.2209
12.494	-45.5716	30.2307
12.49395	-45.7694	30.2405
12.4954	-47.9397	30.2502
12.4964	-42.1252	30.26001
12.4986	-37.7577	30.2698
12.49803	-37.8052	30.2795
12.4988	-39.5293	30.2893
12.5006	-47.8621	30.2991
12.5004	-47.8235	30.3088
12.50072	-41.9439	30.3186
12.5019	-36.1829	30.3284
12.5027	-36.4746	30.3381
12.5036	-39.983	30.3479
12.505	-43.2199	30.3577
12.5059	-44.2714	30.3674
12.50593	-45.4844	30.3772
12.5065	-42.5397	30.387
12.507	-37.5436	30.3967
12.508	-35.7051	30.4065
12.5095	-42.8202	30.41626
12.5108	-46.3465	30.426
12.5111	-46.0752	30.4358
12.5119	-39.9329	30.4456
12.5131	-39.5784	30.4553
12.5135	-38.01001	30.4651
12.5145	-41.0542	30.4749
12.5157	-42.1453	30.4846
12.5163	-44.2913	30.4944
12.5166	-46.5799	30.50415
12.5178	-42.135	30.5139
12.51797	-36.47459	30.5237
12.5195	-38.8904	30.5334
12.5196	-41.4669	30.5432
12.5219	-47.2645	30.553
12.5214	-45.3331	30.5627
12.5227	-42.1755	30.57251
12.5229	-39.7345	30.5823
12.5249	-37.1223	30.592
12.5245	-39.4235	30.6018
12.5257	-44.609	30.6116
12.526	-47.7507	30.6213
12.5274	-46.3865	30.6311
12.5291	-38.1953	30.6409
12.5286	-36.0803	30.6506
12.529	-37.8383	30.6604
12.5312	-43.7084	30.6702
12.5313	-47.1023	30.6799
12.5333	-44.9672	30.6897
12.53288	-42.0822	30.6995
12.5337	-38.7566	30.7092
12.5341	-34.7111	30.719
12.5357	-40.2818	30.72876
12.5357	-47.9204	30.7385
12.5376	-49.4512	30.7483
12.5378	-43.7453	30.7581
12.5385	-35.8002	30.7678
12.5396	-36.0505	30.7776
12.53968	-40.7843	30.7874
12.5407	-45.0962	30.7971
12.54218	-47.8889	30.8069
12.5432	-45.5022	30.81665
12.544	-39.9384	30.8264
12.5444	-37.6735	30.8362
12.5454	-35.0129	30.8459
12.5455	-42.7368	30.8557
12.5466	-49.6948	30.8655
12.5479	-47.5273	30.8752
12.5478	-41.3287	30.88501
12.5489	-36.2367	30.8948
12.5496	-38.9813	30.9045
12.551	-41.56649	30.9143
12.5508	-45.0046	30.9241
12.5534	-46.9141	30.9338
12.5535	-41.524	30.9436
12.554	-41.3183	30.9534
12.55467	-36.3075	30.9631
12.5556	-36.63195	30.9729
12.5575	-47.3566	30.9827
12.5571	-46.18261	30.9924
12.5588	-44.6975	31.0022
12.559	-41.19553	31.012
12.5603	-37.5645	31.0217
12.5608	-39.81	31.0315
12.5616	-42.1158	31.04126
12.5626	-44.2096	31.051
12.5627	-45.4727	31.0608
12.564	-44.2089	31.0706
12.565	-39.5152	31.0803
12.565	-36.769	31.0901
12.5673	-40.8584	31.0999
12.5676	-45.6272	31.1096
12.5685	-46.1763	31.1194
12.5675	-43.3429	31.12915
12.5692	-42.0622	31.1389
12.571	-39.398	31.1487
12.5708	-40.4391	31.1584
12.5724	-41.558	31.1682
12.5728	-45.6235	31.178
12.573	-49.0105	31.1877
12.5747	-41.4702	31.19751
12.574	-37.691	31.2073
12.5755	-36.6348	31.217
12.57613	-40.3525	31.2268
12.5782	-48.4409	31.2366
12.5778	-45.402	31.2463
12.5795	-46.1278	31.2561
12.5801	-43.21278	31.2659
12.5807	-37.04208	31.2756
12.5812	-37.7536	31.2854
12.58236	-41.8206	31.2952
12.5829	-48.7833	31.3049
12.5834	-49.5633	31.3147
12.585	-42.8513	31.3245
12.5861	-35.9875	31.3342
12.5869	-38.08	31.344
12.5884	-42.498	31.35376
12.5888	-46.55677	31.3635
12.58875	-45.9436	31.3733
12.5899	-45.8886	31.3831
12.5908	-38.6491	31.3928
12.5915	-36.1714	31.4026
12.5914	-38.5822	31.4124
12.5934	-44.5629	31.4221