File: data/processed_data_files/tensile/0.254_hd_dimension_typeiv_090_r(4).dat
MTS793|BTW|ENU|1|2|.|/|:|1|0|0|A

Data Header:			0.254_hd_dimension_typeiv_090_r0			Time:	20.0271	s	4/14/2019 12:31:20 AM
Data Acquisition:	Timed
Station Name:	ft40.cfg
Test File Name:	monotonic_0.2540_typeiv_hd_090_dimension.tst
Displacement	Force	Running Time
mm	N	s
-40.0397	-19.6036	0.0305176
-40.0414	-20.3699	0.0500488
-40.0414	-24.1745	0.0695801
-40.0403	-25.3425	0.0891113
-40.0392	-18.9558	0.108643
-40.0377	-21.62595	0.128174
-40.0365	-22.76836	0.147705
-40.0349	-16.2353	0.167236
-40.0336	-18.3699	0.186768
-40.03199	-21.0482	0.206299
-40.0291	-12.2415	0.22583
-40.0286	-13.58341	0.245361
-40.0264	-18.15799	0.264893
-40.0245	-9.58089	0.284424
-40.0221	-10.9265	0.303955
-40.0224	-13.2758	0.323486
-40.0198	-11.9469	0.343018
-40.0183	-6.9374	0.362549
-40.0176	-9.42419	0.38208
-40.0155	-5.74918	0.401611
-40.015	-5.92948	0.421143
-40.01162	-4.55312	0.440674
-40.0102	-6.7205	0.460205
-40.0085	0.346351	0.479736
-40.0065	-1.31606	0.499268
-40.0055	-3.77109	0.518799
-40.00243	0.965948	0.53833
-40.0029	3.88856	0.557861
-40.0004	-2.26555	0.577393
-39.99868	3.84958	0.596924
-39.9977	6.80871	0.616455
-39.996	4.44206	0.635986
-39.9941	3.57927	0.655518
-39.993	9.22201	0.675049
-39.9915	4.14508	0.69458
-39.9888	5.05486	0.714111
-39.9876	12.8376	0.733643
-39.9867	8.32414	0.753174
-39.9843	6.08594	0.772705
-39.9833	14.4351	0.792236
-39.9809	13.5413	0.811768
-39.98003	11.2529	0.831299
-39.97739	18.40081	0.85083
-39.9766	15.4363	0.870361
-39.9741	14.5335	0.889893
-39.9731	19.0512	0.909424
-39.9712	20.6487	0.928955
-39.9704	16.6515	0.948486
-39.9683	23.2013	0.968018
-39.9661	23.799	0.987549
-39.9649	24.5541	1.00708
-39.9628	20.5873	1.02661
-39.961	29.2724	1.04614
-39.9601	26.5763	1.06567
-39.9577	26.74987	1.08521
-39.9579	28.1865	1.10474
-39.956	31.5834	1.12427
-39.9539	24.1868	1.1438
-39.9525	33.5244	1.16333
-39.9498	34.5397	1.18286
-39.9479	31.1737	1.20239
-39.9459	30.8842	1.22192
-39.9459	40.9579	1.24146
-39.9443	32.2906	1.26099
-39.9431	35.0552	1.28052
-39.9399	41.0208	1.30005
-39.9395	39.2465	1.31958
-39.9371	38.1006	1.33911
-39.9361	43.7013	1.35864
-39.9339	39.7821	1.37817
-39.9323	39.2309	1.39771
-39.9309	47.6381	1.41724
-39.9291	44.3992	1.43677
-39.9267	41.7693	1.4563
-39.9263	47.62	1.47583
-39.9245	49.6248	1.49536
-39.9232	45.4535	1.51489
-39.9217	51.6096	1.53442
-39.9196	50.5918	1.55396
-39.9178	50.0657	1.57349
-39.9159	51.192	1.59302
-39.9141	57.1038	1.61255
-39.9136	50.5905	1.63208
-39.9118	56.4784	1.65161
-39.9093	58.2677	1.67114
-39.9074	59.5385	1.69067
-39.9059	55.1505	1.71021
-39.904	61.8923	1.72974
-39.9029	62.9939	1.74927
-39.9013	60.8553	1.7688
-39.8999	61.1308	1.78833
-39.8991	66.20639	1.80786
-39.8971	60.3616	1.82739
-39.8949	66.3849	1.84692
-39.89362	68.4021	1.86646
-39.8919	64.1738	1.88599
-39.8905	65.9353	1.90552
-39.8886	73.52964	1.92505
-39.8859	67.9298	1.94458
-39.8856	68.1142	1.96411
-39.8842	75.0661	1.98364
-39.8818	71.1106	2.00317
-39.8795	70.5476	2.02271
-39.8778	76.5772	2.04224
-39.8771	75.9226	2.06177
-39.876	73.0038	2.0813
-39.8743	82.8738	2.10083
-39.8728	80.0592	2.12036
-39.8706	75.8144	2.13989
-39.8689	79.8998	2.15942
-39.8679	84.6636	2.17896
-39.8664	80.8951	2.19849
-39.8642	84.9822	2.21802
-39.8635	85.3021	2.23755
-39.8607	85.84568	2.25708
-39.8582	83.1272	2.27661
-39.8578	89.5229	2.29614
-39.8562	86.5168	2.31567
-39.8548	88.6707	2.33521
-39.85289	91.3414	2.35474
-39.8517	93.2828	2.37427
-39.8496	86.57415	2.3938
-39.8474	95.4575	2.41333
-39.846	95.9853	2.43286
-39.8447	93.125	2.45239
-39.8435	93.3253	2.47192
-39.842	99.549	2.49146
-39.84	93.6397	2.51099
-39.83844	97.1384	2.53052
-39.8373	103.418	2.55005
-39.8351	96.859	2.56958
-39.833	97.3937	2.58911
-39.8314	106.788	2.60864
-39.82975	102.616	2.62817
-39.8296	99.944	2.64771
-39.8277	108.619	2.66724
-39.8248	105.458	2.68677
-39.8235	103.565	2.7063
-39.822	108.636	2.72583
-39.8207	108.653	2.74536
-39.8194	105.966	2.76489
-39.8165	113.8	2.78442
-39.8154	113.067	2.80396
-39.8137	110.378	2.82349
-39.8114	110.408	2.84302
-39.8103	117.076	2.86255
-39.80788	114.032	2.88208
-39.8075	114.336	2.90161
-39.8051	116.084	2.92114
-39.8029	118.598	2.94067
-39.8032	116.136	2.96021
-39.79966	122.802	2.97974
-39.7985	123.1105	2.99927
-39.7981	119.09	3.0188
-39.7968	122.211	3.03833
-39.7945	125.614	3.05786
-39.791	120.034	3.07739
-39.7907	122.685	3.09692
-39.789	131.175	3.11646
-39.788	124.924	3.13599
-39.7861	125.883	3.15552
-39.7844	133.123	3.17505
-39.7834	127.043	3.19458
-39.7811	127.822	3.21411
-39.7793	135.845	3.23364
-39.7782	129.401	3.25317
-39.7761	131.461	3.27271
-39.7751	137.178	3.29224
-39.7739	135.917	3.31177
-39.7714	132.983	3.3313
-39.7704	139.531	3.35083
-39.7688	136.805	3.37036
-39.7663	138.645	3.38989
-39.7656	139.835	3.40942
-39.76458	141.914	3.42896
-39.7619	138.798	3.44849
-39.7612	144.528	3.46802
-39.7564	146.161	3.48755
-39.7554	143.717	3.50708
-39.7556	141.735	3.52661
-39.7531	149.944	3.54614
-39.7516	147.196	3.56567
-39.7508	146.363	3.58521
-39.74773	149.588	3.60474
-39.7477	151.648	3.62427
-39.745	147.85	3.6438
-39.7429	154.418	3.66333
-39.7422	153.948	3.68286
-39.74123	148.635	3.70239
-39.7389	152.948	3.72192
-39.7379	160.1842	3.74146
-39.7363	153.795	3.76099
-39.7342	155.403	3.78052
-39.7321	162.482	3.80005
-39.7303	157.301	3.81958
-39.7296	158.787	3.83911
-39.72797	164.217	3.85864
-39.7263	161.459	3.87817
-39.7245	159.731	3.89771
-39.7222	169.963	3.91724
-39.7213	162.61	3.93677
-39.719	164.663	3.9563
-39.7171	168.487	3.97583
-39.7157	170.993	3.99536
-39.7149	166.12	4.01489
-39.7135	172.405	4.03442
-39.7111	170.0587	4.05396
-39.7095	171.373	4.07349
-39.7077	171.3031	4.09302
-39.7065	176.477	4.11255
-39.70578	174.078	4.13208
-39.7033	174.565	4.15161
-39.7027	178.178	4.17114
-39.6993	176.7883	4.19067
-39.698	175.206	4.21021
-39.6969	180.939	4.22974
-39.694	183.1178	4.24927
-39.6938	177.749	4.2688
-39.6913	179.961	4.28833
-39.6907	184.773	4.30786
-39.68924	180.13	4.32739
-39.6865	185.425	4.34692
-39.6852	188.821	4.36646
-39.6831	181.937	4.38599
-39.6816	185.243	4.40552
-39.68	191.097	4.42505
-39.6785	187.62	4.44458
-39.6765	185.948	4.46411
-39.6758	196.188	4.48364
-39.6742	189.446	4.50317
-39.6717	190.8073	4.52271
-39.67038	194.481	4.54224
-39.66856	194.091	4.56177
-39.66721	192.369	4.5813
-39.6657	200.663	4.60083
-39.6644	195.019	4.62036
-39.6615	194.77	4.63989
-39.6611	198.658	4.65942
-39.6603	202.459	4.67896
-39.657	198.136	4.69849
-39.6561	200.391	4.71802
-39.6561	202.846	4.73755
-39.6535	201.659	4.75708
-39.6516	202.324	4.77661
-39.6501	207.63	4.79614
-39.6481	205.932	4.81567
-39.6465	204.766	4.83521
-39.64526	209.86	4.85474
-39.6434	209.429	4.87427
-39.6405	204.712	4.8938
-39.64	211.671	4.91333
-39.639	215.728	4.93286
-39.6366	207.459	4.95239
-39.6354	211.309	4.97192
-39.6336	215.091	4.99146
-39.6313	213.2327	5.01099
-39.6297	214.856	5.03052
-39.6281	220.914	5.05005
-39.6259	213.2057	5.06958
-39.6245	218.255	5.08911
-39.6235	222.242	5.10864
-39.6224	220.834	5.12817
-39.6204	218.216	5.14771
-39.6192	227.02	5.16724
-39.6178	220.7	5.18677
-39.6146	223.748	5.2063
-39.6132	223.687	5.22583
-39.61237	226.836	5.24536
-39.6113	224.435	5.26489
-39.6087	230.847	5.28442
-39.6081	228.459	5.30396
-39.6052	226.362	5.32349
-39.604	229.058	5.34302
-39.6028	234.977	5.36255
-39.6011	231.09	5.38208
-39.5988	230.649	5.40161
-39.5978	234.242	5.42114
-39.5956	235.707	5.44067
-39.5939	232.125	5.46021
-39.5923	236.747	5.47974
-39.5917	238.331	5.49927
-39.5895	236.673	5.5188
-39.5878	240.974	5.53833
-39.5864	241.91	5.55786
-39.5841	237.446	5.57739
-39.5834	239.1387	5.59692
-39.5819	247.109	5.61646
-39.5796	239.711	5.63599
-39.5775	243.861	5.65552
-39.5763	247.249	5.67505
-39.5748	244.1647	5.69458
-39.5727	245.211	5.71411
-39.5708	252.866	5.73364
-39.5694	245.484	5.75317
-39.5678	248.886	5.77271
-39.5664	250.795	5.79224
-39.5642	251.7587	5.81177
-39.5643	248.845	5.8313
-39.5619	256.062	5.85083
-39.5591	252.259	5.87036
-39.5578	253.0399	5.88989
-39.5572	254.237	5.90942
-39.5552	259.021	5.92896
-39.553	254.552	5.94849
-39.5514	259.656	5.96802
-39.55138	259.474	5.98755
-39.5486	258.2	6.00708
-39.5472	256.985	6.02661
-39.54517	263.749	6.04614
-39.5445	260.946	6.06567
-39.5425	261.188	6.08521
-39.5407	264.637	6.10474
-39.53838	264.415	6.12427
-39.53735	263.0943	6.1438
-39.5353	266.275	6.16333
-39.5332	269.5	6.18286
-39.533	263.381	6.20239
-39.5311	269.608	6.22192
-39.52829	270.4136	6.24146
-39.5283	266.604	6.26099
-39.5258	268.921	6.28052
-39.5247	276.784	6.30005
-39.5216	267.88	6.31958
-39.5212	273.449	6.33911
-39.5196	274.903	6.35864
-39.5177	273.869	6.37817
-39.51651	273.949	6.39771
-39.5135	281.962	6.41724
-39.5125	275.468	6.43677
-39.51067	277.849	6.4563
-39.5096	281.084	6.47583
-39.5085	281.897	6.49536
-39.50671	279.708	6.51489
-39.5045	283.226	6.53442
-39.502	284.184	6.55396
-39.5009	282.387	6.57349
-39.499	283.533	6.59302
-39.4984	286.807	6.61255
-39.497	285.149	6.63208
-39.4948	285.463	6.65161
-39.4934	289.73	6.67114
-39.4923	286.17	6.69067
-39.4891	287.357	6.71021
-39.4884	293.2543	6.72974
-39.4866	292.317	6.74927
-39.4862	286.68	6.7688
-39.4835	294.989	6.78833
-39.482	295.058	6.80786
-39.4809	291.25	6.82739
-39.4784	294.3587	6.84692
-39.4779	299.225	6.86646
-39.47538	290.544	6.88599
-39.4738	299.018	6.90552
-39.47147	301.386	6.92505
-39.4703	296.264	6.94458
-39.4683	298.479	6.96411
-39.4666	305.556	6.98364
-39.4653	299.7337	7.00317
-39.46384	300.183	7.02271
-39.4627	305.54	7.04224
-39.4612	305.7283	7.06177
-39.4587	303.702	7.0813
-39.45694	309.42	7.10083
-39.4555	305.703	7.12036
-39.4539	305.9	7.13989
-39.4527	309.116	7.15942
-39.4512	311.702	7.17896
-39.4495	306.987	7.19849
-39.4478	309.401	7.21802
-39.4462	312.557	7.23755
-39.4453	311.651	7.25708
-39.44313	313.222	7.27661
-39.4421	314.623	7.29614
-39.44112	315.282	7.31567
-39.4367	311.852	7.33521
-39.4365	317.6134	7.35474
-39.4341	316.0444	7.37427
-39.4324	314.9527	7.3938
-39.4304	320.414	7.41333
-39.4304	322.437	7.43286
-39.4288	313.603	7.45239
-39.4272	320.553	7.47192
-39.4249	323.5322	7.49146
-39.4231	319.501	7.51099
-39.4217	322.714	7.53052
-39.41983	326.372	7.55005
-39.418	319.651	7.56958
-39.4172	325	7.58911
-39.4149	326.953	7.60864
-39.4129	325.467	7.62817
-39.4117	324.998	7.64771
-39.4096	332.281	7.66724
-39.4095	327.924	7.68677
-39.4069	328.396	7.7063
-39.4053	330.569	7.72583
-39.4039	332.778	7.74536
-39.4015	329.383	7.76489
-39.4011	334.4	7.78442
-39.39883	333.655	7.80396
-39.398	333.183	7.82349
-39.3952	334.527	7.84302
-39.3947	339.258	7.86255
-39.39262	336.048	7.88208
-39.3897	333.569	7.90161
-39.389	340.8288	7.92114
-39.3881	338.867	7.94067
-39.3853	335.613	7.96021
-39.3851	340.977	7.97974
-39.3831	342.496	7.99927
-39.38	335.977	8.0188
-39.3795	344.125	8.03833
-39.3777	342.289	8.05786
-39.3755	338.837	8.07739
-39.3746	345.038	8.09692
-39.3723	348.283	8.11646
-39.3709	340.571	8.13599
-39.3694	347.543	8.15552
-39.3685	350.105	8.17505
-39.3657	346.406	8.19458
-39.3641	347.279	8.21411
-39.36261	352.8577	8.23364
-39.3625	345.533	8.25317
-39.3591	349.5853	8.27271
-39.3589	353.73	8.29224
-39.3572	351.006	8.31177
-39.3556	348.642	8.3313
-39.3539	355.652	8.35083
-39.3506	354.076	8.37036
-39.3499	350.922	8.38989
-39.3485	354.798	8.40942
-39.3479	357.2475	8.42896
-39.3447	355.66	8.44849
-39.3434	355.5903	8.46802
-39.3416	358.9245	8.48755
-39.3397	354.628	8.50708
-39.3386	358.069	8.52661
-39.3378	363.652	8.54614
-39.3364	360.224	8.56567
-39.334	356.473	8.58521
-39.3319	365.612	8.60474
-39.3308	362.781	8.62427
-39.3288	360.976	8.6438
-39.3269	365.373	8.66333
-39.3263	367.226	8.68286
-39.3235	359.47	8.70239
-39.3225	368.301	8.72192
-39.3211	367.58	8.74146
-39.3202	363.567	8.76099
-39.31715	368.094	8.78052
-39.3166	374.134	8.80005
-39.3138	362.9931	8.81958
-39.3133	369.012	8.83911
-39.3114	372.906	8.85864
-39.3098	371.451	8.87817
-39.3071	369.234	8.89771
-39.3057	374.2822	8.91724
-39.3041	370.168	8.93677
-39.302	371.128	8.9563
-39.3019	375.305	8.97583
-39.3007	376.391	8.99536
-39.297	372.336	9.01489
-39.296	376.345	9.03442
-39.2951	378.595	9.05396
-39.2941	373.906	9.07349
-39.2912	375.05	9.09302
-39.2904	379.853	9.11255
-39.2878	379.25	9.13208
-39.2864	376.723	9.15161
-39.2854	382.392	9.17114
-39.2838	379.635	9.19067
-39.2812	380.9913	9.21021
-39.2799	385.591	9.22974
-39.27906	383.589	9.24927
-39.2778	375.846	9.2688
-39.2755	387.954	9.28833
-39.2732	383.693	9.30786
-39.2734	382.525	9.32739
-39.2712	385.602	9.34692
-39.2687	390.211	9.36646
-39.2671	381.072	9.38599
-39.2656	387.5546	9.40552
-39.2638	388.129	9.42505
-39.26313	385.484	9.44458
-39.2607	386.182	9.46411
-39.2597	393.85	9.48364
-39.257	386.1795	9.50317
-39.2557	387.99	9.52271
-39.2545	393.9718	9.54224
-39.2535	391.852	9.56177
-39.24984	389.76	9.5813
-39.2486	393.592	9.60083
-39.2471	391.378	9.62036
-39.2467	389.606	9.63989
-39.2446	395.179	9.65942
-39.2429	397.266	9.67896
-39.24128	393.253	9.69849
-39.2395	393.952	9.71802
-39.2372	400.119	9.73755
-39.2364	394.111	9.75708
-39.2338	394.33	9.77661
-39.2325	401.49	9.79614
-39.23167	401.075	9.81567
-39.2292	395.779	9.83521
-39.2278	402.9043	9.85474
-39.2265	399.607	9.87427
-39.2248	399.271	9.8938
-39.2228	404.271	9.91333
-39.22123	404.642	9.93286
-39.2204	395.887	9.95239
-39.2187	404.619	9.97192
-39.2167	405.659	9.99146
-39.2153	401.372	10.011
-39.2143	403.461	10.0305
-39.2122	408.1394	10.05
-39.2103	400.9032	10.06958
-39.2089	406.0293	10.0891
-39.206	407.698	10.1086
-39.205	404.6828	10.1282
-39.203	405.756	10.1477
-39.202	410.481	10.1672
-39.2006	408.406	10.1868
-39.199	405.809	10.2063
-39.19685	409.992	10.22583
-39.1945	408.872	10.2454
-39.194	409.435	10.2649
-39.1917	409.804	10.2844
-39.1898	411.412	10.304
-39.1898	408.054	10.3235
-39.1875	411.4537	10.343
-39.1861	416.142	10.3625
-39.1836	411.208	10.38208
-39.1837	409.89	10.4016
-39.1802	417.57	10.4211
-39.1799	412.088	10.4407
-39.1769	411.839	10.4602
-39.1747	416.394	10.4797
-39.1742	415.558	10.4993
-39.1726	410.803	10.5188
-39.17112	419.4277	10.53833
-39.1695	415.868	10.5579
-39.1679	413.981	10.5774
-39.1664	419.0849	10.5969
-39.1643	421.711	10.6165
-39.1648	412.976	10.636
-39.1613	418.215	10.6555
-39.1596	422.392	10.675
-39.1581	418.202	10.69458
-39.1565	420.165	10.7141
-39.15398	424.28	10.7336
-39.154	418.194	10.7532
-39.1523	420.042	10.7727
-39.1502	422.983	10.7922
-39.1477	420.353	10.8118
-39.1469	420.701	10.8313
-39.14502	424.966	10.85083
-39.1439	425.68	10.8704
-39.1418	419.121	10.8899
-39.1405	424.978	10.9094
-39.1393	426.999	10.929
-39.13615	423.371	10.9485
-39.1349	421.441	10.968
-39.1341	427.072	10.9875
-39.1317	422.769	11.00708
-39.1305	426.047	11.0266
-39.128	430.098	11.0461
-39.12709	425.984	11.0657
-39.1261	421.005	11.0852
-39.1232	432.371	11.1047
-39.1225	427.256	11.1243
-39.1208	423.458	11.1438
-39.119	430.093	11.16333
-39.1175	430.824	11.1829
-39.1163	422.496	11.2024
-39.1143	431.369	11.2219
-39.1123	431.687	11.2415
-39.1103	428.293	11.261
-39.1086	431.316	11.2805
-39.108	433.53	11.3
-39.1056	426.828	11.31958
-39.1049	429.254	11.3391
-39.10252	434.933	11.3586
-39.1024	431.276	11.3782
-39.0994	429.812	11.3977
-39.0976	433.0672	11.4172
-39.0974	432.077	11.4368
-39.0959	430.153	11.4563
-39.0927	435.401	11.47583
-39.0913	434.158	11.4954
-39.0889	431.348	11.5149
-39.08746	434.085	11.5344
-39.0861	438.039	11.554
-39.0842	430.323	11.5735
-39.0828	434.755	11.593
-39.0816	438.7984	11.6125
-39.0795	434.9563	11.63208
-39.0786	430.844	11.6516
-39.0768	440.31	11.6711
-39.0763	435.015	11.6907
-39.0736	434.896	11.7102
-39.07243	440.623	11.7297
-39.07082	437.473	11.7493
-39.0689	430.802	11.7688
-39.0666	442.53	11.78833
-39.066	437.906	11.8079
-39.06406	433.643	11.8274
-39.0625	438.948	11.8469
-39.0608	443.587	11.8665
-39.0587	434.12	11.886
-39.057	438.176	11.9055
-39.0554	440.516	11.925
-39.0547	436.44	11.94458
-39.052	440.043	11.9641
-39.0505	442.248	11.9836
-39.0477	438.2312	12.0032
-39.04731	437.812	12.0227
-39.0458	443.3013	12.0422
-39.0447	441.627	12.0618
-39.042	440.106	12.0813
-39.0405	439.2338	12.10083
-39.03944	444.242	12.1204
-39.0382	436.77	12.1399
-39.0355	442.822	12.1594
-39.035	442.567	12.179
-39.0326	439.396	12.1985
-39.0315	440.426	12.218
-39.0287	448.075	12.2375
-39.0285	437.752	12.25708
-39.027	439.052	12.2766
-39.0244	448.59	12.2961
-39.0235	444.16	12.3157
-39.0215	437.748	12.3352
-39.0207	446.3978	12.3547
-39.0178	443.2681	12.3743
-39.0157	441.819	12.3938
-39.0157	446.5264	12.41333
-39.0139	445.414	12.4329
-39.0129	438.604	12.4524
-39.0099	446.423	12.4719
-39.0082	447.08	12.4915
-39.0061	440.944	12.511
-39.0051	444.775	12.5305
-39.0031	446.869	12.55
-39.0023	442.099	12.56958
-39	442.655	12.5891
-38.998	447.513	12.6086
-38.9963	442.057	12.6282
-38.9956	446.59	12.6477
-38.9935	446.953	12.6672
-38.9913	446.579	12.6868
-38.9905	441.016	12.7063
-38.9892	449.087	12.72583
-38.9869	447.9	12.7454
-38.9855	445.716	12.7649
-38.984	443.91	12.7844
-38.9818	450.53	12.804
-38.98119	442.446	12.8235
-38.9788	446.987	12.843
-38.978	450.727	12.8625
-38.9759	445.316	12.88208
-38.9731	444.2312	12.9016
-38.9723	450.705	12.9211
-38.9704	443.979	12.9407
-38.9694	443.915	12.9602
-38.9679	451.796	12.9797
-38.9657	449.468	12.9993
-38.9634	441.434	13.0188
-38.9637	450.14	13.03833
-38.9607	449.5195	13.0579
-38.9603	443.876	13.0774
-38.9575	450.708	13.0969
-38.9566	449.7413	13.1165
-38.9535	443.191	13.136
-38.9536	447.306	13.1555
-38.9511	452.178	13.175
-38.9501	443.859	13.19458
-38.949	447.596	13.2141
-38.94614	450.929	13.2336
-38.9449	448.243	13.2532
-38.9427	447.395	13.2727
-38.9422	451.684	13.2922
-38.9398	448.321	13.3118
-38.939	448.4454	13.3313
-38.9369	448.4895	13.35083
-38.9344	451.54	13.3704
-38.9331	443.739	13.3899
-38.932	451.115	13.4094
-38.9296	453.668	13.429
-38.9281	447.245	13.4485
-38.9272	445.1864	13.468
-38.9257	454.829	13.4875
-38.9234	446.018	13.50708
-38.9228	449.001	13.5266
-38.9192	452.9935	13.5461
-38.9185	448.533	13.5657
-38.9172	446.373	13.5852
-38.9152	455.183	13.6047
-38.9139	447.929	13.6243
-38.9122	444.677	13.6438
-38.9111	453.308	13.66333
-38.9093	451.7735	13.6829
-38.9081	444.866	13.7024
-38.9064	449.725	13.7219
-38.90416	450.302	13.7415
-38.9023	445.646	13.761
-38.9007	449.9624	13.7805
-38.8989	451.022	13.8
-38.8973	445.791	13.81958
-38.8964	447.28	13.8391
-38.8943	454.241	13.8586
-38.89307	447.724	13.8782
-38.8913	447.368	13.8977
-38.889	450.1044	13.9172
-38.8871	452.258	13.9368
-38.8856	445.44	13.9563
-38.88488	450.832	13.97583
-38.8846	449.593	13.9954
-38.8808	447.501	14.0149
-38.8804	447.819	14.0344
-38.87788	452.808	14.054
-38.878	445.225	14.0735
-38.8749	448.458	14.093
-38.87355	453.136	14.1125
-38.871	448.79	14.13208
-38.8701	443.15	14.1516
-38.8681	453.081	14.1711
-38.8677	448.087	14.1907
-38.8648	445.875	14.2102
-38.8634	453.039	14.2297
-38.861	448.4	14.2493
-38.8597	443.819	14.2688
-38.8586	451.354	14.28833
-38.8575	449.1568	14.3079
-38.8566	443.177	14.3274
-38.8531	451.821	14.3469
-38.8518	450.422	14.3665
-38.8511	445.833	14.386
-38.8501	445.522	14.4055
-38.8481	450.917	14.425
-38.8452	445.083	14.44458
-38.84293	450.095	14.4641
-38.8429	447.995	14.4836
-38.8406	446.096	14.5032
-38.8397	443.622	14.5227
-38.83683	451.619	14.5422
-38.8357	447.7876	14.5618
-38.8352	445.061	14.5813
-38.8339	447.199	14.60083
-38.8301	451.176	14.6204
-38.8296	442.69	14.6399
-38.8277	446.291	14.6594
-38.8266	449.325	14.679
-38.8244	445.444	14.6985
-38.82423	443.855	14.718
-38.8206	451.456	14.7375
-38.8189	441.8895	14.75708
-38.8181	443.47	14.7766
-38.8164	451	14.7961
-38.8153	445.356	14.8157
-38.8124	441.464	14.8352
-38.8119	450.526	14.8547
-38.81028	447.391	14.8743
-38.809	441.29	14.8938
-38.8057	447.3219	14.91333
-38.8047	445.754	14.9329
-38.8044	440.981	14.9524
-38.80209	447.521	14.9719
-38.7995	448.738	14.9915
-38.79771	440.623	15.011
-38.7976	447.958	15.0305
-38.7964	447.661	15.05
-38.7935	443.717	15.06958
-38.7929	441.147	15.0891
-38.7897	447.413	15.1086
-38.7892	444.219	15.1282
-38.78743	443.709	15.1477
-38.7862	444.868	15.1672
-38.783	445.827	15.1868
-38.7829	438.872	15.2063
-38.7814	445.999	15.22583
-38.7792	447.545	15.2454
-38.7763	442.86	15.2649
-38.7756	442.191	15.2844
-38.7747	448.6116	15.304
-38.7723	438.754	15.3235
-38.77	444.462	15.343
-38.7693	446.988	15.3625
-38.7681	442.731	15.38208
-38.7653	438.768	15.4016
-38.7634	448.192	15.4211
-38.7625	441.477	15.4407
-38.76	440.515	15.4602
-38.7593	448.095	15.4797
-38.7585	443.944	15.4993
-38.75555	437.917	15.5188
-38.7547	444.304	15.53833
-38.7516	445.64	15.5579
-38.7503	438.82	15.5774
-38.7505	445.186	15.5969
-38.7483	442.785	15.6165
-38.7464	440.354	15.636
-38.7448	442.149	15.6555
-38.7429	446.538	15.675
-38.742	438.885	15.69458
-38.74	442.663	15.7141
-38.7375	443.839	15.7336
-38.7373	444.539	15.7532
-38.7354	437.165	15.7727
-38.733	444.509	15.7922
-38.7308	443.365	15.8118
-38.7297	441.482	15.8313
-38.7272	441.574	15.85083
-38.7264	444.269	15.8704
-38.7245	437.643	15.8899
-38.7232	443.3002	15.9094
-38.7216	446.16	15.929
-38.7197	438.792	15.9485
-38.7183	437.569	15.968
-38.71793	445.348	15.9875
-38.7159	439.35	16.00708
-38.7132	439.607	16.0266
-38.7122	445.551	16.0461
-38.7104	440.513	16.0657
-38.7088	437.629	16.0852
-38.7071	445.033	16.1047
-38.7051	440.961	16.1243
-38.7045	435.289	16.1438
-38.703	444.618	16.16333
-38.7007	441.556	16.1829
-38.6997	435.795	16.2024
-38.69783	439.793	16.2219
-38.696	443.5867	16.2415
-38.695	436.115	16.261
-38.69455	439.779	16.2805
-38.6907	439.328	16.3
-38.6894	438.528	16.31958
-38.6868	436.078	16.3391
-38.6855	444.008	16.3586
-38.6844	438.787	16.3782
-38.6828	436.6123	16.3977
-38.68	439.935	16.4172
-38.6797	442.524	16.4368
-38.6777	433.324	16.4563
-38.6765	440.528	16.47583
-38.674	441.53	16.4954
-38.674	437.491	16.5149
-38.67112	437.534	16.5344
-38.67017	442.403	16.554
-38.6676	434.816	16.5735
-38.6664	438.585	16.593
-38.664	443.888	16.6125
-38.6629	435.86	16.63208
-38.6616	432.66	16.6516
-38.6597	444.187	16.6711
-38.659	437.482	16.6907
-38.656	433.438	16.7102
-38.65522	442.162	16.7297
-38.6533	436.205	16.7493
-38.6523	434.354	16.7688
-38.65081	439.216	16.78833
-38.64814	439.124	16.8079
-38.6471	431.249	16.8274
-38.6448	440.413	16.8469
-38.6446	437.886	16.8665
-38.6414	434.994	16.886
-38.6408	434.357	16.9055
-38.6392	440.717	16.925
-38.638	435.904	16.94458
-38.6359	438.492	16.9641
-38.6332	437.77	16.9836
-38.6321	437.352	17.0032
-38.6318	432.561	17.0227
-38.6284	439.864	17.0422
-38.627	439.087	17.0618
-38.6262	434.538	17.0813
-38.624	436.205	17.10083
-38.6221	441.097	17.1204
-38.621	431.038	17.1399
-38.6194	437.257	17.1594
-38.6178	440.217	17.179
-38.6164	434.548	17.1985
-38.6147	434.291	17.218
-38.6123	441.236	17.2375
-38.6115	433.571	17.25708
-38.6093	434.544	17.2766
-38.608	441.893	17.2961
-38.6062	434.071	17.3157
-38.6047	431.65	17.3352
-38.6019	438.583	17.3547
-38.6008	438	17.3743
-38.6	433.186	17.3938
-38.5985	439.236	17.41333
-38.5967	433.685	17.4329
-38.5952	434.36	17.4524
-38.5936	436.368	17.4719
-38.5912	437.901	17.4915
-38.5903	433.25	17.511
-38.5883	436.204	17.5305
-38.5866	437.342	17.55
-38.584	434.553	17.56958
-38.5828	432.272	17.5891
-38.582	439.824	17.6086
-38.58036	435.221	17.6282
-38.5783	434.327	17.6477
-38.577	436.328	17.6672
-38.5736	437.471	17.6868
-38.5737	432.52	17.7063
-38.5726	439.365	17.72583
-38.5707	438.116	17.7454
-38.5693	432.016	17.7649
-38.56665	432.853	17.7844
-38.5655	440.111	17.804
-38.56295	431.873	17.8235
-38.563	432.583	17.843
-38.561	439.601	17.8625
-38.5583	433.713	17.88208
-38.5578	432.256	17.9016
-38.5556	438.658	17.9211
-38.5538	433.6824	17.9407
-38.5523	432.37	17.9602
-38.551	439.946	17.9797
-38.549	433.904	17.9993
-38.548	429.846	18.0188
-38.5452	435.415	18.03833
-38.5447	438.347	18.0579
-38.5425	430.707	18.0774
-38.5408	436.235	18.0969
-38.5396	434.0773	18.1165
-38.5378	434.972	18.136
-38.5351	432.758	18.1555
-38.5352	438.638	18.175
-38.5338	430.813	18.19458
-38.5315	434.156	18.2141
-38.528	435.906	18.2336
-38.528	435.321	18.2532
-38.5258	429.216	18.2727
-38.524	437.44	18.2922
-38.523	437.535	18.3118
-38.5222	431.125	18.3313
-38.52	433.634	18.35083
-38.5188	436.573	18.3704
-38.51754	429.157	18.3899
-38.5151	435.405	18.4094
-38.5148	438.844	18.429
-38.5114	429.424	18.4485
-38.5108	431.041	18.468
-38.5084	438.641	18.4875
-38.5073	432.996	18.50708
-38.5061	431.209	18.5266
-38.5028	438.771	18.5461
-38.50293	433.826	18.5657
-38.5005	432.826	18.5852
-38.49836	436.536	18.6047
-38.497	434.904	18.6243
-38.496	430.224	18.6438
-38.4945	437.756	18.66333
-38.4931	432.742	18.6829
-38.491	429.994	18.7024
-38.489	432.229	18.7219
-38.48811	437.658	18.7415
-38.48592	432.804	18.761
-38.4835	433.959	18.7805
-38.4832	433.439	18.8
-38.4805	432.546	18.81958
-38.4798	431.902	18.8391
-38.47921	436.927	18.8586
-38.4759	433.617	18.8782
-38.4745	431.9696	18.8977
-38.4738	435.0657	18.9172
-38.4718	435.545	18.9368
-38.4702	428.736	18.9563
-38.4682	435.423	18.97583
-38.46653	437.747	18.9954
-38.4644	430.652	19.0149
-38.464	432.069	19.0344
-38.46143	436.2782	19.054
-38.46	431.393	19.0735
-38.4584	432.935	19.093
-38.4563	438.263	19.1125
-38.4549	429.611	19.13208
-38.4528	431.902	19.1516
-38.4519	436.17	19.1711
-38.45034	431.806	19.1907
-38.4491	429.034	19.2102
-38.4461	437.667	19.2297
-38.4456	431.9938	19.2493
-38.4437	431.62	19.2688
-38.4424	431.629	19.28833
-38.4406	434.767	19.3079
-38.4376	431.009	19.3274
-38.4366	435.961	19.3469
-38.4366	434.679	19.3665
-38.4345	430.205	19.386
-38.4317	430.492	19.4055
-38.4293	437.305	19.425
-38.429	432.065	19.44458
-38.4284	430.737	19.4641
-38.42535	433.364	19.4836
-38.4231	432.919	19.5032
-38.4216	429.2229	19.5227
-38.42112	434.81	19.5422
-38.4186	433.267	19.5618
-38.4174	428.943	19.5813
-38.4162	432.775	19.60083
-38.4136	434.751	19.6204
-38.4127	427.393	19.6399
-38.412	431.357	19.6594
-38.40974	436.03	19.679
-38.40852	426.743	19.6985
-38.4057	431.707	19.718
-38.4042	434.909	19.7375
-38.403	430.751	19.75708
-38.4006	429.945	19.7766
-38.3992	438.464	19.7961
-38.3968	428.009	19.8157
-38.3959	430.105	19.8352
-38.3955	433.421	19.8547
-38.3925	432.572	19.8743
-38.3917	427.87	19.8938
-38.3907	434.21	19.91333
-38.3869	430.434	19.9329
-38.3859	429.382	19.9524
-38.3862	429.756	19.9719
-38.3821	433.005	19.9915
-38.3828	428.376	20.011
-38.38028	426.204	20.0208

Data Header:			0.254_hd_dimension_typeiv_090_r0			Time:	23.0806	s	4/14/2019 12:31:23 AM
Data Acquisition:	Timed
Station Name:	ft40.cfg
Test File Name:	monotonic_0.2540_typeiv_hd_090_dimension.tst
Displacement	Force	Running Time
mm	N	s
-38.37999	431.649	20.0305
-38.3794	431.723	20.0403
-38.3787	432.699	20.05
-38.3778	430.529	20.0598
-38.3773	428.501	20.06958
-38.3764	429.007	20.0793
-38.3752	426.749	20.0891
-38.3752	429.716	20.0989
-38.3735	436.147	20.1086
-38.3727	433.3179	20.1184
-38.3716	432.741	20.1282
-38.3706	426.468	20.1379
-38.3701	427.374	20.1477
-38.3704	430.841	20.1575
-38.3686	430.174	20.1672
-38.3683	434.477	20.177
-38.3669	431.951	20.1868
-38.3658	430.297	20.1965
-38.36433	427.955	20.2063
-38.364	426.476	20.2161
-38.3631	432.106	20.22583
-38.3637	436.492	20.2356
-38.3619	433.393	20.2454
-38.3615	428.606	20.2551
-38.3606	426.517	20.2649
-38.3607	428.006	20.2747
-38.3595	431.551	20.2844
-38.3583	435.626	20.2942
-38.3573	433.497	20.304
-38.3562	432.544	20.3137
-38.3558	427.9982	20.3235
-38.35482	424.606	20.3333
-38.3532	429.313	20.343
-38.35199	435.0799	20.3528
-38.3517	436.366	20.3625
-38.3522	430.269	20.3723
-38.3494	426.717	20.38208
-38.3495	427.4137	20.3918
-38.3494	429.363	20.4016
-38.3473	433.369	20.4114
-38.3484	432.25	20.4211
-38.3473	434.5163	20.4309
-38.3464	430.2612	20.4407
-38.3452	425.621	20.4504
-38.3441	427.479	20.4602
-38.3431	432.1264	20.47
-38.3424	436.202	20.4797
-38.3412	432.88	20.4895
-38.3402	427.412	20.4993
-38.3397	427.014	20.509
-38.3385	427.5	20.5188
-38.3379	430.4657	20.5286
-38.3374	431.826	20.53833
-38.3375	432.33	20.5481
-38.3353	433.141	20.5579
-38.3359	427.386	20.5676
-38.3349	427.786	20.5774
-38.333	427.704	20.5872
-38.3329	430.963	20.5969
-38.3319	433.861	20.6067
-38.3314	429.811	20.6165
-38.33017	427.384	20.6262
-38.3296	429.04	20.636
-38.3296	427.2771	20.6458
-38.3281	428.183	20.6555
-38.3265	430.6806	20.6653
-38.3266	432.98	20.675
-38.3248	432.483	20.6848
-38.3238	426.796	20.69458
-38.32399	425.564	20.7043
-38.3232	427.001	20.7141
-38.322	431.09	20.7239
-38.32093	430.676	20.7336
-38.3207	431.112	20.7434
-38.3192	429.0849	20.7532
-38.3188	428.908	20.7629
-38.31765	424.169	20.7727
-38.3176	427.56	20.7825
-38.3165	431.169	20.7922
-38.315	433.659	20.802
-38.3143	430.841	20.8118
-38.3139	425.299	20.8215
-38.31311	423.994	20.8313
-38.313	427.818	20.8411
-38.312	429.5	20.85083
-38.3114	433.597	20.8606
-38.3106	431.105	20.8704
-38.3088	428.164	20.8801
-38.3087	425.203	20.8899
-38.3087	422.3	20.8997
-38.3068	430.016	20.9094
-38.3063	433.33	20.9192
-38.306	433.634	20.929
-38.3048	428.957	20.9387
-38.3029	423.053	20.9485
-38.3029	427.53	20.9583
-38.3026	428.878	20.968
-38.3015	431.549	20.9778
-38.3007	430.942	20.9875
-38.29958	429.822	20.9973
-38.299	425.613	21.00708
-38.2974	423.142	21.0168
-38.2969	425.741	21.0266
-38.295	431.284	21.0364
-38.29533	433.854	21.0461
-38.2954	429.851	21.0559
-38.2943	426.511	21.0657
-38.293	423.16	21.0754
-38.2912	424.735	21.0852
-38.2915	429.46	21.095
-38.291	429.038	21.1047
-38.2895	431.407	21.1145
-38.2901	428.189	21.1243
-38.2866	423.328	21.134
-38.2878	425.252	21.1438
-38.2866	425.588	21.1536
-38.28582	430.461	21.16333
-38.2865	430.585	21.1731
-38.28426	427.393	21.1829
-38.2828	426.077	21.1926
-38.2824	423.78	21.2024
-38.2812	427.902	21.2122
-38.2814	426.952	21.2219
-38.2796	427.973	21.2317
-38.279	430.974	21.2415
-38.2786	429.212	21.2512
-38.2766	424.0441	21.261
-38.2767	423.337	21.2708
-38.2761	426.088	21.2805
-38.2752	430.3165	21.2903
-38.2744	428.63	21.3
-38.2738	426.418	21.3098
-38.2731	425.572	21.31958
-38.2716	424.151	21.3293
-38.27095	423.521	21.3391
-38.2694	424.569	21.3489
-38.2697	426.309	21.3586
-38.2685	431.15	21.3684
-38.2676	427.707	21.3782
-38.2672	421.407	21.3879
-38.2657	422.387	21.3977
-38.2642	426.193	21.4075
-38.2651	427.769	21.4172
-38.2633	430.499	21.427
-38.2621	425.789	21.4368
-38.2627	425.892	21.4465
-38.2618	421.361	21.4563
-38.2599	422.69	21.4661
-38.2591	427.795	21.47583
-38.2586	429.523	21.4856
-38.2578	430.234	21.4954
-38.2572	422.084	21.5051
-38.257	420.802	21.5149
-38.2558	422.381	21.5247
-38.2547	425.395	21.5344
-38.2544	429.352	21.5442
-38.253	428.384	21.554
-38.2518	425.381	21.5637
-38.2526	423.86	21.5735
-38.2514	418.707	21.5833
-38.25	423.478	21.593
-38.2498	428.792	21.6028
-38.2477	430.45	21.6125
-38.2468	425.136	21.6223
-38.2475	419.824	21.63208
-38.2458	419.457	21.6418
-38.24432	424.599	21.6516
-38.2446	426.964	21.6614
-38.2434	427.473	21.6711
-38.2426	425.5647	21.6809
-38.2419	422.761	21.6907
-38.24	419.186	21.7004
-38.2412	421.297	21.7102
-38.2395	423.925	21.72
-38.23893	428.502	21.7297
-38.2382	426.003	21.7395
-38.237	421.068	21.7493
-38.2359	419.028	21.759
-38.2362	420.732	21.7688
-38.234	422.3551	21.7786
-38.2336	421.971	21.78833
-38.2324	425.596	21.7981
-38.2315	425.279	21.8079
-38.2305	421.82	21.8176
-38.2299	420.942	21.8274
-38.2292	419.943	21.8372
-38.2286	422.556	21.8469
-38.2282	426.141	21.8567
-38.22805	422.3602	21.8665
-38.2258	420.047	21.8762
-38.2262	418.824	21.886
-38.2257	420.003	21.8958
-38.2225	420.181	21.9055
-38.2216	421.375	21.9153
-38.2224	423.46	21.925
-38.2216	422.107	21.9348
-38.21941	417.751	21.94458
-38.2189	415.168	21.9543
-38.2199	415.32	21.9641
-38.2176	420.183	21.9739
-38.2171	421.06	21.9836
-38.2168	420.018	21.9934
-38.2166	418.856	22.0032
-38.2149	413.988	22.0129
-38.213	413.934	22.0227
-38.2133	415.012	22.0325
-38.2124	417.397	22.0422
-38.2114	420.8096	22.052
-38.21072	415.646	22.0618
-38.2105	409.247	22.0715
-38.2078	410.277	22.0813
-38.2084	411.0639	22.0911
-38.2067	414.289	22.10083
-38.2065	414.156	22.1106
-38.2054	407.623	22.1204
-38.2037	-61.23674	22.1301
-38.201	-58.1043	22.1399
-38.2007	-61.1999	22.1497
-38.2002	-32.0537	22.1594
-38.2008	-32.1515	22.1692
-38.1995	-31.8673	22.179
-38.1991	-47.3543	22.1887
-38.1983	-44.1641	22.1985
-38.198	-43.9325	22.2083
-38.197	-38.2699	22.218
-38.1961	-36.6031	22.2278
-38.196	-38.815	22.2375
-38.1944	-40.7155	22.2473
-38.1928	-41.3613	22.25708
-38.19376	-44.9175	22.2668
-38.1929	-40.69775	22.2766
-38.1902	-38.981	22.2864
-38.1917	-36.9245	22.2961
-38.1895	-36.1597	22.3059
-38.1902	-43.643	22.3157
-38.1873	-45.0184	22.3254
-38.188	-41.0909	22.3352
-38.1859	-41.0663	22.345
-38.1859	-38.2458	22.3547
-38.1853	-39.3908	22.3645
-38.1848	-39.9002	22.3743
-38.1836	-42.0506	22.384
-38.182	-43.6686	22.3938
-38.1821	-41.5368	22.4036
-38.1808	-36.6936	22.41333
-38.1802	-38.4192	22.4231
-38.1798	-40.3733	22.4329
-38.1793	-44.4434	22.4426
-38.1784	-42.3396	22.4524
-38.17738	-41.0735	22.4622
-38.1762	-39.6069	22.4719
-38.1742	-38.118	22.4817
-38.1741	-39.3432	22.4915
-38.1743	-40.0809	22.5012
-38.1716	-42.359	22.511
-38.1729	-44.8668	22.5208
-38.1712	-41.512	22.5305
-38.17128	-36.06073	22.5403
-38.1699	-39.1125	22.55
-38.16851	-38.4959	22.5598
-38.1683	-42.9282	22.56958
-38.1668	-42.1726	22.5793
-38.16721	-41.3149	22.5891
-38.16515	-43.3409	22.5989
-38.1664	-37.7406	22.6086
-38.1641	-36.1564	22.6184
-38.1635	-39.0769	22.6282
-38.1633	-44.8423	22.6379
-38.1613	-46.6655	22.6477
-38.1616	-39.4694	22.6575
-38.1599	-38.62685	22.6672
-38.1587	-36.4366	22.677
-38.158	-39.6868	22.6868
-38.15707	-42.7782	22.6965
-38.158	-43.0631	22.7063
-38.1559	-44.6207	22.7161
-38.1537	-39.7393	22.72583
-38.15443	-35.331	22.7356
-38.1544	-37.7026	22.7454
-38.1539	-42.7965	22.7551
-38.15147	-46.9948	22.7649
-38.1514	-45.6243	22.7747
-38.1504	-37.5246	22.7844
-38.1502	-37.2062	22.7942
-38.1486	-39.5602	22.804
-38.1483	-41.3977	22.8137
-38.1463	-44.0219	22.8235
-38.146	-45.3537	22.8333
-38.1448	-41.1161	22.843
-38.1447	-38.5934	22.8528
-38.1438	-36.3639	22.8625
-38.1429	-39.8719	22.8723
-38.1422	-46.1822	22.88208
-38.1427	-46.2865	22.8918
-38.14106	-42.5479	22.9016
-38.13969	-38.4568	22.9114
-38.1392	-39.0707	22.9211
-38.138	-38.7387	22.9309
-38.1375	-41.0952	22.9407
-38.1356	-45.03	22.9504
-38.1356	-41.6699	22.9602
-38.1356	-40.9481	22.97
-38.135	-37.4317	22.9797
-38.1326	-37.0319	22.9895
-38.1333	-42.7149	22.9993
-38.1317	-44.7007	23.009
-38.13139	-43.2158	23.0188
-38.1304	-41.3256	23.0286
-38.1303	-39.8805	23.03833
-38.1273	-40.719	23.0481
-38.1266	-39.3148	23.0579
-38.1268	-40.3395	23.0676
-38.1259	-44.736	23.0774