File: data/processed_data_files/tensile/0.254_hd_dimension_typei_4545_r(3).dat
MTS793|BTW|ENU|1|2|.|/|:|1|0|0|A

Data Header:			0.254_hd_dimension_typei_4545_r0			Time:	20.0181	s	4/15/2019 3:12:21 PM
Data Acquisition:	Timed
Station Name:	ft40.cfg
Test File Name:	monotonic_0.2540_typei_hd_4545_dimension.tst
Displacement	Force	Running Time
mm	N	s
9.98059	-128.632	0.0224609
9.98078	-119.422	0.0419922
9.98135	-117.296	0.0615234
9.98166	-118.732	0.0810547
9.98467	-124.489	0.100586
9.98536	-112.726	0.120117
9.9871	-120.018	0.139648
9.98771	-120.808	0.15918
9.99056	-111.253	0.178711
9.99276	-112.541	0.198242
9.99392	-120.43	0.217773
9.99573	-112.594	0.237305
9.99708	-110.518	0.256836
9.99869	-114.855	0.276367
10.0002	-112.974	0.295898
10.002	-105.676	0.31543
10.0044	-110.669	0.334961
10.0053	-111.136	0.354492
10.0068	-103.607	0.374023
10.00787	-106.953	0.393555
10.0099	-111.608	0.413086
10.01233	-101.4761	0.432617
10.0131	-100.657	0.452148
10.0147	-109.861	0.47168
10.0159	-97.8062	0.491211
10.0178	-99.3752	0.510742
10.0199	-104.079	0.530273
10.0216	-99.3352	0.549805
10.023	-93.7355	0.569336
10.0244	-104.847	0.588867
10.0265	-95.9924	0.608398
10.0285	-91.7447	0.62793
10.0291	-98.1286	0.647461
10.0301	-97.1497	0.666992
10.0327	-86.8827	0.686523
10.03421	-96.6765	0.706055
10.036	-95.3897	0.725586
10.0376	-88.0903	0.745117
10.0391	-87.8597	0.764648
10.0411	-93.8641	0.78418
10.0429	-84.5839	0.803711
10.0448	-88.0276	0.823242
10.0461	-90.574	0.842773
10.0475	-85.0696	0.862305
10.0494	-78.58036	0.881836
10.0503	-88.0651	0.901367
10.0516	-85.8206	0.920898
10.0539	-77.5328	0.94043
10.0555	-81.5019	0.959961
10.0577	-83.5817	0.979492
10.059	-75.4805	0.999023
10.061	-78.2843	1.01855
10.0624	-82.7497	1.03809
10.0634	-72.0662	1.05762
10.06664	-75.5249	1.07715
10.0663	-80.6744	1.09668
10.06769	-72.3363	1.11621
10.0692	-67.8755	1.13574
10.0713	-79.572	1.15527
10.0732	-71.0484	1.1748
10.0756	-65.89003	1.19434
10.0774	-72.3964	1.21387
10.0779	-68.8847	1.2334
10.0796	-62.0521	1.25293
10.0825	-72.9616	1.27246
10.0833	-67.9647	1.29199
10.0843	-58.7255	1.31152
10.0865	-63.6292	1.33105
10.0888	-68.323	1.35059
10.0897	-57.2037	1.37012
10.0914	-60.9566	1.38965
10.09341	-63.7112	1.40918
10.0942	-57.5042	1.42871
10.0957	-55.5343	1.44824
10.098	-62.0773	1.46777
10.0994	-54.6091	1.4873
10.1007	-54.38372	1.50684
10.1037	-59.4113	1.52637
10.1041	-56.2387	1.5459
10.1067	-47.6253	1.56543
10.1071	-54.7791	1.58496
10.1092	-56.7364	1.60449
10.1099	-48.7412	1.62402
10.1127	-50.5982	1.64355
10.1142	-51.7734	1.66309
10.115	-43.7333	1.68262
10.1172	-43.8914	1.70215
10.1195	-53.8371	1.72168
10.12083	-43.3303	1.74121
10.1229	-40.2373	1.76074
10.124	-47.1911	1.78027
10.126	-41.267	1.7998
10.1281	-34.8558	1.81934
10.1284	-45.4719	1.83887
10.1303	-40.2307	1.8584
10.1321	-34.84053	1.87793
10.1335	-39.6517	1.89746
10.1352	-38.8584	1.91699
10.1377	-29.1608	1.93652
10.1396	-38.9475	1.95605
10.1402	-36.3645	1.97559
10.1421	-28.4746	1.99512
10.1433	-28.364	2.01465
10.1452	-37.0457	2.03418
10.1463	-27.4225	2.05371
10.1498	-32.0558	2.07324
10.1507	-32.1245	2.09277
10.1528	-28.3384	2.1123
10.1524	-21.4924	2.13184
10.15463	-30.6891	2.15137
10.15644	-24.8518	2.1709
10.1585	-21.5515	2.19043
10.1594	-26.61742	2.20996
10.1618	-26.935	2.22949
10.16291	-15.7974	2.24902
10.1654	-21.6504	2.26855
10.1667	-26.1684	2.28809
10.16831	-17.971	2.30762
10.1693	-16.3224	2.32715
10.1715	-21.7658	2.34668
10.1726	-13.4732	2.36621
10.1741	-10.3212	2.38574
10.1768	-22.4215	2.40527
10.1772	-12.1321	2.4248
10.1796	-7.319459	2.44434
10.1812	-13.85741	2.46387
10.1829	-13.4538	2.4834
10.1844	-2.57598	2.50293
10.1844	-12.3598	2.52246
10.188	-10.0425	2.54199
10.1881	-2.30378	2.56152
10.1911	-5.21442	2.58105
10.1923	-6.80489	2.60059
10.1937	3.30872	2.62012
10.197	-3.63589	2.63965
10.1975	-7.62964	2.65918
10.199	0.793061	2.67871
10.2015	4.411932	2.69824
10.2023	-5.48312	2.71777
10.2035	4.038444	2.7373
10.2056	2.77667	2.75684
10.2057	0.405768	2.77637
10.2093	3.61121	2.7959
10.211	10.8044	2.81543
10.2114	3.02511	2.83496
10.2134	2.47539	2.85449
10.215	11.1421	2.87402
10.2169	9.49415	2.89355
10.2192	2.66368	2.91309
10.2193	15.4267	2.93262
10.2216	14.4804	2.95215
10.2221	6.47255	2.97168
10.224	13.5798	2.99121
10.2267	19.2732	3.01074
10.22902	9.61345	3.03027
10.2301	18.2137	3.0498
10.2309	24.07012	3.06934
10.2333	11.3398	3.08887
10.2345	15.8513	3.1084
10.2363	25.4796	3.12793
10.2386	20.2667	3.14746
10.23916	17.8816	3.16699
10.2411	27.7481	3.18652
10.2426	21.4966	3.20605
10.2434	22.1964	3.22559
10.2451	29.7233	3.24512
10.2487	27.6076	3.26465
10.24934	22.2181	3.28418
10.2505	33.4149	3.30371
10.2538	30.4816	3.32324
10.2536	25.9376	3.34277
10.2549	30.739	3.3623
10.257	37.6115	3.38184
10.2588	29.4956	3.40137
10.26025	35.1363	3.4209
10.2632	36.8727	3.44043
10.2631	35.7235	3.45996
10.2663	32.0051	3.47949
10.2674	43.5389	3.49902
10.2688	37.4264	3.51855
10.2698	34.5952	3.53809
10.2726	42.9746	3.55762
10.2735	44.1221	3.57715
10.2768	38.1034	3.59668
10.2775	44.3537	3.61621
10.2783	48.4677	3.63574
10.2801	39.1329	3.65527
10.28168	46.3248	3.6748
10.2843	50.8918	3.69434
10.2856	43.8718	3.71387
10.2864	46.7955	3.7334
10.2878	58.9095	3.75293
10.2901	46.4626	3.77246
10.2914	50.1114	3.79199
10.2938	59.1624	3.81152
10.2956	53.2564	3.83105
10.29661	50.6406	3.85059
10.29736	60.6981	3.87012
10.2997	54.2904	3.88965
10.3017	53.69949	3.90918
10.3037	60.7647	3.92871
10.3052	64.2824	3.94824
10.3055	54.7471	3.96777
10.3084	62.6447	3.9873
10.3085	65.0188	4.00684
10.31219	60.9127	4.02637
10.312	59.85202	4.0459
10.3164	71.6523	4.06543
10.3158	64.8479	4.08496
10.3172	64.5059	4.10449
10.3202	70.6721	4.12402
10.32075	67.7692	4.14355
10.3222	62.4308	4.16309
10.323	75.3188	4.18262
10.3263	73.5191	4.20215
10.3278	65.9064	4.22168
10.3284	71.881	4.24121
10.3306	78.0617	4.26074
10.3324	69.0452	4.28027
10.3344	76.13	4.2998
10.3349	82.7878	4.31934
10.33749	70.4744	4.33887
10.3386	77.2016	4.3584
10.3396	85.3658	4.37793
10.34281	77.06768	4.39746
10.3437	76.6242	4.41699
10.3449	90.1053	4.43652
10.3471	80.7257	4.45605
10.3481	79.5666	4.47559
10.3498	88.2134	4.49512
10.3518	90.6757	4.51465
10.3532	82.2104	4.53418
10.3549	92.4942	4.55371
10.3574	87.8475	4.57324
10.3578	85.3427	4.59277
10.3597	91.4882	4.6123
10.3612	98.7745	4.63184
10.3642	87.2101	4.65137
10.3641	92.53	4.6709
10.3651	96.7195	4.69043
10.3677	96.0909	4.70996
10.3698	94.9754	4.72949
10.3713	103	4.74902
10.3722	97.9759	4.76855
10.3752	96.9985	4.78809
10.3762	100.575	4.80762
10.3779	103.431	4.82715
10.3787	93.8902	4.84668
10.38177	105.734	4.86621
10.3826	108.576	4.88574
10.3845	97.7115	4.90527
10.3866	103.202	4.9248
10.3869	112.845	4.94434
10.39	104.9585	4.96387
10.3914	107.483	4.9834
10.3923	116.009	5.00293
10.3939	104.43	5.02246
10.3956	106.722	5.04199
10.3979	119.968	5.06152
10.3989	113.506	5.08105
10.4004	106.983	5.10059
10.4012	122.1326	5.12012
10.4033	117.02	5.13965
10.4053	112.915	5.15918
10.4073	120.361	5.17871
10.4083	122.98	5.19824
10.4104	115.659	5.21777
10.4126	124.76	5.2373
10.41457	123.617	5.25684
10.4155	119.277	5.27637
10.4169	121.279	5.2959
10.4184	133.036	5.31543
10.4194	122.036	5.33496
10.4221	123.505	5.35449
10.4237	129.036	5.37402
10.42573	130.015	5.39355
10.4257	123.078	5.41309
10.4281	132.667	5.43262
10.4295	130.99	5.45215
10.4314	123.531	5.47168
10.4336	133.503	5.49121
10.4347	137.6322	5.51074
10.4355	125.635	5.53027
10.4388	135.527	5.5498
10.4392	142.155	5.56934
10.441	131.518	5.58887
10.4432	133.154	5.6084
10.4441	143.247	5.62793
10.446	136.71	5.64746
10.4467	136.804	5.66699
10.4499	147.881	5.68652
10.4505	136.396	5.70605
10.4521	136.192	5.72559
10.4547	149.522	5.74512
10.4554	147.787	5.76465
10.4572	137.448	5.78418
10.4603	150.096	5.80371
10.46095	149.191	5.82324
10.4622	143.832	5.84277
10.4644	149.166	5.8623
10.4669	156.485	5.88184
10.46744	145.406	5.90137
10.4681	151.806	5.9209
10.4704	156.121	5.94043
10.4733	151.34	5.95996
10.4748	149.507	5.97949
10.4742	162.872	5.99902
10.477	156.352	6.01855
10.4791	153.4071	6.03809
10.4812	159.195	6.05762
10.481	162.057	6.07715
10.4842	153.8679	6.09668
10.4849	164.78	6.11621
10.48629	165.813	6.13574
10.4888	157.4751	6.15527
10.491	162.2444	6.1748
10.4912	171.995	6.19434
10.4937	161.763	6.21387
10.4947	164.752	6.2334
10.4969	174.167	6.25293
10.4985	164.004	6.27246
10.5007	164.949	6.29199
10.501	174.388	6.31152
10.50252	170.581	6.33105
10.5047	166.9	6.35059
10.5063	178.433	6.37012
10.5081	173.05	6.38965
10.5096	168.397	6.40918
10.5118	181.626	6.42871
10.5132	182.312	6.44824
10.5145	172.5759	6.46777
10.5146	178.478	6.4873
10.5184	181.4718	6.50684
10.519	177.997	6.52637
10.5207	179.054	6.5459
10.5219	188.5771	6.56543
10.52412	180.075	6.58496
10.5256	183.192	6.60449
10.5282	188.387	6.62402
10.5294	185.697	6.64355
10.5304	181.418	6.66309
10.532	193.147	6.68262
10.5339	190.929	6.70215
10.5344	184.751	6.72168
10.5371	190.173	6.74121
10.5386	194.849	6.76074
10.5408	185.582	6.78027
10.5417	195.5923	6.7998
10.5435	199.677	6.81934
10.5455	189.056	6.83887
10.546	190.911	6.8584
10.5484	204.126	6.87793
10.5498	196.185	6.89746
10.5527	194.362	6.91699
10.5526	205.355	6.93652
10.5544	197.72	6.95605
10.5555	194.718	6.97559
10.559	207.324	6.99512
10.5596	204.992	7.01465
10.5615	197.941	7.03418
10.563	211.098	7.05371
10.5647	207.744	7.07324
10.5662	201.256	7.09277
10.5677	208.8522	7.1123
10.56995	215.467	7.13184
10.5714	205.1107	7.15137
10.5732	210.012	7.1709
10.5739	214.804	7.19043
10.5759	209.492	7.20996
10.5785	211.032	7.22949
10.5801	222.27	7.24902
10.581	213.487	7.26855
10.5828	212.099	7.28809
10.5831	219.295	7.30762
10.5859	222.1109	7.32715
10.5879	212.4409	7.34668
10.5888	223.436	7.36621
10.5909	224.841	7.38574
10.5925	219.066	7.40527
10.5934	219.577	7.4248
10.59605	229.132	7.44434
10.5973	220.141	7.46387
10.5998	225.49	7.4834
10.5998	232.989	7.50293
10.6017	223.848	7.52246
10.6051	221.453	7.54199
10.6052	235.557	7.56152
10.607	229.105	7.58105
10.6088	225.062	7.60059
10.60997	236.06	7.62012
10.6122	230.794	7.63965
10.6142	226.041	7.65918
10.61491	239.165	7.67871
10.6163	238.758	7.69824
10.61911	229.654	7.71777
10.6205	241.269	7.7373
10.6214	242.879	7.75684
10.6235	234.032	7.77637
10.6266	237.964	7.7959
10.6269	247.959	7.81543
10.6282	239.896	7.83496
10.6306	241.284	7.85449
10.6308	246.833	7.87402
10.6333	244.101	7.89355
10.6351	240.489	7.91309
10.6373	253.249	7.93262
10.6381	248.028	7.95215
10.6398	242.094	7.97168
10.6422	249.307	7.99121
10.643	255.495	8.01074
10.6449	243.89	8.03027
10.64659	253.393	8.0498
10.6476	256.949	8.06934
10.6493	248.354	8.08887
10.651	251.14	8.1084
10.6523	263.082	8.12793
10.6545	251.389	8.14746
10.6561	255.791	8.16699
10.6577	264.885	8.18652
10.6591	258.352	8.20605
10.6606	251.719	8.22559
10.6627	265.839	8.24512
10.6648	263.198	8.26465
10.6659	256.234	8.28418
10.6672	267.615	8.30371
10.669	267.005	8.32324
10.6701	256.474	8.34277
10.67228	268.069	8.3623
10.6739	273.407	8.38184
10.6758	262.334	8.40137
10.6769	266.361	8.4209
10.6795	273.272	8.44043
10.6809	268.37	8.45996
10.6827	266.249	8.47949
10.6833	279.262	8.49902
10.6847	272.297	8.51855
10.6865	270.056	8.53809
10.6883	277.469	8.55762
10.6895	278.53	8.57715
10.6919	271.056	8.59668
10.6926	282.371	8.61621
10.6952	284.571	8.63574
10.6966	276.5394	8.65527
10.6989	277.825	8.6748
10.6997	289.157	8.69434
10.7015	277.168	8.71387
10.7035	282.371	8.7334
10.7038	289.57	8.75293
10.7055	281.638	8.77246
10.7086	280.393	8.79199
10.71	295.242	8.81152
10.7114	285.989	8.83105
10.71244	281.665	8.85059
10.7144	294.591	8.87012
10.7161	291.7634	8.88965
10.71757	283.314	8.90918
10.7186	296.596	8.92871
10.7211	295.28	8.94824
10.7228	289.145	8.96777
10.7243	296.241	8.9873
10.7258	301.604	9.00684
10.728	287.951	9.02637
10.72878	297.292	9.0459
10.731	306.503	9.06543
10.7325	295.973	9.08496
10.7335	296.732	9.10449
10.73646	302.93	9.12402
10.73803	300.965	9.14355
10.7386	298.7525	9.16309
10.7411	308.223	9.18262
10.743	304.935	9.20215
10.74336	301.462	9.22168
10.745	306.501	9.24121
10.7465	312.816	9.26074
10.749	300.79	9.28027
10.7508	310.783	9.2998
10.7514	317.606	9.31934
10.7535	307.91	9.33887
10.7554	306.5	9.3584
10.757	320.884	9.37793
10.7573	310.851	9.39746
10.7605	312.5116	9.41699
10.7616	323.062	9.43652
10.7631	316.0668	9.45605
10.7653	308.5043	9.47559
10.7668	325.365	9.49512
10.7682	320.764	9.51465
10.7701	313.543	9.53418
10.77177	323.5361	9.55371
10.77326	327.587	9.57324
10.7746	315.159	9.59277
10.7761	326.386	9.6123
10.7769	329.576	9.63184
10.7796	321.1579	9.65137
10.7816	323.861	9.6709
10.7844	331.4104	9.69043
10.7842	323.28	9.70996
10.7872	323.482	9.72949
10.7872	336.126	9.74902
10.7904	331.859	9.76855
10.7911	328.768	9.78809
10.7926	336.762	9.80762
10.7937	335.946	9.82715
10.7958	327.981	9.84668
10.7976	339.121	9.86621
10.7987	340.2359	9.88574
10.8002	331.401	9.90527
10.803	336.689	9.9248
10.80403	346.947	9.94434
10.8055	333.716	9.96387
10.807	338.9653	9.9834
10.81	349.911	10.00293
10.8104	342.069	10.0225
10.8123	336.248	10.042
10.8137	352.29	10.0615
10.815	342.609	10.0811
10.81597	340.01	10.1006
10.8187	353.131	10.1201
10.8201	351.1651	10.1396
10.8212	338.271	10.15918
10.8229	353.783	10.1787
10.8253	354.195	10.1982
10.8268	345.917	10.2178
10.8274	352.489	10.2373
10.83083	358.111	10.2568
10.8321	345.8035	10.2764
10.8324	354.292	10.2959
10.8351	360.968	10.31543
10.8361	352.344	10.335
10.8386	355.136	10.3545
10.83966	363.851	10.374
10.8416	358.669	10.3936
10.8435	353.622	10.4131
10.8444	365.337	10.4326
10.8463	362.622	10.4521
10.8483	357.745	10.47168
10.8491	363.464	10.4912
10.8517	368.906	10.5107
10.853	357.887	10.5303
10.8547	367.941	10.5498
10.8566	373.935	10.5693
10.8584	365.13	10.5889
10.8592	363.615	10.6084
10.8618	378.892	10.62793
10.86255	368.049	10.6475
10.8644	369.812	10.667
10.8666	378.015	10.6865
10.8676	374.664	10.7061
10.8684	365.802	10.7256
10.8708	381.381	10.7451
10.8716	377.681	10.7646
10.8751	370.443	10.78418
10.8751	381.4751	10.8037
10.8781	385.56	10.8232
10.8791	370.7515	10.8428
10.8801	382.546	10.8623
10.8825	386.46	10.8818
10.8826	376.918	10.9014
10.88463	381.3989	10.9209
10.8877	389.706	10.94043
10.8874	378.753	10.96
10.8904	383.715	10.9795
10.8913	393.5491	10.999
10.8936	386.358	11.0186
10.8947	382.481	11.0381
10.8971	393.241	11.0576
10.8983	390.823	11.0771
10.9003	384.363	11.09668
10.9006	395.982	11.1162
10.9044	395.255	11.1357
10.9052	388.358	11.1553
10.9074	394.033	11.1748
10.9085	399.669	11.1943
10.9099	390.33	11.2139
10.9114	395.061	11.2334
10.9136	405.829	11.25293
10.9146	397.458	11.2725
10.9159	391.7283	11.292
10.9187	408.065	11.3115
10.9195	403.456	11.3311
10.9211	398.892	11.3506
10.9237	407.69	11.3701
10.924	405.922	11.3896
10.9263	393.963	11.40918
10.9283	411.051	11.4287
10.9287	409.714	11.4482
10.9302	399.858	11.4678
10.9318	410.1	11.4873
10.9342	416.542	11.5068
10.9361	401.551	11.5264
10.9373	409.739	11.5459
10.9393	419.401	11.56543
10.9406	410.643	11.585
10.9429	411.181	11.6045
10.9439	419.915	11.624
10.9452	411.297	11.6436
10.9472	409.725	11.6631
10.949	421.806	11.6826
10.9514	421.257	11.7021
10.9519	410.653	11.72168
10.9537	420.695	11.7412
10.9544	424.059	11.7607
10.9579	414.859	11.7803
10.9591	422.241	11.7998
10.9618	427.15	11.8193
10.962	419.8649	11.8389
10.964	420.141	11.8584
10.9653	432.399	11.87793
10.9668	420.729	11.8975
10.9677	423.866	11.917
10.9709	435.609	11.9365
10.9715	429.528	11.9561
10.9725	420.372	11.9756
10.975	436.79	11.9951
10.9766	432.467	12.0146
10.9769	426.33	12.03418
10.98	436.585	12.0537
10.98139	438.032	12.0732
10.9823	425.613	12.0928
10.9849	439.421	12.1123
10.9861	442.183	12.1318
10.9879	433.486	12.1514
10.9898	436.432	12.1709
10.9917	445.74	12.19043
10.992	433.941	12.21
10.9943	437.1174	12.2295
10.9958	447.0011	12.249
10.99741	441.754	12.2686
10.9992	438.169	12.2881
11.0011	450.388	12.3076
11.0025	442.7377	12.3271
11.004	439.042	12.34668
11.0057	451.236	12.3662
11.0079	452.834	12.3857
11.0095	441.835	12.4053
11.0103	446.209	12.4248
11.012	453.555	12.4443
11.0142	445.315	12.4639
11.0156	449.716	12.4834
11.0168	458.248	12.50293
11.0191	450.273	12.5225
11.0204	447.5192	12.542
11.0211	461.523	12.5615
11.0235	455.986	12.5811
11.02499	450.796	12.6006
11.0276	462.847	12.6201
11.02861	462.046	12.6396
11.0306	450	12.65918
11.0317	462.258	12.6787
11.0334	465.0491	12.6982
11.0342	455.853	12.7178
11.0365	464.832	12.7373
11.0387	472.293	12.7568
11.0396	455.294	12.7764
11.0418	465.1431	12.7959
11.0432	472.348	12.81543
11.0458	463.737	12.835
11.0455	462.917	12.8545
11.0476	474.981	12.874
11.0493	465.249	12.8936
11.0514	466.198	12.9131
11.0523	475.6084	12.9326
11.0538	473.006	12.9521
11.0564	466.26	12.97168
11.0585	477.352	12.9912
11.0592	476.862	13.0107
11.0603	468.96	13.0303
11.0627	476.14	13.0498
11.0648	483.144	13.0693
11.0653	473.003	13.0889
11.0673	474.981	13.1084
11.0691	485.021	13.12793
11.07007	475.794	13.1475
11.0723	477.474	13.167
11.0745	487.216	13.1865
11.076	481.359	13.2061
11.07681	473.112	13.2256
11.07954	490.875	13.2451
11.0801	486.606	13.2646
11.08192	478.886	13.28418
11.0827	489.8	13.3037
11.0852	492.9675	13.3232
11.0875	480.17	13.3428
11.0885	491.0412	13.3623
11.0905	495.056	13.3818
11.0921	486.319	13.4014
11.093	490.0336	13.4209
11.0952	501.188	13.44043
11.0966	486.899	13.46
11.0989	492.6792	13.4795
11.1005	499.171	13.499
11.1024	496.3	13.5186
11.1027	492.659	13.5381
11.105	503.299	13.5576
11.1077	496.994	13.5771
11.10776	493.758	13.59668
11.1103	503.3067	13.6162
11.1106	505.612	13.6357
11.1129	495.113	13.6553
11.115	502.472	13.6748
11.1164	508.491	13.6943
11.118	500.3	13.7139
11.1202	502.647	13.7334
11.1217	511.442	13.75293
11.1236	507.605	13.7725
11.1246	502.409	13.792
11.1258	513.597	13.8115
11.1277	508.064	13.8311
11.1288	504.726	13.8506
11.1311	517.953	13.8701
11.133	515.06	13.8896
11.1345	502.176	13.90918
11.1362	516.87	13.9287
11.1379	519.5	13.9482
11.13947	509.7	13.9678
11.1404	515.748	13.9873
11.1418	524.052	14.0068
11.1446	509.024	14.0264
11.146	518.2019	14.0459
11.1492	525.248	14.06543
11.1483	516.714	14.085
11.1514	515.9668	14.1045
11.1526	530.435	14.124
11.1542	517.5379	14.1436
11.1551	517.902	14.1631
11.1568	528.394	14.1826
11.1587	526.691	14.2021
11.1603	519.2215	14.22168
11.1618	530.835	14.2412
11.1639	527.514	14.2607
11.1649	522.135	14.2803
11.167	528.188	14.2998
11.1685	536.035	14.3193
11.1711	524.912	14.3389
11.1725	528.544	14.3584
11.1738	536.572	14.37793
11.17448	529.518	14.3975
11.1764	528.932	14.417
11.1779	538.535	14.4365
11.1801	535.448	14.4561
11.1814	528.29	14.4756
11.1822	541.886	14.4951
11.1857	538.012	14.5146
11.1854	532.276	14.53418
11.1878	542.793	14.5537
11.1884	545.451	14.5732
11.1918	530.377	14.5928
11.1928	541.163	14.6123
11.1949	548.959	14.6318
11.197	538.064	14.6514
11.1969	542.6618	14.6709
11.1985	552.055	14.69043
11.2007	537.578	14.71
11.20303	542.7868	14.7295
11.204	553.542	14.749
11.2063	547.329	14.7686
11.2067	544.339	14.7881
11.2092	555.723	14.8076
11.21088	549.85	14.8271
11.2122	546.884	14.84668
11.2143	552.221	14.8662
11.2162	555.986	14.8857
11.218	547.4115	14.9053
11.2193	554.803	14.9248
11.2204	557.161	14.9443
11.2213	549.99	14.9639
11.2232	554.291	14.9834
11.2257	563.078	15.00293
11.2263	555.96	15.0225
11.2284	551.47	15.042
11.2305	563.316	15.0615
11.2319	559.752	15.0811
11.2344	556.565	15.1006
11.2351	566.118	15.1201
11.2366	565.165	15.1396
11.2383	554.848	15.15918
11.2406	566.694	15.1787
11.2424	569.581	15.1982
11.242	558.822	15.2178
11.2458	566.3512	15.2373
11.2467	574.6	15.2568
11.248	560.682	15.2764
11.2503	565.022	15.2959
11.2516	573.471	15.31543
11.2531	568.152	15.335
11.2555	568.157	15.3545
11.2566	578.432	15.374
11.2589	567.419	15.3936
11.2595	568.852	15.4131
11.261	578.526	15.4326
11.2634	578.409	15.4521
11.26461	569.06	15.47168
11.2665	579.536	15.4912
11.2666	577.198	15.5107
11.2691	572.986	15.5303
11.2701	578.425	15.5498
11.2742	585.629	15.5693
11.2743	575.5351	15.5889
11.2756	580.2605	15.6084
11.2773	584.798	15.62793
11.27937	578.766	15.6475
11.2808	577.616	15.667
11.2824	590.2323	15.6865
11.283	584.463	15.7061
11.2855	576.979	15.7256
11.2876	588.3291	15.7451
11.2884	588.781	15.7646
11.2911	582.141	15.78418
11.2919	590.627	15.8037
11.2932	593.5174	15.8232
11.2953	581.0976	15.8428
11.2962	591.987	15.8623
11.2994	600.1413	15.8818
11.3	589.314	15.9014
11.3025	589.074	15.9209
11.3048	600.539	15.94043
11.3048	587.76	15.96
11.3061	590.681	15.9795
11.3082	600.1842	15.999
11.30958	597.019	16.0186
11.3127	591.903	16.0381
11.3137	605.983	16.0576
11.3147	597.642	16.0771
11.3173	592.383	16.09668
11.3178	601.981	16.1162
11.3201	605.7298	16.1357
11.3221	595.95	16.1553
11.3235	604.982	16.1748
11.3245	604.99	16.1943
11.3264	600.595	16.2139
11.3273	601.199	16.2334
11.3296	612.746	16.25293
11.3308	601.0058	16.2725
11.3335	604.294	16.292
11.3338	613.624	16.3115
11.3363	608.361	16.3311
11.3384	602.715	16.3506
11.3404	616.035	16.3701
11.3405	614.547	16.3896
11.3424	604.645	16.40918
11.3434	613.779	16.4287
11.34643	616.809	16.4482
11.3465	606.3479	16.4678
11.349	614.832	16.4873
11.3506	621.859	16.5068
11.3519	606.941	16.5264
11.3548	615.3269	16.5459
11.3555	623.709	16.56543
11.35787	618.1535	16.585
11.3591	614.838	16.6045
11.3608	626.724	16.624
11.3628	616.0105	16.6436
11.3639	616.059	16.6631
11.3644	627.11	16.6826
11.367	625.086	16.7021
11.3688	616.4	16.72168
11.36981	630.168	16.7412
11.3722	627.089	16.7607
11.373	619.198	16.7803
11.3756	625.772	16.7998
11.3767	635.962	16.8193
11.3786	624.178	16.8389
11.3798	628.627	16.8584
11.3822	632.909	16.87793
11.3839	627.9928	16.8975
11.3847	627.3548	16.917
11.3866	639.315	16.9365
11.3881	632.38	16.9561
11.3894	627.399	16.9756
11.3913	637.047	16.9951
11.3932	638.2	17.0146
11.3946	629.026	17.03418
11.396	638.5528	17.0537
11.3994	641.8161	17.0732
11.3992	631.017	17.0928
11.4006	638.097	17.1123
11.4017	645.265	17.1318
11.405	633.407	17.1514
11.4066	639.949	17.1709
11.4077	649.553	17.19043
11.4098	636.155	17.21
11.4115	637.452	17.2295
11.4129	650.233	17.249
11.4137	644.846	17.2686
11.4156	639.355	17.2881
11.4168	650.1535	17.3076
11.4193	643.379	17.3271
11.42064	642.082	17.34668
11.422	650.854	17.3662
11.4244	653.3642	17.3857
11.4259	640.746	17.4053
11.427	652.038	17.4248
11.429	653.826	17.4443
11.4303	647.367	17.4639
11.4317	649.39	17.4834
11.4336	661.136	17.50293
11.4359	651.396	17.5225
11.4375	653.014	17.542
11.4401	657.749	17.5615
11.4401	655.535	17.5811
11.4419	650.47	17.6006
11.4433	662.856	17.6201
11.4453	659.863	17.6396
11.4468	652.071	17.65918
11.4479	660.694	17.6787
11.44992	665.334	17.6982
11.4513	656.121	17.7178
11.4531	661.899	17.7373
11.4551	666.599	17.7568
11.4568	654.758	17.7764
11.4597	660.726	17.7959
11.4596	670.914	17.81543
11.4621	662.585	17.835
11.4629	661.075	17.8545
11.4645	674.91	17.874
11.4659	665.066	17.8936
11.4682	661.585	17.9131
11.4701	672.5473	17.9326
11.4705	671.025	17.9521
11.4731	663.633	17.97168
11.475	675.239	17.9912
11.477	671.174	18.0107
11.4775	666.909	18.0303
11.4798	673.426	18.0498
11.4791	680.63	18.0693
11.4824	667.821	18.0889
11.4843	672.904	18.1084
11.4862	677.928	18.12793
11.4882	675.307	18.1475
11.4901	671.448	18.167
11.49	684.577	18.1865
11.493	677.727	18.2061
11.4947	674.791	18.2256
11.496	682.177	18.2451
11.4976	681.836	18.2646
11.4987	672.085	18.28418
11.5001	687.0163	18.3037
11.5025	687.448	18.3232
11.5034	676.688	18.3428
11.5058	680.169	18.3623
11.50659	689.444	18.3818
11.5089	680.594	18.4014
11.51	683.605	18.4209
11.5122	692.585	18.44043
11.5129	681.5921	18.46
11.5147	682.035	18.4795
11.5168	694.574	18.499
11.5184	688.351	18.5186
11.5203	682.26	18.5381
11.5217	695.3158	18.5576
11.5229	689.814	18.5771
11.5243	684.877	18.59668
11.5266	694.119	18.6162
11.52787	699.444	18.6357
11.53	686.8999	18.6553
11.53116	697.2287	18.6748
11.5336	695.17	18.6943
11.5346	690.977	18.7139
11.537	694.279	18.7334
11.53932	705.822	18.75293
11.5403	694.125	18.7725
11.5412	694.603	18.792
11.54215	701.697	18.8115
11.5445	702.333	18.8311
11.54617	695.367	18.8506
11.5494	707.03	18.8701
11.5493	704.441	18.8896
11.5504	696.21	18.90918
11.5523	704.933	18.9287
11.5541	709.086	18.9482
11.5564	697.144	18.9678
11.5572	707.04	18.9873
11.5581	711.147	19.0068
11.5603	702.001	19.0264
11.5617	702.492	19.0459
11.563	714.031	19.06543
11.566	705.712	19.085
11.5675	706.199	19.1045
11.5685	717.167	19.124
11.5708	707.612	19.1436
11.5731	705.953	19.1631
11.57299	718.384	19.1826
11.5748	714.39	19.2021
11.5765	706.159	19.22168
11.5783	717.967	19.2412
11.58079	714.421	19.2607
11.5812	708.417	19.2803
11.5829	717.392	19.2998
11.5855	722.873	19.3193
11.5875	711.378	19.3389
11.5876	718.2182	19.3584
11.59018	721.594	19.37793
11.592	715.248	19.3975
11.5941	714.844	19.417
11.5955	726.862	19.4365
11.59735	721.796	19.4561
11.5987	717.151	19.4756
11.6001	723.2	19.4951
11.6012	726.499	19.5146
11.6031	718.4826	19.53418
11.6038	727.953	19.5537
11.6061	729.591	19.5732
11.6086	719.592	19.5928
11.6088	724.9726	19.6123
11.6107	734.278	19.6318
11.6113	720.387	19.6514
11.6138	726.124	19.6709
11.616	735.342	19.69043
11.6174	726.756	19.71
11.6191	722.263	19.7295
11.6211	736.333	19.749
11.6227	730.061	19.7686
11.6237	725.006	19.7881
11.6255	740.205	19.8076
11.6265	731.9679	19.8271
11.6289	725.201	19.84668
11.6309	737.084	19.8662
11.6331	740.84	19.8857
11.6339	729.211	19.9053
11.63464	737.707	19.9248
11.6372	741.072	19.9443
11.6382	733.493	19.9639
11.6408	737.692	19.9834
11.6426	745.558	20.00293
11.643	738.427	20.0127

Data Header:			0.254_hd_dimension_typei_4545_r0			Time:	40.0178	s	4/15/2019 3:12:41 PM
Data Acquisition:	Timed
Station Name:	ft40.cfg
Test File Name:	monotonic_0.2540_typei_hd_4545_dimension.tst
Displacement	Force	Running Time
mm	N	s
11.6434	736.377	20.0225
11.6452	737.122	20.042
11.6471	745.145	20.0615
11.6489	741.538	20.0811
11.6511	734.082	20.1006
11.6518	748.443	20.1201
11.65388	745.856	20.1396
11.6553	740.58	20.15918
11.6566	745.252	20.1787
11.6584	749.868	20.1982
11.6601	738.2041	20.2178
11.662	749.518	20.2373
11.6639	752.524	20.2568
11.665	741.354	20.2764
11.6665	744.65	20.2959
11.6682	757.796	20.31543
11.66983	746.56	20.335
11.67	747.962	20.3545
11.6728	757.61	20.374
11.6749	749.512	20.3936
11.6754	743.459	20.4131
11.6781	760.02	20.4326
11.6789	753.759	20.4521
11.6808	746.06	20.47168
11.6828	759.766	20.4912
11.68406	758.207	20.5107
11.6856	746.44	20.5303
11.688	756.491	20.5498
11.6896	762.045	20.5693
11.6907	752.426	20.5889
11.692	758.75	20.6084
11.6941	760.743	20.62793
11.6959	755.717	20.6475
11.6969	753.907	20.667
11.69903	767.962	20.6865
11.7013	760.709	20.7061
11.7025	756.65	20.7256
11.7039	764.375	20.7451
11.7056	765.597	20.7646
11.7069	755.383	20.78418
11.70851	767.888	20.8037
11.7107	768.698	20.8232
11.7124	760.564	20.8428
11.7138	763.727	20.8623
11.715	772.077	20.8818
11.7166	761.187	20.9014
11.7187	767.368	20.9209
11.71904	775.466	20.94043
11.7225	765.063	20.96
11.7242	762.397	20.9795
11.7255	778.591	20.999
11.7263	770.06	21.0186
11.728	764.493	21.0381
11.7304	776.199	21.0576
11.73157	771.666	21.0771
11.7327	765.602	21.09668
11.7351	778.431	21.1162
11.736	777.3006	21.1357
11.7383	765.571	21.1553
11.7397	776.135	21.1748
11.7416	780.05	21.1943
11.7427	770.2005	21.2139
11.7443	772.9696	21.2334
11.7467	784.9234	21.25293
11.7485	774.4743	21.2725
11.74925	777.351	21.292
11.7509	781.36	21.3115
11.7529	778.058	21.3311
11.754	773.784	21.3506
11.7559	787.309	21.3701
11.7569	784.323	21.3896
11.7591	775.656	21.40918
11.76153	781.843	21.4287
11.7616	787.811	21.4482
11.7645	775.613	21.4678
11.7663	785.095	21.4873
11.7667	791.465	21.5068
11.76883	780.516	21.5264
11.77037	782.183	21.5459
11.7723	793.823	21.56543
11.7738	782.571	21.585
11.7751	783.114	21.6045
11.7769	794.8147	21.624
11.7784	788.142	21.6436
11.7804	779.797	21.6631
11.7823	796.117	21.6826
11.7844	790.606	21.7021
11.7859	783.866	21.72168
11.7864	794.739	21.7412
11.7884	792.801	21.7607
11.79	783.671	21.7803
11.7922	795.141	21.7998
11.7933	800.297	21.8193
11.7948	787.462	21.8389
11.79729	792.821	21.8584
11.7989	801.2301	21.87793
11.7997	790.992	21.8975
11.8016	792.277	21.917
11.8029	804.274	21.9365
11.8039	795.915	21.9561
11.8075	793.8985	21.9756
11.8078	801.724	21.9951
11.8107	799.987	22.0146
11.8111	790.907	22.03418
11.8129	804.963	22.0537
11.8151	805.946	22.0732
11.8157	795.867	22.0928
11.8182	798.826	22.1123
11.8189	810.256	22.1318
11.8211	796.228	22.1514
11.823	802.471	22.1709
11.8244	808.353	22.19043
11.8249	800.247	22.21
11.8277	797.775	22.2295
11.8285	813.256	22.249
11.8316	803.598	22.2686
11.8329	799.812	22.2881
11.83433	812.0434	22.3076
11.8361	811.047	22.3271
11.8368	798.945	22.34668
11.8385	810.629	22.3662
11.8413	810.057	22.3857
11.8418	803.733	22.4053
11.8431	811.49	22.4248
11.8451	816.294	22.4443
11.8469	802.808	22.4639
11.8486	808.579	22.4834
11.85	819.983	22.50293
11.852	808.533	22.5225
11.8531	810.268	22.542
11.856	818.623	22.5615
11.8568	812.029	22.5811
11.8587	807.486	22.6006
11.8592	819.661	22.6201
11.8627	815.441	22.6396
11.8639	811.388	22.65918
11.8641	817.266	22.6787
11.8669	821.752	22.6982
11.8686	808.449	22.7178
11.8703	818.71	22.7373
11.8709	823.0882	22.7568
11.8731	814.093	22.7764
11.8741	813.443	22.7959
11.8764	828.182	22.81543
11.8777	813.4837	22.835
11.8793	817.344	22.8545
11.8821	826.301	22.874
11.8826	818.914	22.8936
11.8841	812.053	22.9131
11.8876	828.1535	22.9326
11.8878	824.0708	22.9521
11.89007	814.49	22.97168
11.8895	825.201	22.9912
11.89241	828.064	23.0107
11.895	816.031	23.0303
11.8969	826.424	23.0498
11.89709	831.971	23.0693
11.8993	820.156	23.0889
11.901	826.197	23.1084
11.9023	833.41	23.12793
11.9042	821.507	23.1475
11.9057	823.928	23.167
11.9078	834.714	23.1865
11.9087	826.76	23.2061
11.9111	825.096	23.2256
11.9126	832.085	23.2451
11.9133	831.87	23.2646
11.9153	825.243	23.28418
11.9166	835.847	23.3037
11.9191	835.095	23.3232
11.9192	827.157	23.3428
11.9221	830.388	23.3623
11.92296	838.811	23.3818
11.92486	827.684	23.4014
11.9266	832.035	23.4209
11.9288	841.123	23.44043
11.9295	834.792	23.46
11.9314	828.192	23.4795
11.9333	841.661	23.499
11.9343	835.216	23.5186
11.9357	832.243	23.5381
11.93806	842.172	23.5576
11.9397	838.748	23.5771
11.9412	826.5788	23.59668
11.943	842.948	23.6162
11.94419	843.146	23.6357
11.94591	832.323	23.6553
11.9473	841.293	23.6748
11.9502	844.797	23.6943
11.9514	831.977	23.7139
11.9528	841.066	23.7334
11.9541	845.948	23.75293
11.9563	837.736	23.7725
11.9579	836.806	23.792
11.959	847.311	23.8115
11.9598	840.389	23.8311
11.9628	835.311	23.8506
11.9649	849.005	23.8701
11.966	846.3988	23.8896
11.968	840.201	23.90918
11.9685	845.242	23.9287
11.97078	848.907	23.9482
11.9733	839.18	23.9678
11.9745	848.467	23.9873
11.9757	852.212	24.0068
11.9767	841.061	24.0264
11.9781	841.64	24.0459
11.9806	856.634	24.06543
11.9818	843.71	24.085
11.9828	847.273	24.1045
11.9849	854.682	24.124
11.9863	849.961	24.1436
11.9892	841.978	24.1631
11.9891	856.266	24.1826
11.9918	849.9375	24.2021
11.9927	844.468	24.22168
11.9941	854.214	24.2412
11.9962	857.862	24.2607
11.9982	842.588	24.2803
12.0005	854.616	24.2998
12.0014	859.327	24.3193
12.0032	848.751	24.3389
12.0047	853.376	24.3584
12.006	858.492	24.37793
12.0081	848.173	24.3975
12.0095	851.688	24.417
12.0117	861.614	24.4365
12.013	853.929	24.4561
12.015	850.671	24.4756
12.0175	861.102	24.4951
12.0181	858.75	24.5146
12.02	850.944	24.53418
12.0219	860.794	24.5537
12.023	859.717	24.5732
12.0247	854.914	24.5928
12.0254	858.528	24.6123
12.027	865.363	24.6318
12.029	851.8327	24.6514
12.0318	860.333	24.6709
12.032	865.925	24.69043
12.0344	857.699	24.71
12.03656	853.876	24.7295
12.0376	867.908	24.749
12.0393	859.625	24.7686
12.0404	857.2536	24.7881
12.0425	867.85	24.8076
12.0444	864.49	24.8271
12.045	853.085	24.84668
12.0473	869.434	24.8662
12.0486	866.582	24.8857
12.051	856.727	24.9053
12.0518	865.682	24.9248
12.0551	872.844	24.9443
12.05636	857.831	24.9639
12.0568	864.507	24.9834
12.0587	871.871	25.00293
12.0597	863.809	25.0225
12.061	864.386	25.042
12.0634	872.456	25.0615
12.064	862.815	25.0811
12.0664	862.578	25.1006
12.06821	873.925	25.1201
12.0694	870.028	25.1396
12.0717	862.944	25.15918
12.0734	871	25.1787
12.0743	872.362	25.1982
12.0781	863.603	25.2178
12.0782	871.005	25.2373
12.08035	874.43	25.2568
12.0816	865.511	25.2764
12.0833	867.895	25.2959
12.0852	878.174	25.31543
12.0859	865.613	25.335
12.087	868.982	25.3545
12.0896	877.597	25.374
12.0919	874.814	25.3936
12.0924	862.377	25.4131
12.0943	879.593	25.4326
12.0961	872.926	25.4521
12.0974	868.805	25.47168
12.0995	876.981	25.4912
12.1009	879.585	25.5107
12.1026	865.764	25.5303
12.103	878.06	25.5498
12.1068	880.659	25.5693
12.1074	869.977	25.5889
12.1096	874.122	25.6084
12.1106	884.585	25.62793
12.11254	870.386	25.6475
12.11376	872.5639	25.667
12.1151	882.603	25.6865
12.1179	877.34	25.7061
12.1183	872.865	25.7256
12.12083	883.52	25.7451
12.1217	875.971	25.7646
12.12339	872.3	25.78418
12.12582	882.98	25.8037
12.1263	883.721	25.8232
12.128	875.184	25.8428
12.1309	878.499	25.8623
12.1315	884.116	25.8818
12.1329	875.511	25.9014
12.1343	880.741	25.9209
12.13666	886.186	25.94043
12.1384	879.214	25.96
12.1398	875.013	25.9795
12.1414	889.0968	25.999
12.1427	881.046	26.0186
12.1458	876.737	26.0381
12.1471	886.1629	26.0576
12.1477	885.179	26.0771
12.1493	873.567	26.09668
12.151	887.384	26.1162
12.1523	887.252	26.1357
12.1542	878.265	26.1553
12.157	886.595	26.1748
12.15782	890.634	26.1943
12.1596	875.63	26.2139
12.1608	885.609	26.2334
12.1628	892.256	26.25293
12.16429	881.984	26.2725
12.1659	881.307	26.292
12.168	892.009	26.3115
12.1689	882.819	26.3311
12.1702	882.383	26.3506
12.173	889.805	26.3701
12.1741	888.905	26.3896
12.1754	880.463	26.40918
12.1776	890.773	26.4287
12.1792	891.367	26.4482
12.1809	879.954	26.4678
12.1814	889.698	26.4873
12.1842	894.423	26.5068
12.1861	885.052	26.5264
12.1869	884.916	26.5459
12.1885	894.33	26.56543
12.1908	885.902	26.585
12.1924	888.022	26.6045
12.1939	894.716	26.624
12.1944	890.232	26.6436
12.1969	880.478	26.6631
12.1988	896.527	26.6826
12.1993	892.529	26.7021
12.2027	885.362	26.72168
12.2036	893.392	26.7412
12.2061	897.639	26.7607
12.2062	882.721	26.7803
12.2089	894.734	26.7998
12.2105	896.335	26.8193
12.2113	889.034	26.8389
12.2131	892.487	26.8584
12.2154	898.843	26.87793
12.217	885.842	26.8975
12.2171	890.857	26.917
12.22036	899.395	26.9365
12.2209	892.778	26.9561
12.222	888.132	26.9756
12.22422	898.782	26.9951
12.2256	892.626	27.0146
12.2277	889.174	27.03418
12.2297	897.544	27.0537
12.2318	897.477	27.0732
12.2328	889.022	27.0928
12.2344	895.598	27.1123
12.2357	900.345	27.1318
12.2371	890.262	27.1514
12.2396	895.441	27.1709
12.2414	901.277	27.19043
12.2432	895.45	27.21
12.2445	890.264	27.2295
12.245	901.8302	27.249
12.2473	894.297	27.2686
12.2495	891.586	27.2881
12.2512	902.905	27.3076
12.2518	901.187	27.3271
12.255	887.568	27.34668
12.25536	902.659	27.3662
12.2571	900.847	27.3857
12.2576	891.8645	27.4053
12.2593	898.329	27.4248
12.26255	906.611	27.4443
12.2638	891.467	27.4639
12.26473	898.863	27.4834
12.2669	904.99	27.50293
12.2689	896.3783	27.5225
12.2699	896.044	27.542
12.2714	906.381	27.5615
12.2733	895.787	27.5811
12.2748	895.574	27.6006
12.27589	902.522	27.6201
12.2793	902.369	27.6396
12.2794	895.099	27.65918
12.2813	903.734	27.6787
12.2839	902.482	27.6982
12.2846	895.605	27.7178
12.2863	902.306	27.7373
12.2884	904.23	27.7568
12.2901	896.604	27.7764
12.2911	900.299	27.7959
12.29226	907.212	27.81543
12.2949	899.081	27.835
12.2965	897.1571	27.8545
12.2982	906.506	27.874
12.299	902.04	27.8936
12.3	895.132	27.9131
12.3023	907.192	27.9326
12.3049	903.646	27.9521
12.3056	898.848	27.97168
12.3072	907.077	27.9912
12.30941	907.177	28.0107
12.3105	892.726	28.0303
12.31184	906.363	28.0498
12.3136	909.479	28.0693
12.3162	900.729	28.0889
12.3171	901.495	28.1084
12.3188	910.323	28.12793
12.3211	897.265	28.1475
12.3221	904.058	28.167
12.3238	910.586	28.1865
12.3248	905.073	28.2061
12.3273	900.486	28.2256
12.3292	910.531	28.2451
12.3302	904.1571	28.2646
12.33227	900.825	28.28418
12.3331	908.419	28.3037
12.3352	910.1889	28.3232
12.33578	901.224	28.3428
12.338	907.206	28.3623
12.3403	908.4939	28.3818
12.3427	902.207	28.4014
12.3436	905.462	28.4209
12.3454	913.46	28.44043
12.34685	903.275	28.46
12.3472	900.729	28.4795
12.3501	912.8866	28.499
12.3518	905.8045	28.5186
12.3536	902.268	28.5381
12.3543	912.147	28.5576
12.3561	910.927	28.5771
12.357	900.599	28.59668
12.3592	912.173	28.6162
12.3616	911.718	28.6357
12.3637	903.225	28.6553
12.3641	909.519	28.6748
12.366	915.262	28.6943
12.3697	900.394	28.7139
12.3687	907.607	28.7334
12.3707	913.887	28.75293
12.3723	906.966	28.7725
12.3747	905.993	28.792
12.3748	914.939	28.8115
12.3776	904.973	28.8311
12.3792	905.359	28.8506
12.38061	914.775	28.8701
12.3828	911.886	28.8896
12.3838	902.146	28.90918
12.3867	913.174	28.9287
12.3866	912.357	28.9482
12.3885	906.099	28.9678
12.3893	911.01	28.9873
12.3918	915.027	29.0068
12.3936	906.515	29.0264
12.3957	908.077	29.0459
12.3968	913.804	29.06543
12.3991	907.171	29.085
12.4003	908.798	29.1045
12.40203	918.325	29.124
12.4041	911.197	29.1436
12.4054	903.693	29.1631
12.4064	915.663	29.1826
12.4086	912.734	29.2021
12.4092	906.404	29.22168
12.4103	914.935	29.2412
12.4134	916.102	29.2607
12.4152	902.635	29.2803
12.4161	914.831	29.2998
12.4177	918.825	29.3193
12.4198	908.827	29.3389
12.4216	910.2113	29.3584
12.4224	920.594	29.37793
12.4245	907.866	29.3975
12.4257	911.305	29.417
12.4287	918.59	29.4365
12.43	912.873	29.4561
12.43164	908.311	29.4756
12.4334	920.253	29.4951
12.4345	912.089	29.5146
12.437	908.672	29.53418
12.4383	916	29.5537
12.4399	920.247	29.5732
12.44146	909.375	29.5928
12.4425	914.903	29.6123
12.4443	916.771	29.6318
12.44473	911.891	29.6514
12.44773	914.341	29.6709
12.45	918.499	29.69043
12.4511	911.75	29.71
12.4528	909.773	29.7295
12.4541	918.57	29.749
12.4551	913.337	29.7686
12.4568	909.45	29.7881
12.459	919.948	29.8076
12.4606	918.122	29.8271
12.4616	907.638	29.84668
12.4636	916.1	29.8662
12.4646	918.404	29.8857
12.4661	911.016	29.9053
12.4701	917.331	29.9248
12.4707	924.464	29.9443
12.4717	908.146	29.9639
12.473	917.623	29.9834
12.4752	921.884	30.00293
12.4759	913.506	30.0225
12.4787	913.553	30.042
12.4808	924.39	30.0615
12.4813	912.259	30.0811
12.4829	914.269	30.1006
12.4856	920.79	30.1201
12.4866	917.705	30.1396
12.489	913.143	30.15918
12.4903	922.275	30.1787
12.4903	919.207	30.1982
12.4934	911.373	30.2178
12.495	917.853	30.2373
12.4976	923.059	30.2568
12.49734	914.708	30.2764
12.4992	917.043	30.2959
12.5013	920.182	30.31543
12.5025	915.529	30.335
12.5041	915.717	30.3545
12.506	925.961	30.374
12.5077	917.403	30.3936
12.50936	912.935	30.4131
12.5112	922.942	30.4326
12.5123	920.347	30.4521
12.5143	912.189	30.47168
12.5159	921.564	30.4912
12.5175	925.154	30.5107
12.5187	913.452	30.5303
12.5207	919.863	30.5498
12.5232	923.784	30.5693
12.5252	916.959	30.5889
12.5264	918.514	30.6084
12.5268	927.389	30.62793
12.5285	913.669	30.6475
12.5302	917.063	30.667
12.5322	927.121	30.6865
12.5339	920.652	30.7061
12.5358	914.415	30.7256
12.5369	926.343	30.7451
12.5385	920.387	30.7646
12.5392	916.706	30.78418
12.5427	925.0567	30.8037
12.5437	925.16	30.8232
12.545	914.928	30.8428
12.5471	924.235	30.8623
12.5482	925.436	30.8818
12.5506	916.808	30.9014
12.5516	917.577	30.9209
12.5532	927.872	30.94043
12.5543	918.671	30.96
12.5564	918.052	30.9795
12.5586	923.197	30.999
12.5597	920.605	31.0186
12.561	915.417	31.0381
12.5631	927.989	31.0576
12.5645	923.7301	31.0771
12.5662	913.757	31.09668
12.568	924.326	31.1162
12.5696	927.079	31.1357
12.5708	917.427	31.1553
12.5728	922.567	31.1748
12.5743	931.049	31.1943
12.5761	916.866	31.2139
12.578	920.656	31.2334
12.5791	927.775	31.25293
12.5819	919.213	31.2725
12.5823	919.347	31.292
12.5841	932.1369	31.3115
12.58543	920.562	31.3311
12.5877	917.763	31.3506
12.58836	927.955	31.3701
12.5917	927.3783	31.3896
12.593	917.768	31.40918
12.5943	928.816	31.4287
12.596	924.674	31.4482
12.597	919.913	31.4678
12.5982	926.309	31.4873
12.60092	931.138	31.5068
12.6011	919.11	31.5264
12.604	924.7113	31.5459
12.6053	928.209	31.56543
12.6073	924.182	31.585
12.6078	920.3913	31.6045
12.61	932.082	31.624
12.6123	924.614	31.6436
12.6132	921.821	31.6631
12.615	927.747	31.6826
12.6164	926.233	31.7021
12.6183	919.153	31.72168
12.6197	928.411	31.7412
12.6211	930.305	31.7607
12.6232	918.4574	31.7803
12.6253	924.4024	31.7998
12.6265	933.108	31.8193
12.628	920.75	31.8389
12.6293	924.2395	31.8584
12.6317	933.957	31.87793
12.6333	921.925	31.8975
12.63383	922.425	31.917
12.63666	931.284	31.9365
12.6379	924.738	31.9561
12.6388	919.465	31.9756
12.6418	933.635	31.9951
12.6419	923.514	32.0146
12.6436	920.455	32.03418
12.6459	927.996	32.0537
[...]
14.7861	940.387	57.7373
14.7878	946.237	57.7568
14.7892	931.06	57.7764
14.7917	936.914	57.7959
14.79199	943.884	57.81543
14.795	937.981	57.835
14.79643	936.029	57.8545
14.7987	946.182	57.874
14.79874	935.158	57.8936
14.8007	935.62	57.9131
14.8027	944.727	57.9326
14.8032	940.584	57.9521
14.8056	933.601	57.97168
14.80737	943.055	57.9912
14.8093	940.676	58.0107
14.8112	934.181	58.0303
14.8121	939.044	58.0498
14.8134	945.8797	58.0693
14.8151	934.5119	58.0889
14.8176	937.838	58.1084
14.8183	940.604	58.12793
14.8202	935.9	58.1475
14.8222	934.157	58.167
14.8238	944.516	58.1865
14.8254	939.641	58.2061
14.8268	932.69	58.2256
14.8275	940.735	58.2451
14.8296	940.168	58.2646
14.831	934.285	58.28418
14.8328	940.876	58.3037
14.8352	943.784	58.3232
14.8361	929.911	58.3428
14.84	938.093	58.3623
14.84011	944.119	58.3818
14.8412	932.47	58.4014
14.8434	936.841	58.4209
14.8445	946.662	58.44043
14.8464	932.654	58.46
14.848	934.877	58.4795
14.849	944.151	58.499
14.8523	939.185	58.5186
14.8526	934.712	58.5381
14.8551	945.02	58.5576
14.8566	935.438	58.5771
14.8589	933.241	58.59668
14.8604	943.544	58.6162
14.8612	943.151	58.6357
14.8627	932.303	58.6553
14.8652	940.096	58.6748
14.866	940.407	58.6943
14.8671	936.156	58.7139
14.8698	936.935	58.7334
14.8716	943.965	58.75293
14.8712	935.332	58.7725
14.8736	935.412	58.792
14.8771	941.392	58.8115
14.877	937.58	58.8311
14.8797	931.687	58.8506
14.8807	944.363	58.8701
14.8826	940.711	58.8896
14.8842	931.387	58.90918
14.8847	937.04	58.9287
14.8871	941.197	58.9482
14.8879	931.946	58.9678
14.8904	938.983	58.9873
14.8923	944.82	59.0068
14.8936	930.396	59.0264
14.8958	935.594	59.0459
14.8971	943.841	59.06543
14.8987	934.903	59.085
14.9006	933.131	59.1045
14.90215	945.383	59.124
14.90331	934.947	59.1436
14.9047	932.001	59.1631
14.9065	942.2514	59.1826
14.908	940.48	59.2021
14.9104	932.316	59.22168
14.9116	942.3175	59.2412
14.9135	938.3114	59.2607
14.91499	931.753	59.2803
14.9175	937.608	59.2998
14.9184	944.035	59.3193
14.9195	932.961	59.3389
14.9212	937.055	59.3584
14.9232	938.971	59.37793
14.9243	936.521	59.3975
14.9269	935.482	59.417
14.9279	943.698	59.4365
14.9298	935.984	59.4561
14.9315	931.945	59.4756
14.9338	939.573	59.4951
14.9345	940.3996	59.5146
14.9362	930.4129	59.53418
14.9379	940.33	59.5537
14.9402	941.79	59.5732
14.9408	931.213	59.5928
14.9426	934.394	59.6123
14.9437	942.252	59.6318
14.9462	931.644	59.6514
14.94748	935.783	59.6709
14.9494	944.5412	59.69043
14.9497	932.202	59.71
14.9523	930.469	59.7295
14.9544	942.738	59.749
14.9551	938.466	59.7686
14.9576	931.129	59.7881
14.9583	942.807	59.8076
14.9597	935.793	59.8271
14.9623	929.768	59.84668
14.9637	939.907	59.8662
14.9654	940.51	59.8857
14.9673	930.909	59.9053
14.9689	941.103	59.9248
14.9701	939.1922	59.9443
14.97265	932.482	59.9639
14.9732	933.414	59.9834
14.9753	945.052	60.00293
14.9753	935.4801	60.0127

Data Header:			0.254_hd_dimension_typei_4545_r0			Time:	66.8433	s	4/15/2019 3:13:08 PM
Data Acquisition:	Timed
Station Name:	ft40.cfg
Test File Name:	monotonic_0.2540_typei_hd_4545_dimension.tst
Displacement	Force	Running Time
mm	N	s
14.977	934.147	60.0225
14.9774	930.929	60.0322
14.9775	933.715	60.042
14.97936	939.29	60.0518
14.98033	937.1084	60.0615
14.98	941.286	60.0713
14.9811	936.162	60.0811
14.9832	932.321	60.09082
14.9827	932.015	60.1006
14.9838	933.364	60.1104
14.9859	943.071	60.1201
14.98525	940.183	60.1299
14.9869	938.271	60.1396
14.9876	933.453	60.1494
14.9881	931.433	60.15918
14.9894	934.472	60.1689
14.9896	935.621	60.1787
14.9905	941.668	60.1885
14.9915	943.173	60.1982
14.9921	934.728	60.208
14.9929	930.588	60.2178
14.9936	931.127	60.2275
14.9943	938.191	60.2373
14.9957	943.841	60.24707
14.9962	941.663	60.2568
14.9972	936.482	60.2666
14.9981	931.384	60.2764
14.9999	929.825	60.2861
14.9996	934.747	60.2959
14.9999	940.765	60.3057
15.0003	942.041	60.31543
15.0021	942.399	60.3252
15.0023	930.5788	60.335
15.0033	927.692	60.3447
15.0042	933.155	60.3545
15.0045	939.767	60.3643
15.0064	944.064	60.374
15.0066	940.963	60.3838
15.00792	935.486	60.3936
15.0094	931.425	60.40332
15.0092	927.617	60.4131
15.0098	936.439	60.4229
15.01193	943.281	60.4326
15.01148	942.378	60.4424
15.0123	936.791	60.4521
15.01323	927.276	60.4619
15.0143	930.505	60.47168
15.0158	936.1828	60.4814
15.015	940.067	60.4912
15.0169	943.249	60.501
15.0171	934.643	60.5107
15.0186	935.495	60.5205
15.019	926.907	60.5303
15.0196	930.6	60.54
15.0215	935.836	60.5498
15.0219	942.691	60.55957
15.0224	942.107	60.5693
15.0226	933.738	60.5791
15.0247	929.61	60.5889
15.0247	932.565	60.5986
15.0263	935.958	60.6084
15.0267	940.387	60.6182
15.02721	941.007	60.62793
15.0286	938.758	60.6377
15.0281	934.363	60.6475
15.0298	930.994	60.6572
15.0303	930.1795	60.667
15.0303	938.833	60.6768
15.0325	944.253	60.6865
15.0325	938.52	60.6963
15.0342	935.32	60.7061
15.0347	929.445	60.71582
15.0348	932.892	60.7256
15.0362	936.145	60.7354
15.0369	937.804	60.7451
15.038	941.338	60.7549
15.0392	938.279	60.7646
15.0384	933.176	60.7744
15.0401	928.491	60.78418
15.041	933.087	60.7939
15.0429	939.9	60.8037
15.0429	940.3067	60.8135
15.0431	940.171	60.8232
15.04398	933.569	60.833
15.0454	930.93	60.8428
15.0462	932.381	60.8525
15.0463	933.386	60.8623
15.0463	941.172	60.87207
15.0485	943.533	60.8818
15.0483	937.574	60.8916
15.0494	931.568	60.9014
15.0507	927.829	60.9111
15.0512	935.479	60.9209
15.0526	939.317	60.9307
15.0534	942.8924	60.94043
15.0542	939.706	60.9502
15.05511	933.03	60.96
15.0557	930.37	60.9697
15.0576	929.234	60.9795
15.0586	937.047	60.9893
15.0588	944.026	60.999
15.0591	942.274	61.0088
15.0594	935.453	61.0186
15.0614	928.178	61.02832
15.0613	930.7489	61.0381
15.06214	938.157	61.0479
15.0621	942.491	61.0576
15.0639	940.716	61.0674
15.0645	936.3891	61.0771
15.0661	932.496	61.0869
15.0662	927.2417	61.09668
15.06625	934.705	61.1064
15.0675	939.341	61.1162
15.0681	944.109	61.126
15.0695	938.475	61.1357
15.0707	929.879	61.1455
15.0711	929.3692	61.1553
15.0715	933.279	61.165
15.0727	939.1236	61.1748
15.0747	941.294	61.18457
15.0752	938.163	61.1943
15.0748	938.308	61.2041
15.0758	929.582	61.2139
15.0785	930.609	61.2236
15.0779	936.43	61.2334
15.07789	940.445	61.2432
15.0788	944.672	61.25293
15.0795	935.364	61.2627
15.0805	933.685	61.2725
15.08178	933.01	61.2822
15.0817	933.092	61.292
15.0839	936.848	61.3018
15.0851	939.836	61.3115
15.0852	940.365	61.3213
15.0852	937.385	61.3311
15.0871	930.692	61.34082
15.0874	931.796	61.3506
15.0892	935.369	61.3604
15.0888	941.151	61.3701
15.08922	942.213	61.3799
15.0903	936.857	61.3896
15.0914	932.874	61.3994
15.0923	931.78	61.40918
15.0938	932.527	61.4189
15.0945	938.046	61.4287
15.09565	941.556	61.4385
15.0954	941.258	61.4482
15.0961	934.386	61.458
15.0975	927.847	61.4678
15.0978	932.208	61.4775
15.0984	938.742	61.4873
15.1002	938.979	61.49707
15.1011	942.334	61.5068
15.1019	937.552	61.5166
15.1029	932.04	61.5264
15.1036	930.505	61.5361
15.1033	930.6004	61.5459
15.1045	940.433	61.5557
15.105	944.591	61.56543
15.1061	939.26	61.5752
15.1078	932.305	61.585
15.1068	926.436	61.5947
15.1088	933.308	61.6045
15.1093	938.554	61.6143
15.1103	943.583	61.624
15.1113	939.817	61.6338
15.1118	935.692	61.6436
15.1141	931.74	61.65332
15.1132	929.911	61.6631
15.1142	934.443	61.6729
15.1143	943.0304	61.6826
15.1157	943.585	61.6924
15.1169	938.6828	61.7021
15.1177	929.018	61.7119
15.1178	929.808	61.72168
15.1208	933.436	61.7314
15.1209	938.806	61.7412
15.1208	940.681	61.751
15.1216	940.571	61.7607
15.1234	935.089	61.7705
15.1236	928.855	61.7803
15.1244	931.587	61.79
15.1249	940.404	61.7998
15.12637	944.651	61.80957
15.1264	940.142	61.8193
15.1274	934.754	61.8291
15.1288	930.585	61.8389
15.1294	932.692	61.8486
15.12933	936.251	61.8584
15.1302	938.672	61.8682
15.132	941.779	61.87793
15.1336	940.667	61.8877
15.1324	930.024	61.8975
15.1335	931.703	61.9072
15.1357	934.198	61.917
15.1352	939.674	61.9268
15.1355	942.331	61.9365
15.1376	937.2959	61.9463
15.1376	936.242	61.9561
15.1386	931.663	61.96582
15.1397	931.961	61.9756
15.1399	935.67	61.9854
15.141	937.805	61.9951
15.1412	942.942	62.0049
15.14223	937.744	62.0146
15.143	931.94	62.0244
15.1449	930.134	62.03418
15.1444	934.484	62.0439
15.1451	941.228	62.0537
15.1475	940.506	62.0635
15.1483	938.741	62.0732
15.1491	935.262	62.083
15.14961	931.591	62.0928
15.1498	931.806	62.1025
15.1514	933.504	62.1123
15.1522	941.411	62.12207
15.152	942.294	62.1318
15.1536	936.882	62.1416
15.1538	930.031	62.1514
15.15564	929.231	62.1611
15.1555	935.156	62.1709
15.1572	936.834	62.1807
15.1576	941.661	62.19043
15.159	938.426	62.2002
15.15837	933.735	62.21
15.1608	928.832	62.2197
15.1599	928.553	62.2295
15.1611	937.704	62.2393
15.1621	943.304	62.249
15.1625	942.612	62.2588
15.1636	934.672	62.2686
15.1649	928.783	62.27832
15.16549	930.5954	62.2881
15.1661	934.843	62.2979
15.1671	942.603	62.3076
15.1687	941.8125	62.3174
15.1688	937.1886	62.3271
15.17	932.642	62.3369
15.1706	925.325	62.34668
15.17113	933.2	62.3564
15.172	939.948	62.3662
15.1725	941.6	62.376
15.1742	938.953	62.3857
15.175	929.301	62.3955
15.1748	929.053	62.4053
15.1764	930.158	62.415
15.1781	936.697	62.4248
15.1766	939.849	62.43457
15.1785	939.401	62.4443
15.1788	934.721	62.4541
15.1804	928.581	62.4639
15.1817	929.528	62.4736
15.182	933.311	62.4834
15.1826	939.776	62.4932
15.1839	939.968	62.50293
15.1832	935.285	62.5127
15.1858	931.033	62.5225
15.186	931.564	62.5322
15.1867	931.993	62.542
15.187	935.606	62.5518
15.1882	940.855	62.5615
15.1895	939.736	62.5713
15.1902	933.311	62.5811
15.1901	929.573	62.59082
15.1916	929.8714	62.6006
15.192	937.362	62.6104
15.1947	939.593	62.6201
15.1949	935.782	62.6299
15.1943	935.691	62.6396
15.1952	932.041	62.6494
15.1968	931.715	62.65918
15.1974	930.983	62.6689
15.1971	937.318	62.6787
15.1985	943.339	62.6885
15.2003	936.907	62.6982
15.2008	931.799	62.708
15.2008	929.346	62.7178
15.2023	929.448	62.7275
15.20359	938.361	62.7373
15.2038	936.274	62.74707
15.2041	940.706	62.7568
15.206	935.449	62.7666
15.2065	929.241	62.7764
15.2077	928.768	62.7861
15.2074	930.747	62.7959
15.2081	938.931	62.8057
15.2095	942.466	62.81543
15.2109	938.142	62.8252
15.2112	932.3551	62.835
15.2126	928.683	62.8447
15.2138	931.402	62.8545
15.214	935.086	62.8643
15.21512	940.245	62.874
15.2153	939.253	62.8838
15.215	935.382	62.8936
15.21644	928.89	62.90332
15.2171	925.927	62.9131
15.2186	934.403	62.9229
15.2189	942.461	62.9326
15.2204	941.972	62.9424
15.2213	934.63	62.9521
15.222	928.85	62.9619
15.2231	929.362	62.97168
15.2226	930.355	62.9814
15.2246	940.596	62.9912
15.2251	940.374	63.001
15.22521	938.694	63.0107
15.2267	932.801	63.0205
15.2272	923.467	63.0303
15.2282	929.414	63.04
15.2298	935.124	63.0498
15.2298	941.723	63.05957
15.2319	940.074	63.0693
15.231	930.314	63.0791
15.2326	930.695	63.0889
15.234	928.442	63.0986
15.2331	933.383	63.1084
15.2344	937.316	63.1182
15.2357	940.5506	63.12793
15.23643	937.879	63.1377
15.2369	926.497	63.1475
15.2378	927.892	63.1572
15.2397	932.09	63.167
15.2397	936.679	63.1768
15.2399	940.769	63.1865
15.2429	934.835	63.1963
15.2428	931.364	63.2061
15.2428	930.149	63.21582
15.2433	929.765	63.2256
15.2449	932.927	63.2354
15.2447	938.595	63.2451
15.24599	940.505	63.2549
15.2473	933.382	63.2646
15.2479	928.735	63.2744
15.24847	927.307	63.28418
15.2485	932.677	63.2939
15.2506	934.71	63.3037
15.2511	937.5755	63.3135
15.2523	936.825	63.3232
15.2525	933.446	63.333
15.2544	929.7796	63.3428
15.254	927.0907	63.3525
15.2561	933.018	63.3623
15.2558	939.421	63.37207
15.25631	938.838	63.3818
15.2571	934.939	63.3916
15.2576	927.258	63.4014
15.2593	928.134	63.4111
15.26	934.448	63.4209
15.2607	935.157	63.4307
15.2627	941.118	63.44043
15.2625	935.382	63.4502
15.2627	932.358	63.46
15.2633	928.107	63.4697
15.2644	925.208	63.4795
15.2656	937.548	63.4893
15.2661	939.493	63.499
15.2672	940.742	63.5088
15.2673	930.869	63.5186
15.2687	926.157	63.52832
15.2703	929.704	63.5381
15.2712	930.5	63.5479
15.2712	938.111	63.5576
15.2717	940.69	63.5674
15.2737	936.451	63.5771
15.2729	928.612	63.5869
15.2744	922.925	63.59668
15.2746	929.865	63.6064
15.2767	939.307	63.6162
15.2775	939.8988	63.626
15.2771	936.774	63.6357
15.2775	931.135	63.6455
15.2804	926.894	63.6553
15.2807	927.945	63.665
15.2804	933.021	63.6748
15.281	939.717	63.68457
15.2826	941.487	63.6943
15.2825	931.191	63.7041
15.2844	925.106	63.7139
15.28539	927.047	63.7236
15.2868	933.051	63.7334
15.2865	939.064	63.7432
15.2888	939.084	63.75293
15.2888	933.579	63.7627
15.2905	931.1792	63.7725
15.2908	925.684	63.7822
15.2904	931.407	63.792
15.2914	934.327	63.8018
15.2926	939.864	63.8115
15.2933	938.18	63.8213
15.2935	928.848	63.8311
15.294	928.791	63.84082
15.2958	929.867	63.8506
15.296	934.324	63.8604
15.2978	939.522	63.8701
15.2976	937.447	63.8799
15.2996	935.238	63.8896
15.3017	929.372	63.8994
15.30102	927.059	63.90918
15.3011	931.163	63.9189
15.3018	935.107	63.9287
15.3027	940.755	63.9385
15.3032	933.721	63.9482
15.304	929.032	63.958
15.3046	927.511	63.9678
15.3072	929.9281	63.9775
15.3065	935.002	63.9873
15.3073	935.536	63.99707
15.3095	937.45	64.0068
15.3088	935.708	64.0166
15.3106	928.5412	64.0264
15.3116	925.697	64.0361
15.31186	930.942	64.0459
15.3124	937.289	64.0557
15.3132	938.44	64.06543
15.3138	935.363	64.0752
15.3151	930.324	64.085
15.3157	928.353	64.0947
15.316	929.77	64.1045
15.3182	933.006	64.1143
15.3189	939.821	64.124
15.3193	939.177	64.1338
15.32	935.319	64.1436
15.3213	926.439	64.15332
15.3214	924.642	64.1631
15.3225	933.595	64.1729
15.3232	937.4563	64.1826
15.3252	940.053	64.1924
15.3246	932.205	64.2021
15.3262	928.557	64.2119
15.3265	927.915	64.22168
15.3274	925.4538	64.2314
15.3287	937.026	64.2412
15.3291	941.2583	64.251
15.33	936.337	64.2607
15.33031	931.0838	64.2705
15.3314	922.501	64.2803
15.3327	928.527	64.29
15.33246	935.708	64.2998
15.3341	938.358	64.30957
15.3346	938.649	64.3193
15.336	931.2785	64.3291
15.3371	926.812	64.3389
15.3376	925.104	64.3486
15.3381	929.942	64.3584
15.3394	938.59	64.3682
15.3395	940.075	64.37793
15.3409	934.13	64.3877
15.3407	926.589	64.3975
15.3416	924.583	64.4072
15.3422	929.489	64.417
15.3433	936.701	64.4268
15.3449	937.581	64.4365
15.3454	935.64	64.4463
15.3473	931.59	64.4561
15.34745	925.269	64.46582
15.3473	926.699	64.4756
15.348	930.461	64.4854
15.34989	938.372	64.4951
15.3499	936.043	64.5049
15.3505	931.239	64.5146
15.3514	928.391	64.5244
15.3522	925.526	64.53418
15.354	931.554	64.5439
15.3542	932.991	64.5537
15.3545	935.508	64.5635
15.3574	936.94	64.5732
15.35671	928.455	64.583
15.3579	927.097	64.5928
15.3589	927.374	64.6025
15.3586	931.2193	64.6123
15.3599	939.419	64.62207
15.36114	933.724	64.6318
15.3619	931.657	64.6416
15.3622	927.9165	64.6514
15.3635	925.995	64.6611
15.3632	930.41	64.6709
15.36461	932.031	64.6807
15.366	937.541	64.69043
15.3663	935.353	64.7002
15.3674	928.968	64.71
15.3686	924.305	64.7197
15.3684	926.286	64.7295
15.3687	933.753	64.7393
15.3705	937.784	64.749
15.3717	936.001	64.7588
15.3725	930.53	64.7686
15.3737	925.233	64.77832
15.3736	925.119	64.7881
15.3757	928.273	64.7979
15.3749	934.501	64.8076
15.376	940.122	64.8174
15.3775	933.525	64.8271
15.3774	925.209	64.8369
15.3788	923.477	64.84668
15.3781	928.367	64.8564
15.3799	933.87	64.8662
15.3816	939.443	64.876
15.3823	933.512	64.8857
15.3827	928.606	64.8955
15.3825	925.478	64.9053
15.3846	922.758	64.915
15.3857	930.128	64.9248
15.3856	936.263	64.93457
15.3866	938.571	64.9443
15.3882	928.891	64.9541
15.3878	922.273	64.9639
15.3893	925.191	64.9736
15.39	931.227	64.9834
15.3911	936.565	64.9932
15.3921	935.3858	65.00293
15.393	930.1792	65.0127
15.393	929.348	65.0225
15.3957	920.747	65.0322
15.396	927.411	65.042
15.3956	933.38	65.0518
15.396	937.177	65.0615
15.3974	937.54	65.0713
15.3967	924.885	65.0811
15.3995	922.928	65.09082
15.3999	928.567	65.1006
15.4004	929.076	65.1104
15.401	934.671	65.1201
15.4034	935.125	65.1299
15.402	930.23	65.1396
15.4033	924.618	65.1494
15.4043	922.978	65.15918
15.4058	925.15	65.1689
15.4068	933.849	65.1787
15.4077	934.825	65.1885
15.408	929.425	65.1982
15.4099	925.725	65.208
15.4104	922.1413	65.2178
15.40969	926.026	65.2275
15.41156	929.143	65.2373
15.4116	933.043	65.24707
15.4131	934.773	65.2568
15.4131	927.529	65.2666
15.4147	923.5531	65.2764
15.4161	920.85	65.2861
15.4159	926.925	65.2959
15.417	932.986	65.3057
15.418	930.0708	65.31543
15.4179	930.229	65.3252
15.4193	924.756	65.335
15.4204	922.037	65.3447
15.4211	922.152	65.3545
15.4219	924.737	65.3643
15.4222	932.989	65.374
15.42695	-111.143	65.3838
15.4306	14.6074	65.3936
15.4311	-46.305	65.40332
15.4313	-48.2851	65.4131
15.4307	-47.188	65.4229
15.4308	-38.0615	65.4326
15.4305	-42.3065	65.4424
15.4311	-36.9852	65.4521
15.4315	-51.4274	65.4619
15.4328	-49.43	65.47168
15.4323	-49.4407	65.4814
15.4342	-41.3203	65.4912
15.4347	-33.7441	65.501
15.4359	-39.5811	65.5107
15.4358	-46.8066	65.5205
15.4371	-52.5897	65.5303
15.4365	-49.8626	65.54
15.4371	-40.0131	65.5498
15.43942	-36.6211	65.55957
15.4399	-37.4927	65.5693
15.4402	-43.3617	65.5791
15.4415	-49.0486	65.5889
15.4415	-51.4916	65.5986
15.4433	-46.4607	65.6084
15.44387	-37.4682	65.6182
15.4448	-31.9311	65.62793
15.4446	-39.5872	65.6377
15.446	-50.2257	65.6475
15.4474	-49.3897	65.6572
15.4474	-45.5363	65.667
15.44928	-39.5499	65.6768
15.4496	-37.2266	65.6865
15.4511	-38.10466	65.6963
15.4515	-42.4456	65.7061
15.4525	-52.2694	65.71582
15.4522	-46.9671	65.7256
15.4529	-43.7632	65.7354
15.4549	-36.6084	65.7451
15.4559	-35.6153	65.7549
15.45581	-44.6405	65.7646
15.4563	-47.545	65.7744
15.4572	-47.6968	65.78418
15.4582	-45.0451	65.7939
15.4593	-37.24958	65.8037
15.4604	-37.5051	65.8135
15.4597	-38.8081	65.8232
15.4618	-44.5012	65.833
15.4622	-50.0894	65.8428
15.4638	-48.3665	65.8525
15.4639	-42.11713	65.8623
15.4651	-36.6324	65.87207
15.46513	-39.4449	65.8818
15.4663	-43.2378	65.8916
15.4666	-45.7124	65.9014
15.4673	-48.7176	65.9111
15.4685	-45.0068	65.9209
15.4691	-40.3656	65.9307
15.4701	-36.4251	65.94043
15.4714	-38.9784	65.9502
15.472	-45.9125	65.96
15.4724	-50.40551	65.9697
15.4735	-45.6463	65.9795
15.4743	-40.5545	65.9893
15.4745	-39.23727	65.999
15.477	-37.0607	66.0088
15.47778	-44.5389	66.0186
15.4775	-45.8226	66.02832
15.4785	-48.8507	66.0381
15.478	-46.99567	66.0479
15.4802	-37.85741	66.0576
15.4819	-35.8199	66.0674
15.481	-39.956	66.0771
15.4818	-48.1196	66.0869
15.4829	-50.7986	66.09668
15.4836	-44.2852	66.1064
15.4834	-42.78334	66.1162
15.4859	-35.4459	66.126
15.4866	-37.5988	66.1357
15.4877	-45.1305	66.1455
15.488	-47.68087	66.1553
15.4888	-50.89489	66.165
15.48982	-41.9532	66.1748
15.49	-34.6644	66.18457
15.4926	-37.8051	66.1943
15.493	-43.9604	66.2041
15.4935	-49.1966	66.2139
15.4943	-49.1006	66.2236
15.4938	-43.9243	66.2334
15.4955	-39.5536	66.2432
15.4967	-36.2176	66.25293
15.4963	-40.6672	66.2627
15.4982	-45.3316	66.2725
15.49826	-51.6999	66.2822
15.5006	-49.271	66.292
15.5003	-39.9032	66.3018
15.5006	-36.2767	66.3115
15.5026	-38.94117	66.3213
15.502	-45.2132	66.3311
15.5038	-49.2436	66.34082
15.50529	-46.54488	66.3506
15.5049	-41.7028	66.3604
15.50535	-39.394	66.3701
15.5074	-35.5134	66.3799
15.5075	-41.5336	66.3896
15.5092	-49.5615	66.3994
15.5087	-48.9731	66.40918
15.5101	-45.993	66.4189
15.5109	-36.5428	66.4287
15.5127	-36.0881	66.4385
15.5136	-43.0074	66.4482
15.51337	-44.5502	66.458
15.514	-48.4439	66.4678
15.515	-47.02174	66.4775
15.5169	-43.1445	66.4873
15.5165	-39.3615	66.49707
15.5174	-34.561	66.5068
15.5181	-44.6373	66.5166
15.5189	-47.16898	66.5264
15.5201	-50.2588	66.5361
15.5209	-45.6372	66.5459
15.5217	-37.48003	66.5557
15.5208	-40.56105	66.56543
15.5224	-40.3245	66.5752
15.5241	-44.5929	66.585
15.5245	-49.67704	66.5947
15.5257	-48.1825	66.6045
15.5266	-43.89175	66.6143
15.528	-37.0591	66.624
15.5284	-37.1972	66.6338
15.5289	-44.2658	66.6436
15.5298	-49.203	66.65332
15.53021	-46.9851	66.6631
15.5314	-43.1007	66.6729
15.532	-40.4146	66.6826
15.5331	-38.54681	66.6924
15.5335	-41.1726	66.7021
15.5336	-44.9543	66.7119
15.5363	-51.7368	66.72168
15.5357	-48.1327	66.7314
15.5366	-41.7302	66.7412
15.5375	-34.3885	66.751
15.53942	-36.9112	66.7607
15.5404	-47.0149	66.7705
15.5409	-49.1206	66.7803
15.5402	-46.2757	66.79
15.5422	-44.5147	66.7998
15.5424	-35.3777	66.80957
15.54416	-37.6678	66.8193
15.5442	-40.7665	66.8291
15.54519	-47.9302	66.8389