File: data/processed_data_files/tensile/0.254_solid_uprint_typeiv_090_r(8).dat
MTS793|BTW|ENU|1|2|.|/|:|1|0|0|A

Data Header:			0.254_solid_uprint_typeiv_090_r0			Time:	20.019	s	4/14/2019 1:17:22 AM
Data Acquisition:	Timed
Station Name:	ft40.cfg
Test File Name:	monotonic_0.2540_typeiv_solid_090_uprint.tst
Displacement	Force	Running Time
mm	N	s
-40.0408	-149.5399	0.0227051
-40.0423	-154.853	0.0422363
-40.0409	-153.514	0.0617676
-40.0411	-152.0303	0.0812988
-40.0406	-145.817	0.10083
-40.0386	-149.301	0.120361
-40.0373	-150.622	0.139893
-40.036	-148.19	0.159424
-40.0336	-142.887	0.178955
-40.0323	-149.796	0.198486
-40.0292	-142.977	0.218018
-40.0271	-141.346	0.237549
-40.0263	-143.815	0.25708
-40.0252	-143.112	0.276611
-40.0248	-137.307	0.296143
-40.0205	-142.645	0.315674
-40.0185	-138.115	0.335205
-40.0192	-133.122	0.354736
-40.0164	-137.637	0.374268
-40.0151	-141.437	0.393799
-40.0133	-130.109	0.41333
-40.0127	-131.883	0.432861
-40.0101	-135.024	0.452393
-40.00766	-128.158	0.471924
-40.00621	-129.817	0.491455
-40.0052	-132.254	0.510986
-40.003	-126.054	0.530518
-40.0021	-124.847	0.550049
-40.0005	-129.119	0.56958
-39.9987	-122.08	0.589111
-39.99625	-122.513	0.608643
-39.9953	-123.58	0.628174
-39.994	-122.698	0.647705
-39.9924	-117.287	0.667236
-39.9901	-118.938	0.686768
-39.9894	-119.532	0.706299
-39.9868	-117.671	0.72583
-39.9861	-115.064	0.745361
-39.9841	-117.514	0.764893
-39.9818	-110.664	0.784424
-39.98008	-110.484	0.803955
-39.9795	-115.888	0.823486
-39.9776	-113.262	0.843018
-39.9744	-104.936	0.862549
-39.9754	-112.841	0.88208
-39.9727	-109.38	0.901611
-39.9711	-103.503	0.921143
-39.9696	-107.8233	0.940674
-39.9678	-107.526	0.960205
-39.9652	-99.3135	0.979736
-39.9645	-103.439	0.999268
-39.9628	-104.4577	1.0188
-39.9609	-95.656	1.03833
-39.9597	-102.294	1.05786
-39.9582	-103.1937	1.07739
-39.9562	-94.7976	1.09692
-39.9559	-93.5406	1.11646
-39.9529	-98.702	1.13599
-39.9521	-92.0118	1.15552
-39.9515	-94.9694	1.17505
-39.94912	-95.4171	1.19458
-39.9463	-91.25663	1.21411
-39.9445	-87.9425	1.23364
-39.943	-91.47551	1.25317
-39.9418	-88.9936	1.27271
-39.9407	-87.6398	1.29224
-39.9388	-86.4176	1.31177
-39.9379	-88.6461	1.3313
-39.9357	-81.1952	1.35083
-39.9331	-82.84465	1.37036
-39.9322	-83.2786	1.38989
-39.93	-82.4628	1.40942
-39.9288	-77.99617	1.42896
-39.9269	-83.0121	1.44849
-39.9252	-75.5256	1.46802
-39.9252	-73.3218	1.48755
-39.9228	-79.9043	1.50708
-39.92046	-77.8598	1.52661
-39.91848	-69.5653	1.54614
-39.91769	-75.1984	1.56567
-39.9167	-72.7758	1.58521
-39.9139	-68.8432	1.60474
-39.9125	-72.76	1.62427
-39.9112	-72.1738	1.6438
-39.9095	-64.391	1.66333
-39.9069	-66.4217	1.68286
-39.9062	-68.4127	1.70239
-39.9047	-61.3885	1.72192
-39.9038	-64.5814	1.74146
-39.9025	-65.87384	1.76099
-39.8998	-61.3102	1.78052
-39.8985	-57.7695	1.80005
-39.8971	-63.7978	1.81958
-39.8944	-58.58094	1.83911
-39.894	-58.1655	1.85864
-39.8913	-58.1303	1.87817
-39.8896	-57.2625	1.89771
-39.88966	-49.713	1.91724
-39.887	-55.2151	1.93677
-39.88398	-53.8178	1.9563
-39.8847	-52.2907	1.97583
-39.8816	-49.0172	1.99536
-39.8803	-55.06868	2.01489
-39.87809	-45.3718	2.03442
-39.8762	-45.7108	2.05396
-39.875	-49.006	2.07349
-39.8735	-46.56926	2.09302
-39.8733	-42.73764	2.11255
-39.8704	-47.0525	2.13208
-39.86858	-42.0329	2.15161
-39.8671	-37.485	2.17114
-39.8645	-44.2821	2.19067
-39.8632	-43.70686	2.21021
-39.8617	-35.2696	2.22974
-39.861	-39.1071	2.24927
-39.8585	-40.5155	2.2688
-39.8586	-32.6514	2.28833
-39.8565	-37.5107	2.30786
-39.85511	-36.4097	2.32739
-39.8518	-32.7676	2.34692
-39.8502	-30.2158	2.36646
-39.849	-33.65107	2.38599
-39.8474	-28.2945	2.40552
-39.8462	-29.6142	2.42505
-39.8446	-30.4804	2.44458
-39.8426	-28.6911	2.46411
-39.8408	-22.322	2.48364
-39.8405	-26.4833	2.50317
-39.8375	-23.7929	2.52271
-39.8365	-24.17956	2.54224
-39.83403	-21.1885	2.56177
-39.8329	-24.2901	2.5813
-39.8319	-15.7399	2.60083
-39.8292	-20.5735	2.62036
-39.8279	-21.1297	2.63989
-39.827	-17.2768	2.65942
-39.8248	-13.406	2.67896
-39.822	-20.2786	2.69849
-39.82254	-14.3057	2.71802
-39.8195	-10.4661	2.73755
-39.8179	-15.2146	2.75708
-39.8159	-14.2473	2.77661
-39.8141	-7.83472	2.79614
-39.8137	-11.4922	2.81567
-39.8125	-9.88846	2.83521
-39.8094	-3.70899	2.85474
-39.8082	-10.1061	2.87427
-39.8064	-8.55525	2.8938
-39.8056	-2.38356	2.91333
-39.8039	-3.28228	2.93286
-39.8025	-7.90164	2.95239
-39.7993	1.67548	2.97192
-39.7999	-1.98324	2.99146
-39.7975	-1.67168	3.01099
-39.7954	1.51399	3.03052
-39.7931	4.51372	3.05005
-39.7918	0.0996616	3.06958
-39.7911	4.60965	3.08911
-39.789	6.39819	3.10864
-39.7866	4.86745	3.12817
-39.786	5.38041	3.14771
-39.7844	13.1522	3.16724
-39.7829	8.31459	3.18677
-39.781	9.48753	3.2063
-39.7799	9.74952	3.22583
-39.7785	12.6917	3.24536
-39.7759	9.48396	3.26489
-39.7743	16.98818	3.28442
-39.7731	15.68158	3.30396
-39.771	13.3973	3.32349
-39.7705	15.6978	3.34302
-39.768	21.0667	3.36255
-39.766	16.941	3.38208
-39.7649	18.5474	3.40161
-39.7622	26.8321	3.42114
-39.7615	17.8667	3.44067
-39.7598	20.4729	3.46021
-39.758	25.6785	3.47974
-39.7556	25.58	3.49927
-39.7545	23.2809	3.5188
-39.7536	32.4924	3.53833
-39.7515	23.9828	3.55786
-39.7501	26.0939	3.57739
-39.7488	32.3846	3.59692
-39.7461	35.3114	3.61646
-39.7451	28.4798	3.63599
-39.743	35.4465	3.65552
-39.7419	33.6696	3.67505
-39.7406	33.8915	3.69458
-39.738	35.25613	3.71411
-39.7373	40.0765	3.73364
-39.736	35.0745	3.75317
-39.7341	38.8965	3.77271
-39.7327	40.9669	3.79224
-39.73	40.5949	3.81177
-39.7278	39.4086	3.8313
-39.72736	46.4494	3.85083
-39.7253	45.2791	3.87036
-39.7246	42.8157	3.88989
-39.7231	46.2142	3.90942
-39.7206	49.4816	3.92896
-39.71851	47.2639	3.94849
-39.7186	50.6172	3.96802
-39.7161	51.7022	3.98755
-39.7135	45.6496	4.00708
-39.712	51.8536	4.02661
-39.7117	55.93988	4.04614
-39.7094	52.3675	4.06567
-39.7083	53.0289	4.08521
-39.7059	60.79528	4.10474
-39.7047	53.6579	4.12427
-39.7026	55.5391	4.1438
-39.7004	60.9635	4.16333
-39.6985	59.56002	4.18286
-39.6979	58.0346	4.20239
-39.6959	65.4228	4.22192
-39.69566	59.5794	4.24146
-39.6938	61.2252	4.26099
-39.692	66.1519	4.28052
-39.6907	68.427	4.30005
-39.6882	64.3447	4.31958
-39.6865	68.1101	4.33911
-39.685	68.5709	4.35864
-39.6833	70.3964	4.37817
-39.6821	69.8087	4.39771
-39.6795	75.0888	4.41724
-39.6784	70.8933	4.43677
-39.6781	71.8009	4.4563
-39.6755	75.2743	4.47583
-39.673	77.04969	4.49536
-39.6711	72.3565	4.51489
-39.6702	78.8053	4.53442
-39.66893	80.9693	4.55396
-39.667	76.7956	4.57349
-39.6648	79.37204	4.59302
-39.6641	85.5595	4.61255
-39.6617	80.8834	4.63208
-39.6605	83.8863	4.65161
-39.6591	88.7935	4.67114
-39.6576	81.7211	4.69067
-39.6549	85.2341	4.71021
-39.654	91.3275	4.72974
-39.6524	87.687	4.74927
-39.6499	86.8632	4.7688
-39.6493	94.3618	4.78833
-39.6493	89.5469	4.80786
-39.6459	91.1751	4.82739
-39.64423	94.02861	4.84692
-39.642	97.73407	4.86646
-39.6412	92.8085	4.88599
-39.6398	100.796	4.90552
-39.6376	96.7347	4.92505
-39.6357	95.1814	4.94458
-39.6339	98.86377	4.96411
-39.6325	104.898	4.98364
-39.6314	100.227	5.00317
-39.62981	100.707	5.02271
-39.6293	103.884	5.04224
-39.6278	104.308	5.06177
-39.6251	101.658	5.0813
-39.6237	108.718	5.10083
-39.6214	105.26	5.12036
-39.6203	105.174	5.13989
-39.618	109.126	5.15942
-39.6158	111.554	5.17896
-39.6139	107.344	5.19849
-39.6143	111.629	5.21802
-39.6124	115.3957	5.23755
-39.6105	108.643	5.25708
-39.60828	112.455	5.27661
-39.6067	117.571	5.29614
-39.6053	115.48	5.31567
-39.6034	117.5333	5.33521
-39.6022	122.892	5.35474
-39.6016	114.865	5.37427
-39.5997	118.326	5.3938
-39.5969	123.959	5.41333
-39.5957	122.8	5.43286
-39.5942	121.081	5.45239
-39.5931	127.781	5.47192
-39.5904	123.528	5.49146
-39.58979	125.865	5.51099
-39.58651	128.904	5.53052
-39.5855	129.561	5.55005
-39.5844	127.295	5.56958
-39.5814	131.057	5.58911
-39.5813	129.985	5.60864
-39.5789	130.671	5.62817
-39.5774	132.032	5.64771
-39.5753	138.243	5.66724
-39.574	133.652	5.68677
-39.573	132.966	5.7063
-39.57	137.667	5.72583
-39.5683	138.373	5.74536
-39.5668	136.844	5.76489
-39.5659	141.449	5.78442
-39.5644	142.9783	5.80396
-39.5623	137.276	5.82349
-39.5612	141.889	5.84302
-39.5591	144.924	5.86255
-39.5573	141.307	5.88208
-39.5569	143.64	5.90161
-39.554	150.529	5.92114
-39.554	142.3504	5.94067
-39.5528	146.724	5.96021
-39.5497	150.671	5.97974
-39.5474	150.046	5.99927
-39.5457	148.1116	6.0188
-39.5446	156.385	6.03833
-39.5441	148.792	6.05786
-39.5409	152.939	6.07739
-39.5397	155.861	6.09692
-39.5391	158.395	6.11646
-39.5373	153.48	6.13599
-39.5355	160.348	6.15552
-39.5347	157.312	6.17505
-39.5316	159.5146	6.19458
-39.5296	158.198	6.21411
-39.5288	163.994	6.23364
-39.5276	160.32	6.25317
-39.5249	163.4584	6.27271
-39.5243	164.494	6.29224
-39.522	164.43	6.31177
-39.5205	162.94	6.3313
-39.5185	170.325	6.35083
-39.5172	169.342	6.37036
-39.5148	163.526	6.38989
-39.5143	168.437	6.40942
-39.512	173.753	6.42896
-39.5111	170.52	6.44849
-39.5086	172.604	6.46802
-39.50716	173.995	6.48755
-39.5064	169.156	6.50708
-39.5049	174.63	6.52661
-39.5025	178.676	6.54614
-39.5014	174.2299	6.56567
-39.49876	178.043	6.58521
-39.4977	183.793	6.60474
-39.495	176.751	6.62427
-39.4951	179.17	6.6438
-39.4928	183.418	6.66333
-39.4916	183.68	6.68286
-39.4902	181.3111	6.70239
-39.4886	188.613	6.72192
-39.4877	183.079	6.74146
-39.485	182.97	6.76099
-39.4831	188.345	6.78052
-39.4815	191.724	6.80005
-39.4792	187.231	6.81958
-39.4785	189.883	6.83911
-39.47633	191.751	6.85864
-39.4742	191.74	6.87817
-39.4736	192.043	6.89771
-39.472	197.985	6.91724
-39.4702	194.985	6.93677
-39.4689	195.128	6.9563
-39.4671	198.274	6.97583
-39.4656	198.317	6.99536
-39.4646	196.127	7.01489
-39.4623	202.543	7.03442
-39.4603	203.108	7.05396
-39.4584	195.8452	7.07349
-39.4571	202.735	7.09302
-39.4563	205.42	7.11255
-39.45322	202.843	7.13208
-39.45298	205.255	7.15161
-39.4501	209.693	7.17114
-39.4494	203.248	7.19067
-39.4467	209.782	7.21021
-39.4467	212.732	7.22974
-39.4441	209.708	7.24927
-39.4426	208.966	7.2688
-39.4408	218.411	7.28833
-39.4387	210.905	7.30786
-39.4377	210.6993	7.32739
-39.436	216.157	7.34692
-39.4337	216.408	7.36646
-39.4325	213.366	7.38599
-39.4301	220.869	7.40552
-39.4295	217.547	7.42505
-39.4289	217.031	7.44458
-39.4257	221.628	7.46411
-39.4244	225.356	7.48364
-39.4224	220.092	7.50317
-39.4215	221.016	7.52271
-39.4197	225.233	7.54224
-39.4187	224.7	7.56177
-39.4159	224.434	7.5813
-39.4155	229.145	7.60083
-39.4137	229.063	7.62036
-39.4121	223.9156	7.63989
-39.4093	230.816	7.65942
-39.40797	233.123	7.67896
-39.4066	227.375	7.69849
-39.4047	232.906	7.71802
-39.4029	237.666	7.73755
-39.4008	228.169	7.75708
-39.3997	233.278	7.77661
-39.3995	237.124	7.79614
-39.3971	236.413	7.81567
-39.394	236.838	7.83521
-39.39304	242.7491	7.85474
-39.3928	234.463	7.87427
-39.3901	240.266	7.8938
-39.389	243.985	7.91333
-39.3865	242.036	7.93286
-39.3859	240.405	7.95239
-39.38483	247.567	7.97192
-39.3832	243.218	7.99146
-39.3812	245.592	8.01099
-39.3789	246.308	8.03052
-39.3774	249.974	8.05005
-39.376	247.253	8.06958
-39.3736	250.249	8.08911
-39.3728	249.29	8.10864
-39.3705	248.549	8.12817
-39.3687	251.254	8.14771
-39.3675	255.82	8.16724
-39.3647	253.313	8.18677
-39.3643	250.4369	8.2063
-39.3628	255.786	8.22583
-39.3607	257.929	8.24536
-39.3595	253.7612	8.26489
-39.3587	259.429	8.28442
-39.3575	262.041	8.30396
-39.3548	255.977	8.32349
-39.354	263.676	8.34302
-39.35149	264.734	8.36255
-39.3494	260.93	8.38208
-39.3476	262.864	8.40161
-39.3457	268.806	8.42114
-39.3455	261.314	8.44067
-39.3429	265.51	8.46021
-39.34193	269.537	8.47974
-39.3399	268.275	8.49927
-39.3379	268.985	8.5188
-39.33688	273.115	8.53833
-39.3349	266.016	8.55786
-39.3344	268.876	8.57739
-39.3317	274.7673	8.59692
-39.3313	276.136	8.61646
-39.3293	271.365	8.63599
-39.3269	277.564	8.65552
-39.324	276.549	8.67505
-39.3236	274.904	8.69458
-39.3224	276.503	8.71411
-39.3202	281.158	8.73364
-39.3192	277.065	8.75317
-39.3157	278.428	8.77271
-39.3161	281.203	8.79224
-39.3136	279.717	8.81177
-39.3122	280.63	8.8313
-39.3106	286.048	8.85083
-39.308	284.056	8.87036
-39.307	279.907	8.88989
-39.3059	286.6954	8.90942
-39.3038	287.841	8.92896
-39.3027	284.983	8.94849
-39.3011	288.388	8.96802
-39.3	293.046	8.98755
-39.298	284.617	9.00708
-39.29538	292.011	9.02661
-39.2938	294.768	9.04614
-39.2915	290.374	9.06567
-39.2918	292.365	9.08521
-39.2894	299.139	9.10474
-39.2872	292.068	9.12427
-39.287	294.159	9.1438
-39.284	300.208	9.16333
-39.2827	299.515	9.18286
-39.2819	296.9819	9.20239
-39.2794	302.535	9.22192
-39.2782	299.0795	9.24146
-39.2766	299.433	9.26099
-39.2754	303.7037	9.28052
-39.2733	306.221	9.30005
-39.2714	299.365	9.31958
-39.2693	304.175	9.33911
-39.2685	305.2507	9.35864
-39.2665	304.459	9.37817
-39.265	304.4834	9.39771
-39.2639	310.587	9.41724
-39.2613	308.857	9.43677
-39.2599	305.495	9.4563
-39.2585	310.799	9.47583
-39.2578	310.679	9.49536
-39.2565	309.8201	9.51489
-39.2532	314.871	9.53442
-39.2518	316.8233	9.55396
-39.2496	307.998	9.57349
-39.2481	315.402	9.59302
-39.2475	317.491	9.61255
-39.2463	315.679	9.63208
-39.2438	319.007	9.65161
-39.2427	322.141	9.67114
-39.2401	314.213	9.69067
-39.2394	320.308	9.71021
-39.2378	322.191	9.72974
-39.2358	322.29	9.74927
-39.2332	320.393	9.7688
-39.23291	328.98	9.78833
-39.23138	321.245	9.80786
-39.2292	322.625	9.82739
-39.228	327.8248	9.84692
-39.2259	330.228	9.86646
-39.2238	325.692	9.88599
-39.223	331.073	9.90552
-39.2196	328.259	9.92505
-39.2194	327.938	9.94458
-39.2177	331.051	9.96411
-39.2168	333.792	9.98364
-39.2145	329.227	10.0032
-39.2131	330.228	10.0227
-39.2123	335.175	10.0422
-39.2099	334.978	10.0618
-39.2082	334.003	10.0813
-39.2068	338.657	10.10083
-39.2057	338.087	10.1204
-39.2042	334.339	10.1399
-39.2017	339.535	10.1594
-39.1987	339.7392	10.179
-39.1987	336.756	10.1985
-39.1966	343.388	10.218
-39.1946	346.708	10.2375
-39.1935	337.033	10.25708
-39.1924	344.837	10.2766
-39.18993	346.755	10.2961
-39.18885	344.908	10.3157
-39.1872	345.626	10.3352
-39.1859	349.94	10.3547
-39.1842	341.277	10.3743
-39.1823	347.747	10.3938
-39.18119	352.004	10.41333
-39.1796	350.422	10.4329
-39.17704	348.429	10.4524
-39.1755	355.068	10.4719
-39.1745	350.539	10.4915
-39.17355	351.547	10.511
-39.1707	354.669	10.5305
-39.16909	357.542	10.55
-39.1674	354.107	10.56958
-39.1661	355.147	10.5891
-39.1648	356.707	10.6086
-39.1628	354.958	10.6282
-39.1609	358.071	10.6477
-39.1589	362.392	10.6672
-39.1581	358.374	10.6868
-39.15601	355.17	10.7063
-39.1544	363.0014	10.72583
-39.1534	362.218	10.7454
-39.152	359.531	10.7649
-39.1504	364.509	10.7844
-39.1476	367.131	10.804
-39.1466	359.194	10.8235
-39.1447	366.781	10.843
-39.143	366.018	10.8625
-39.1414	363.857	10.88208
-39.1397	367.797	10.9016
-39.1377	373.239	10.9211
-39.1361	362.396	10.9407
-39.1349	368.315	10.9602
-39.1341	372.362	10.9797
-39.1312	371.407	10.9993
-39.1301	369.832	11.0188
-39.1277	374.989	11.03833
-39.1256	368.898	11.0579
-39.125	372.222	11.0774
-39.1244	376.714	11.0969
-39.1217	376.097	11.1165
-39.1194	372.636	11.136
-39.1185	378.666	11.1555
-39.1175	377.9183	11.175
-39.115	375.37	11.19458
-39.1126	377.458	11.2141
-39.1122	380.853	11.2336
-39.1099	378.644	11.2532
-39.1086	376.987	11.2727
-39.1065	381.795	11.2922
-39.1062	379.942	11.3118
-39.1051	379.151	11.3313
-39.1026	386.628	11.35083
-39.1009	383.617	11.3704
-39.0992	379.258	11.3899
-39.0973	388.01	11.4094
-39.0959	387.381	11.429
-39.0942	383.218	11.4485
-39.0916	387.715	11.468
-39.0912	391.784	11.4875
-39.0895	384.326	11.50708
-39.0885	390.921	11.5266
-39.0864	393.302	11.5461
-39.0838	388.325	11.5657
-39.0833	390.816	11.5852
-39.0807	395.697	11.6047
-39.0796	388.001	11.6243
-39.0778	390.854	11.6438
-39.0758	396.967	11.66333
-39.0748	395.4968	11.6829
-39.0732	393.493	11.7024
-39.0718	397.712	11.7219
-39.0688	393.8	11.7415
-39.0669	394.443	11.761
-39.0652	398.723	11.7805
-39.0645	399.453	11.8
-39.06414	394.757	11.81958
-39.0622	398.999	11.8391
-39.06	400.187	11.8586
-39.0598	397.908	11.8782
-39.05637	398.77	11.8977
-39.0555	404.257	11.9172
-39.0547	401.824	11.9368
-39.05167	397.258	11.9563
-39.0503	404.961	11.97583
-39.0483	402.831	11.9954
-39.0478	403.515	12.0149
-39.0459	408.643	12.0344
-39.04314	408.459	12.054
-39.0413	398.391	12.0735
-39.0396	408.12	12.093
-39.0385	410.191	12.1125
-39.03714	404.786	12.13208
-39.0348	408.947	12.1516
-39.0343	411.536	12.1711
-39.0317	403.609	12.1907
-39.0312	410.547	12.2102
-39.0293	413.532	12.2297
-39.0275	408.901	12.2493
-39.0259	410.186	12.2688
-39.0244	417.447	12.28833
-39.0235	409.178	12.3079
-39.0202	410.96	12.3274
-39.0193	414.848	12.3469
-39.0183	415.162	12.3665
-39.0158	412.865	12.386
-39.014	414.922	12.4055
-39.0126	413.332	12.425
-39.01178	413.3457	12.44458
-39.0087	416.652	12.4641
-39.008	420.511	12.4836
-39.0066	414.842	12.5032
-39.0047	413.3956	12.5227
-39.0035	420.36	12.5422
-39.0015	417.583	12.5618
-38.9995	415.005	12.5813
-38.99781	421.373	12.60083
-38.9969	420.569	12.6204
-38.9955	414.7316	12.6399
-38.993	422.89	12.6594
-38.99131	420.164	12.679
-38.99036	418.414	12.6985
-38.989	422.36	12.718
-38.9865	424.948	12.7375
-38.9864	416.285	12.75708
-38.9836	424.69	12.7766
-38.9817	426.755	12.7961
-38.981	423.236	12.8157
-38.9781	422.641	12.8352
-38.9769	428.565	12.8547
-38.9762	420.921	12.8743
-38.9734	424.298	12.8938
-38.9712	429.197	12.91333
-38.9712	424.26	12.9329
-38.96917	423.7	12.9524
-38.9674	430.41	12.9719
-38.965	425.98	12.9915
-38.9636	423.475	13.011
-38.9623	428.663	13.0305
-38.9615	430.871	13.05
-38.9591	427.1	13.06958
-38.9589	428.367	13.0891
-38.9555	430.147	13.1086
-38.9528	428.863	13.1282
-38.9528	428.613	13.1477
-38.9511	433.716	13.1672
-38.9499	429.173	13.1868
-38.9481	425.621	13.2063
-38.9459	436.182	13.22583
-38.9442	432.574	13.2454
-38.9421	430.651	13.2649
-38.9419	435.878	13.2844
-38.9389	434.766	13.304
-38.9384	426.955	13.3235
-38.9362	436.066	13.343
-38.9351	433.929	13.3625
-38.9326	430.547	13.38208
-38.9314	434.238	13.4016
-38.9303	438.938	13.4211
-38.9286	426.937	13.4407
-38.9254	435.719	13.4602
-38.9251	437.8363	13.4797
-38.9246	434.537	13.4993
-38.9214	433.319	13.5188
-38.9201	439.731	13.53833
-38.9186	433.285	13.5579
-38.9172	434.48	13.5774
-38.9146	439.582	13.5969
-38.9132	437.913	13.6165
-38.91177	434.652	13.636
-38.91016	438.421	13.6555
-38.9086	437.735	13.675
-38.9077	434.823	13.69458
-38.9057	438.391	13.7141
-38.90321	441.903	13.7336
-38.9023	438.369	13.7532
-38.9002	434.68	13.7727
-38.8977	440.081	13.7922
-38.8976	437.56	13.8118
-38.895	437.372	13.8313
-38.8936	441.25	13.85083
-38.8924	439.3775	13.8704
-38.8912	433.609	13.8899
-38.8896	445.749	13.9094
-38.8873	441.143	13.929
-38.8856	437.7048	13.9485
-38.8841	441.447	13.968
-38.8821	444.034	13.9875
-38.8814	435.74	14.00708
-38.8803	444.063	14.0266
-38.8779	442.743	14.0461
-38.8761	440.1514	14.0657
-38.8738	442.394	14.0852
-38.8723	446.561	14.1047
-38.8719	437.2612	14.1243
-38.8695	439.7352	14.1438
-38.8671	445.547	14.16333
-38.8656	443.113	14.1829
-38.8641	439.862	14.2024
-38.8627	444.597	14.2219
-38.8606	441.813	14.2415
-38.8602	440.757	14.261
-38.8574	444.612	14.2805
-38.8571	445.873	14.3
-38.8541	441.45	14.31958
-38.8537	443.324	14.3391
-38.8523	445.153	14.3586
-38.8496	442.239	14.3782
-38.8489	443.927	14.3977
-38.8457	445.944	14.4172
-38.8464	443.486	14.4368
-38.8427	437.93	14.4563
-38.8438	446.592	14.47583
-38.8416	441.638	14.4954
-38.838	442.66	14.5149
-38.8363	448.832	14.5344
-38.8352	446.598	14.554
-38.8332	438.643	14.5735
-38.8318	447.9812	14.593
-38.8309	446.494	14.6125
-38.8294	441.6413	14.63208
-38.82724	444.254	14.6516
-38.8257	447.86	14.6711
-38.824	439.246	14.6907
-38.8229	444.987	14.7102
-38.82029	447.686	14.7297
-38.82024	444.247	14.7493
-38.8181	444.479	14.7688
-38.8153	448.667	14.78833
-38.8139	442.344	14.8079
-38.8114	442.192	14.8274
-38.81094	448.002	14.8469
-38.8087	448.041	14.8665
-38.8081	443.553	14.886
-38.8043	445.183	14.9055
-38.8041	446.884	14.925
-38.8026	442.204	14.94458
-38.8015	445.201	14.9641
-38.799	446.343	14.9836
-38.7977	444.788	15.0032
-38.7958	443.201	15.0227
-38.7935	449.2536	15.0422
-38.7938	441.416	15.0618
-38.7914	442.358	15.0813
-38.7897	447.859	15.10083
-38.7883	446.491	15.1204
-38.78661	439.6189	15.1399
-38.785	450.06	15.1594
-38.7829	445.698	15.179
-38.7806	443.6937	15.1985
-38.7802	449.041	15.218
-38.7787	447.125	15.2375
-38.777	439.478	15.25708
-38.7749	447.922	15.2766
-38.7734	450.076	15.2961
-38.772	444.597	15.3157
-38.7703	443.808	15.3352
-38.7686	449.748	15.3547
-38.7671	442.177	15.3743
-38.7657	445.33	15.3938
-38.7637	447.958	15.41333
-38.762	443.867	15.4329
-38.7604	444.344	15.4524
-38.7597	448.008	15.4719
-38.7576	444.19	15.4915
-38.75581	440.712	15.511
-38.7536	447.53	15.5305
-38.7528	447.812	15.55
-38.7506	444.21	15.56958
-38.749	443.038	15.5891
-38.7483	446.673	15.6086
-38.7456	441.489	15.6282
-38.7438	444.96	15.6477
-38.7434	446.755	15.6672
-38.7412	443.92	15.6868
-38.7401	438.382	15.7063
-38.7375	449.53	15.72583
-38.73687	443.925	15.7454
-38.734	440.614	15.7649
-38.7325	446.255	15.7844
-38.7307	448.146	15.804
-38.7289	438.929	15.8235
-38.728	447.171	15.843
-38.726	445.166	15.8625
-38.7247	441.374	15.88208
-38.7233	445.215	15.9016
-38.7211	448.419	15.9211
-38.7192	438.444	15.9407
-38.7169	444.085	15.9602
-38.7168	446.398	15.9797
-38.715	442.752	15.9993
-38.7131	440.91	16.0188
-38.7117	446.374	16.03833
-38.7107	441.878	16.0579
-38.7089	441.772	16.0774
-38.7069	444.819	16.0969
-38.7056	443.973	16.1165
-38.703	440.584	16.136
-38.7023	443.672	16.1555
-38.7004	444.6069	16.175
-38.6982	439.184	16.19458
-38.6961	443.816	16.2141
-38.69524	446.399	16.2336
-38.6935	442.0827	16.2532
-38.6921	438.585	16.2727
-38.6913	445.175	16.2922
-38.6893	441.424	16.3118
-38.6887	441.072	16.3313
-38.6863	447.236	16.35083
-38.6834	442.6539	16.3704
-38.6812	437.594	16.3899
-38.68079	447.208	16.4094
-38.6786	443.208	16.429
-38.67865	438.8866	16.4485
-38.6754	445.094	16.468
-38.67495	445.097	16.4875
-38.6725	435.86	16.50708
-38.6723	442.7449	16.5266
-38.6692	444.244	16.5461
-38.6673	439.648	16.5657
-38.66576	440.853	16.5852
-38.6645	447.181	16.6047
-38.6624	436.133	16.6243
-38.6604	439.6731	16.6438
-38.66	445.077	16.66333
-38.6583	441.063	16.6829
-38.6569	438.419	16.7024
-38.655	441.528	16.7219
-38.6529	439.352	16.7415
-38.65081	437.402	16.761
-38.6502	442.499	16.7805
-38.6474	441.154	16.8
-38.6472	437.303	16.81958
-38.6452	438.989	16.8391
-38.6441	443.195	16.8586
-38.6409	436.828	16.8782
-38.6408	439.5968	16.8977
-38.6389	444.278	16.9172
-38.6368	442.109	16.9368
-38.6345	434.78	16.9563
-38.6342	442.744	16.97583
-38.6322	438.9863	16.9954
-38.6305	436.375	17.0149
-38.6286	442.071	17.0344
-38.6272	442.973	17.054
-38.626	432.467	17.0735
-38.6238	441.184	17.093
-38.6217	440.54	17.1125
-38.62	435.622	17.13208
-38.6186	439.3949	17.1516
-38.6176	442.477	17.1711
-38.61573	433.509	17.1907
-38.6129	437.504	17.2102
-38.6129	441.078	17.2297
-38.6109	438.092	17.2493
-38.61	437.092	17.2688
-38.6073	441.664	17.28833
-38.6058	437.03	17.3079
-38.604	435.405	17.3274
-38.6024	439.869	17.3469
-38.6013	439.312	17.3665
-38.5991	435.6012	17.386
-38.6	437.661	17.4055
-38.5963	440.379	17.425
-38.59341	434.447	17.44458
-38.5929	437.9245	17.4641
-38.5903	439.1666	17.4836
-38.5889	435.115	17.5032
-38.58812	433.723	17.5227
-38.5855	440.285	17.5422
-38.5843	434.949	17.5618
-38.5845	434.714	17.5813
-38.58197	440.328	17.60083
-38.5801	438.996	17.6204
-38.5776	432.357	17.6399
-38.5758	440.107	17.6594
-38.5748	437.374	17.679
-38.5739	434.155	17.6985
-38.5713	438.441	17.718
-38.571	437.892	17.7375
-38.5692	430.571	17.75708
-38.5671	437.823	17.7766
-38.5645	440.125	17.7961
-38.563	433.334	17.8157
-38.56147	435.674	17.8352
-38.5602	440.841	17.8547
-38.5588	434.2883	17.8743
-38.5583	434.721	17.8938
-38.5564	439.5921	17.91333
-38.5533	435.301	17.9329
-38.5528	434.599	17.9524
-38.5512	437.868	17.9719
-38.5489	435.214	17.9915
-38.5463	431.043	18.011
-38.54575	438.433	18.0305
-38.5442	438.467	18.05
-38.54163	432.711	18.06958
-38.5398	431.82	18.0891
-38.5391	437.7648	18.1086
-38.5377	432.501	18.1282
-38.5354	435.1622	18.1477
-38.5349	439.935	18.1672
-38.5327	435.974	18.1868
-38.5322	431.111	18.2063
-38.5303	440.153	18.22583
-38.52824	434.6171	18.2454
-38.52618	433.871	18.2649
-38.5253	438.223	18.2844
-38.5224	437.966	18.304
-38.5212	428.716	18.3235
-38.5217	438.042	18.343
-38.5179	436.8728	18.3625
-38.5172	433.389	18.38208
-38.5143	436.415	18.4016
-38.5127	439.089	18.4211
-38.5108	428.543	18.4407
-38.5096	434.857	18.4602
-38.5079	439.0199	18.4797
-38.50716	432.439	18.4993
-38.5056	431.568	18.5188
-38.5032	437.277	18.53833
-38.5016	433.619	18.5579
-38.5001	431.664	18.5774
-38.4999	438.01	18.5969
-38.4973	434.33	18.6165
-38.4947	431.539	18.636
-38.49445	435.022	18.6555
-38.4923	436.796	18.675
-38.4905	429.389	18.69458
-38.4893	434.38	18.7141
-38.48671	437.692	18.7336
-38.4843	432.627	18.7532
-38.4827	429.9173	18.7727
-38.4833	437.004	18.7922
-38.4813	431.051	18.8118
-38.4787	432.031	18.8313
-38.4774	437.671	18.85083
-38.4757	435.001	18.8704
-38.4751	426.313	18.8899
-38.4721	439.56	18.9094
-38.47031	435.248	18.929
-38.4708	430.774	18.9485
-38.4675	435.081	18.968
-38.4664	435.465	18.9875
-38.4647	428.508	19.00708
-38.4624	433.824	19.0266
-38.4615	435.365	19.0461
-38.4598	430.656	19.0657
-38.4584	432.644	19.0852
-38.4551	436.791	19.1047
-38.45491	429.525	19.1243
-38.4522	431.184	19.1438
-38.4512	438.282	19.16333
-38.4506	433.005	19.1829
-38.44809	429.973	19.2024
-38.4449	433.037	19.2219
-38.4451	433.1853	19.2415
-38.4435	431.14	19.261
-38.4415	434.631	19.2805
-38.4396	433.923	19.3
-38.4382	430.98	19.31958
-38.43663	430.522	19.3391
-38.4356	437.555	19.3586
-38.4336	429.344	19.3782
-38.4321	433.787	19.3977
-38.4297	437.27	19.4172
-38.42915	431.547	19.4368
-38.4265	425.598	19.4563
-38.4251	435.802	19.47583
-38.42313	432.136	19.4954
-38.4228	430.787	19.5149
-38.4201	434.092	19.5344
-38.4182	433.678	19.554
-38.4169	426.932	19.5735
-38.4148	436.301	19.593
-38.4138	434.25	19.6125
-38.4126	428.667	19.63208
-38.412	431.7746	19.6516
-38.4086	435.914	19.6711
-38.4069	426.964	19.6907
-38.4057	431.901	19.7102
-38.4039	437.141	19.7297
-38.4016	429.958	19.7493
-38.4006	432.435	19.7688
-38.3994	435.8	19.78833
-38.3968	429.824	19.8079
-38.396	429.748	19.8274
-38.3942	435.604	19.8469
-38.3924	433.137	19.8665
-38.3904	429.055	19.886
-38.3894	429.982	19.9055
-38.3879	433.3605	19.925
-38.3859	428.724	19.94458
-38.3842	431.921	19.9641
-38.3842	433.9173	19.9836
-38.3817	430.578	20.0032
-38.38	427.589	20.0129

Data Header:			0.254_solid_uprint_typeiv_090_r0			Time:	27.6736	s	4/14/2019 1:17:30 AM
Data Acquisition:	Timed
Station Name:	ft40.cfg
Test File Name:	monotonic_0.2540_typeiv_solid_090_uprint.tst
Displacement	Force	Running Time
mm	N	s
-38.3803	427.187	20.0227
-38.3792	433.763	20.0325
-38.3767	438.128	20.0422
-38.3779	434.514	20.052
-38.376	428.938	20.0618
-38.3755	427.556	20.0715
-38.37434	430.417	20.0813
-38.3753	430.882	20.0911
-38.3733	435.608	20.10083
-38.3726	434.931	20.1106
-38.3715	433.411	20.1204
-38.3709	427.234	20.1301
-38.3687	424.63	20.1399
-38.3688	430.456	20.1497
-38.3686	434.761	20.1594
-38.3674	437.047	20.1692
-38.3669	430.9129	20.179
-38.3661	427.648	20.1887
-38.3635	429.68	20.1985
-38.3647	429.544	20.2083
-38.3625	433.078	20.218
-38.3633	434.834	20.2278
-38.3613	432.616	20.2375
-38.36179	432.2764	20.2473
-38.3603	426.086	20.25708
-38.3599	427.836	20.2668
-38.35836	433.407	20.2766
-38.3581	435.981	20.2864
-38.3566	433.915	20.2961
-38.3555	429.256	20.3059
-38.3554	427.724	20.3157
-38.3544	429.73	20.3254
-38.3546	431.185	20.3352
-38.3531	432.73	20.345
-38.3519	434.928	20.3547
-38.3521	435.329	20.3645
-38.3506	428.142	20.3743
-38.3492	425.797	20.384
-38.3491	429.157	20.3938
-38.3476	431.8222	20.4036
-38.3468	434.327	20.41333
-38.346	431.779	20.4231
-38.3461	429.521	20.4329
-38.3442	428.386	20.4426
-38.3442	428.754	20.4524
-38.3426	428.926	20.4622
-38.34161	432.104	20.4719
-38.3403	436.076	20.4817
-38.3397	430.07	20.4915
-38.339	430.109	20.5012
-38.3387	427.55	20.511
-38.3383	428.733	20.5208
-38.3371	433.725	20.5305
-38.3362	430.866	20.5403
-38.3362	433.346	20.55
-38.3357	432.169	20.5598
-38.3338	428.009	20.56958
-38.3331	429.507	20.5793
-38.3326	426.97	20.5891
-38.3312	434.517	20.5989
-38.3321	434.741	20.6086
-38.3295	432.4921	20.6184
-38.3297	427.451	20.6282
-38.328	424.618	20.6379
-38.3277	428.977	20.6477
-38.3263	431.034	20.6575
-38.3258	433.612	20.6672
-38.325	433.476	20.677
-38.3242	429.4512	20.6868
-38.323	425.896	20.6965
-38.3229	425.761	20.7063
-38.3214	428.742	20.7161
-38.3206	435.821	20.72583
-38.3206	435.44	20.7356
-38.3195	428.913	20.7454
-38.3181	425.534	20.7551
-38.3173	428.43	20.7649
-38.3176	427.161	20.7747
-38.31535	433.743	20.7844
-38.3152	432.377	20.7942
-38.31496	432.33	20.804
-38.3146	428.649	20.8137
-38.3118	422.658	20.8235
-38.3118	428.564	20.8333
-38.3121	431.901	20.843
-38.3106	435.7605	20.8528
-38.3101	431.755	20.8625
-38.3085	426.374	20.8723
-38.3086	426.9	20.88208
-38.308	426.946	20.8918
-38.3056	429.701	20.9016
-38.3062	433.757	20.9114
-38.3059	432.908	20.9211
-38.3035	433.167	20.9309
-38.3022	424.583	20.9407
-38.3022	426.641	20.9504
-38.302	431.063	20.9602
-38.301	432.3551	20.97
-38.29953	433.929	20.9797
-38.2982	428.9	20.9895
-38.2986	429.406	20.9993
-38.2979	429.223	21.009
-38.2977	428.419	21.0188
-38.29628	431.682	21.0286
-38.2941	433.048	21.03833
-38.293	434.775	21.0481
-38.2933	429.153	21.0579
-38.2931	427.339	21.0676
-38.29221	426.321	21.0774
-38.2911	429.362	21.0872
-38.2893	432.35	21.0969
-38.2901	431.5386	21.1067
-38.2894	430.747	21.1165
-38.288	429.581	21.1262
-38.2865	427.121	21.136
-38.2865	427.92	21.1458
-38.2851	428.713	21.1555
-38.2849	434.447	21.1653
-38.2824	433.422	21.175
-38.282	430.186	21.1848
-38.2822	426.967	21.19458
-38.2822	427.754	21.2043
-38.28	430.832	21.2141
-38.2796	431.201	21.2239
-38.2784	434.217	21.2336
-38.2774	431.305	21.2434
-38.2776	428.408	21.2532
-38.276	426.7583	21.2629
-38.27504	424.577	21.2727
-38.27417	432.582	21.2825
-38.2723	435.852	21.2922
-38.2739	430.956	21.302
-38.2723	428.938	21.3118
-38.2716	425.102	21.3215
-38.2701	428.0827	21.3313
-38.27	430.002	21.3411
-38.2699	433.1048	21.35083
-38.2689	433.71	21.3606
-38.2681	431.313	21.3704
-38.26659	426.805	21.3801
-38.2658	423.819	21.3899
-38.2647	428.085	21.3997
-38.2638	434.219	21.4094
-38.2635	434.479	21.4192
-38.2628	430.045	21.429
-38.2611	425.35	21.4387
-38.2608	425.235	21.4485
-38.2598	426.452	21.4583
-38.2589	432.222	21.468
-38.2587	433.113	21.4778
-38.2572	432.482	21.4875
-38.2559	427.956	21.4973
-38.2561	424.314	21.50708
-38.2553	425.8194	21.5168
-38.2545	430.1488	21.5266
-38.25309	435.568	21.5364
-38.2528	433.38	21.5461
-38.2511	427.375	21.5559
-38.2501	427.396	21.5657
-38.2492	427.456	21.5754
-38.2497	428.615	21.5852
-38.2495	430.447	21.595
-38.2478	431.191	21.6047
-38.2469	432.185	21.6145
-38.2457	425.681	21.6243
-38.24535	425.401	21.634
-38.2452	428.0025	21.6438
-38.2445	431.8793	21.6536
-38.2429	433.34	21.66333
-38.2425	429.059	21.6731
-38.2409	428.878	21.6829
-38.2407	427.583	21.6926
-38.23933	427.154	21.7024
-38.2395	428.394	21.7122
-38.23777	430.49	21.7219
-38.2375	433.7345	21.7317
-38.2356	429.7959	21.7415
-38.2354	427.182	21.7512
-38.2351	426.569	21.761
-38.2335	427.865	21.7708
-38.2328	431.406	21.7805
-38.2319	430.03	21.7903
-38.2315	431.0174	21.8
-38.2311	429.216	21.8098
-38.22998	427.482	21.81958
-38.2283	423.882	21.8293
-38.2284	427.728	21.8391
-38.2266	432.346	21.8489
-38.2257	433.796	21.8586
-38.2256	431.428	21.8684
-38.2251	425.0517	21.8782
-38.2245	425.7117	21.8879
-38.2236	430.61	21.8977
-38.2225	429.491	21.9075
-38.2214	433.676	21.9172
-38.2205	431.786	21.927
-38.2205	429.845	21.9368
-38.2195	427.518	21.9465
-38.21833	423.553	21.9563
-38.2177	430.076	21.9661
-38.2161	433.799	21.97583
-38.2168	433.741	21.9856
-38.2147	430.121	21.9954
-38.2132	423.811	22.0051
-38.2125	427.019	22.0149
-38.2131	428.6572	22.0247
-38.2113	432.849	22.0344
-38.2102	433.851	22.0442
-38.2112	429.9248	22.054
-38.208	428.166	22.0637
-38.208	422.886	22.0735
-38.2082	426.679	22.0833
-38.2068	432.189	22.093
-38.2064	433.996	22.1028
-38.2059	429.428	22.1125
-38.2043	426.675	22.1223
-38.2052	426.584	22.13208
-38.2038	427.0144	22.1418
-38.2014	429.896	22.1516
-38.2013	431.071	22.1614
-38.2	432.0062	22.1711
-38.2001	428.37	22.1809
-38.1992	424.001	22.1907
-38.1978	426.55	22.2004
-38.1973	428.529	22.2102
-38.1964	432.543	22.22
-38.1954	432.738	22.2297
-38.1954	429.047	22.2395
-38.1945	427.796	22.2493
-38.1931	425.983	22.259
-38.1915	427.566	22.2688
-38.1918	430.079	22.2786
-38.1898	430.109	22.28833
-38.19009	434.164	22.2981
-38.1877	427.963	22.3079
-38.1885	426.91	22.3176
-38.188	425.371	22.3274
-38.1865	427.854	22.3372
-38.1867	432.429	22.3469
-38.1843	429.319	22.3567
-38.18504	430.016	22.3665
-38.1837	429.1	22.3762
-38.1831	426.875	22.386
-38.1809	426.084	22.3958
-38.1821	427.474	22.4055
-38.1807	432.781	22.4153
-38.1792	431.833	22.425
-38.1776	427.842	22.4348
-38.1778	426.068	22.44458
-38.1772	424.812	22.4543
-38.1766	430.057	22.4641
-38.1754	430.75	22.4739
-38.1746	430.849	22.4836
-38.1739	429.413	22.4934
-38.173	427.673	22.5032
-38.17123	424.625	22.5129
-38.1713	424.916	22.5227
-38.1703	429.366	22.5325
-38.16943	433.499	22.5422
-38.169	431.305	22.552
-38.1682	425.471	22.5618
-38.1672	424.522	22.5715
-38.16687	426.212	22.5813
-38.1648	427.607	22.5911
-38.1645	432.843	22.60083
-38.164	431.012	22.6106
-38.1622	429.459	22.6204
-38.1622	426.506	22.6301
-38.16143	420.862	22.6399
-38.1608	427.286	22.6497
-38.1601	431.845	22.6594
-38.1599	432.538	22.6692
-38.1584	429.283	22.679
-38.1584	423.671	22.6887
-38.1574	425.7804	22.6985
-38.1557	427.141	22.7083
-38.1549	431.536	22.718
-38.1539	431.742	22.7278
-38.1527	428.323	22.7375
-38.1509	428.06	22.7473
-38.1527	421.875	22.75708
-38.1502	424.804	22.7668
-38.1491	431.258	22.7766
-38.1497	430.739	22.7864
-38.14875	432.501	22.7961
-38.1488	426.572	22.8059
-38.148	423.427	22.8157
-38.1459	426.108	22.8254
-38.1449	426.148	22.8352
-38.1448	429.097	22.845
-38.1438	430.525	22.8547
-38.1426	432.248	22.8645
-38.1421	425.295	22.8743
-38.1412	424.516	22.884
-38.1402	425.821	22.8938
-38.1404	429.997	22.9036
-38.1396	432.738	22.91333
-38.13736	428.237	22.9231
-38.1364	427.443	22.9329
-38.137	425.322	22.9426
-38.1359	426.532	22.9524
-38.134	426.57	22.9622
-38.1337	427.667	22.9719
-38.1318	431.729	22.9817
-38.1315	426.751	22.9915
-38.1312	426.435	23.0012
-38.1303	423.152	23.011
-38.13	425.66	23.0208
-38.12957	430.571	23.0305
-38.127	429.899	23.0403
-38.1276	428.976	23.05
-38.1262	428.396	23.0598
-38.1255	425.061	23.06958
-38.1244	425.724	23.0793
-38.1243	424.663	23.0891
-38.1226	431.427	23.0989
-38.1224	434.0498	23.1086
-38.1216	428.421	23.1184
-38.121	425.161	23.1282
-38.1202	423.157	23.1379
-38.1192	426.932	23.1477
-38.1187	429.116	23.1575
-38.118	431.864	23.1672
-38.1176	431.22	23.177
-38.1158	427.831	23.1868
-38.1147	423.477	23.1965
-38.1139	422.207	23.2063
-38.11412	428.462	23.2161
-38.1132	433.902	23.22583
-38.1117	433.2132	23.2356
-38.1111	427.891	23.2454
-38.1107	423.432	23.2551
-38.11087	424.788	23.2649
-38.1084	426.111	23.2747
-38.1079	430.721	23.2844
-38.1068	430.6	23.2942
-38.1057	429.519	23.304
-38.105	426.7449	23.3137
-38.1052	420.885	23.3235
-38.1039	426.856	23.3333
-38.1031	430.672	23.343
-38.1028	432.509	23.3528
-38.1005	430.921	23.3625
-38.1008	424.412	23.3723
-38.0996	425.036	23.38208
-38.0989	426.341	23.3918
-38.0986	428.176	23.4016
-38.09597	430.099	23.4114
-38.0958	429.258	23.4211
-38.0966	430.049	23.4309
-38.0946	423.775	23.4407
-38.0938	424.207	23.4504
-38.0936	428.487	23.4602
-38.0928	430.162	23.47
-38.0908	432.2135	23.4797
-38.0913	427.357	23.4895
-38.0895	424.6	23.4993
-38.0893	426.876	23.509
-38.0893	425.273	23.5188
-38.0868	428.579	23.5286
-38.0869	430.178	23.53833
-38.0853	430.877	23.5481
-38.0848	428.358	23.5579
-38.0849	423.576	23.5676
-38.0839	422.748	23.5774
-38.0816	427.266	23.5872
-38.0813	431.717	23.5969
-38.08046	428.049	23.6067
-38.08028	427.654	23.6165
-38.0785	425.979	23.6262
-38.0779	426.47	23.636
-38.0773	424.3479	23.6458
-38.0764	426.859	23.6555
-38.0754	430.433	23.6653
-38.076	430.112	23.675
-38.0751	426.8808	23.6848
-38.07494	422.868	23.69458
-38.0742	422.997	23.7043
-38.0721	428.61	23.7141
-38.0716	427.4982	23.7239
-38.0699	430.435	23.7336
-38.0699	428.118	23.7434
-38.0683	424.125	23.7532
-38.0685	423.298	23.7629
-38.0673	421.983	23.7727
-38.0656	428.986	23.7825
-38.0655	431.884	23.7922
-38.06509	428.932	23.802
-38.0638	425.718	23.8118
-38.0631	420.2261	23.8215
-38.0617	424.497	23.8313
-38.0621	427.902	23.8411
-38.0607	428.617	23.85083
-38.0606	431.2	23.8606
-38.0599	426.735	23.8704
-38.0582	423.688	23.8801
-38.0574	422.234	23.8899
-38.0562	425.107	23.8997
-38.0553	430.071	23.9094
-38.0546	431.164	23.9192
-38.0538	426.601	23.929
-38.0528	423.731	23.9387
-38.0525	422.951	23.9485
-38.0515	425.777	23.9583
-38.0502	428.96	23.968
-38.0495	427.875	23.9778
-38.0504	429.879	23.9875
-38.0474	426.126	23.9973
-38.0474	419.557	24.00708
-38.04768	423.3493	24.0168
-38.0461	426.072	24.0266
-38.0444	430.963	24.0364
-38.0451	428.968	24.0461
-38.0418	423.945	24.0559
-38.042	423.079	24.0657
-38.04187	423.509	24.0754
-38.041	424.712	24.0852
-38.0403	427.999	24.095
-38.0404	427.3306	24.1047
-38.0382	429.194	24.1145
-38.0386	423.35	24.1243
-38.0369	422.48	24.134
-38.03566	423.8389	24.1438
-38.0346	426.384	24.1536
-38.0349	429.089	24.16333
-38.0336	426.261	24.1731
-38.0335	423.143	24.1829
-38.0329	424.075	24.1926
-38.0312	422.131	24.2024
-38.0308	425.0007	24.2122
-38.0301	425.477	24.2219
-38.0292	429.494	24.2317
-38.0288	428.222	24.2415
-38.02615	424.702	24.2512
-38.0264	420.99	24.261
-38.0251	423.8483	24.2708
-38.025	429.172	24.2805
-38.023	428.392	24.2903
-38.0233	427.36	24.3
-38.02261	425.795	24.3098
-38.0215	421.761	24.31958
-38.0207	419.851	24.3293
-38.0188	422.785	24.3391
-38.0196	428.735	24.3489
-38.0177	431.222	24.3586
-38.0169	427.834	24.3684
-38.0171	421.365	24.3782
-38.016	418.712	24.3879
-38.0164	426.06	24.3977
-38.0143	423.646	24.4075
-38.0127	429.762	24.4172
-38.0135	426.111	24.427
-38.0127	424.3541	24.4368
-38.011	422.8439	24.4465
-38.01	418.357	24.4563
-38.0083	425.6517	24.4661
-38.0086	430.71	24.47583
-38.007	427.606	24.4856
-38.0064	425.59	24.4954
-38.0069	420.36	24.5051
-38.0055	420.816	24.5149
-38.0038	424.466	24.5247
-38.0038	427.245	24.5344
-38.0032	429.635	24.5442
-38.0022	424.24	24.554
-38.0002	422.4903	24.5637
-38.0015	418.213	24.5735
-37.9995	420.985	24.5833
-37.9988	427.202	24.593
-37.9972	428.287	24.6028
-37.9964	425.599	24.6125
-37.9957	419.834	24.6223
-37.996	420.038	24.63208
-37.9949	420.144	24.6418
-37.9944	425.6022	24.6516
-37.9926	425.472	24.6614
-37.993	426.39	24.6711
-37.9913	423.719	24.6809
-37.9905	418.734	24.6907
-37.9887	420.9021	24.7004
-37.9891	421.079	24.7102
-37.9881	426.828	24.72
-37.9877	426.821	24.7297
-37.986	421.537	24.7395
-37.98761	421.8244	24.7493
-37.9847	420.007	24.759
-37.9835	421.458	24.7688
-37.98299	422.45	24.7786
-37.9832	422.753	24.78833
-37.9814	426.675	24.7981
-37.981	421.6582	24.8079
-37.9798	420.25	24.8176
-37.9797	419.062	24.8274
-37.9781	421.522	24.8372
-37.97718	425.304	24.8469
-37.97847	422.869	24.8567
-37.9764	423.689	24.8665
-37.976	422.311	24.8762
-37.9743	418.481	24.886
-37.9747	419.598	24.8958
-37.9727	420.071	24.9055
-37.9721	425.0192	24.9153
-37.9711	424.391	24.925
-37.96991	422.1138	24.9348
-37.9705	416.849	24.94458
-37.969	416.67	24.9543
-37.96756	421.581	24.9641
-37.9671	422.948	24.9739
-37.9661	423.706	24.9836
-37.9657	421.821	24.9934
-37.9656	420.271	25.0032
-37.9634	417.056	25.0129
-37.9625	416.009	25.0227
-37.96228	422.32	25.0325
-37.961	425.089	25.0422
-37.9606	424.1452	25.052
-37.9609	418.369	25.0618
-37.9596	413.765	25.0715
-37.9585	417.386	25.0813
-37.9578	418.282	25.0911
-37.9568	423.856	25.10083
-37.9565	420.705	25.1106
-37.9555	419.536	25.1204
-37.9528	417.087	25.1301
-37.95319	411.317	25.1399
-37.9518	419.585	25.1497
-37.9514	422.575	25.1594
-37.9508	423.356	25.1692
-37.9505	418.69	25.179
-37.9502	412.651	25.1887
-37.9482	413.322	25.1985
-37.9471	415.956	25.2083
-37.9463	417.425	25.218
-37.9459	418.338	25.2278
-37.9445	416.809	25.2375
-37.9446	413.917	25.2473
-37.942	407.877	25.25708
-37.942	408.973	25.2668
-37.9419	411.572	25.2766
-37.9422	413.852	25.2864
-37.9407	412.139	25.2961
-37.9396	406.868	25.3059
-37.938	401.749	25.3157
-37.9336	-9.312	25.3254
-37.934	-36.22562	25.3352
-37.9349	-63.8709	25.345
-37.93335	-37.9846	25.3547
-37.9329	-38.1168	25.3645
-37.9323	-39.283	25.3743
-37.9321	-46.4004	25.384
-37.9318	-43.6899	25.3938
-37.9304	-41.1516	25.4036
-37.9303	-37.9327	25.41333
-37.92976	-41.5978	25.4231
-37.9276	-41.8116	25.4329
-37.9271	-45.1018	25.4426
-37.9259	-43.2959	25.4524
-37.9255	-43.5075	25.4622
-37.9246	-41.6445	25.4719
-37.9245	-38.2497	25.4817
-37.92387	-41.8022	25.4915
-37.9232	-43.8509	25.5012
-37.9209	-46.2681	25.511
-37.9218	-45.5642	25.5208
-37.9203	-39.7063	25.5305
-37.9189	-42.0322	25.5403
-37.9178	-39.9888	25.55
-37.9176	-42.046	25.5598
-37.9167	-44.7791	25.56958
-37.9162	-45.0911	25.5793
-37.9146	-46.2837	25.5891
-37.9147	-41.3995	25.5989
-37.9124	-36.0092	25.6086
-37.9127	-40.7136	25.6184
-37.9112	-45.89537	25.6282
-37.9114	-47.3018	25.6379
-37.9106	-43.6755	25.6477
-37.9092	-41.5252	25.6575
-37.9101	-38.31184	25.6672
-37.9073	-39.36937	25.677
-37.90797	-42.8989	25.6868
-37.9067	-46.6096	25.6965
-37.9063	-48.7727	25.7063
-37.9057	-42.3669	25.7161
-37.9039	-37.4674	25.72583
-37.9025	-38.4901	25.7356
-37.9026	-44.0205	25.7454
-37.901	-48.5887	25.7551
-37.8998	-46.05378	25.7649
-37.9004	-44.1456	25.7747
-37.89917	-39.5612	25.7844
-37.8977	-39.4645	25.7942
-37.898	-41.2269	25.804
-37.8966	-43.3585	25.8137
-37.8966	-50.1831	25.8235
-37.8945	-44.4375	25.8333
-37.8943	-40.1329	25.843
-37.8928	-38.52232	25.8528
-37.8938	-40.6449	25.8625
-37.8906	-46.0286	25.8723
-37.8916	-44.6566	25.88208
-37.8906	-44.535	25.8918
-37.8895	-42.2181	25.9016
-37.88858	-39.5607	25.9114
-37.8874	-40.26	25.9211
-37.8873	-40.3454	25.9309
-37.8859	-47.0263	25.9407
-37.8849	-47.2408	25.9504
-37.8841	-43.1733	25.9602
-37.8833	-39.8355	25.97
-37.8836	-39.10342	25.9797
-37.8807	-41.9793	25.9895
-37.8814	-44.5765	25.9993
-37.8806	-44.0271	26.009
-37.8807	-44.8849	26.0188
-37.8795	-41.75861	26.0286
-37.8779	-42.178	26.03833
-37.8786	-39.55209	26.0481
-37.8763	-40.4743	26.0579
-37.8756	-44.246	26.0676
-37.8752	-46.8406	26.0774
-37.8734	-43.2988	26.0872
-37.8738	-39.1092	26.0969
-37.8726	-42.5618	26.1067
-37.8715	-41.9801	26.1165
-37.8711	-44.3353	26.1262
-37.8692	-44.2298	26.136
-37.8688	-44.6483	26.1458
-37.8684	-44.935	26.1555
-37.8674	-37.5902	26.1653
-37.8666	-39.2314	26.175
-37.8669	-42.1604	26.1848
-37.865	-46.7132	26.19458
-37.8642	-46.6352	26.2043
-37.8638	-41.6442	26.2141
-37.863	-42.2543	26.2239
-37.8614	-39.3673	26.2336
-37.8607	-43.4612	26.2434
-37.8599	-44.2485	26.2532
-37.8596	-44.7363	26.2629
-37.8587	-47.1563	26.2727
-37.858	-41.3724	26.2825
-37.8575	-37.4678	26.2922
-37.85601	-40.0013	26.302
-37.8552	-44.4244	26.3118
-37.8548	-47.6857	26.3215
-37.854	-45.6445	26.3313
-37.85413	-40.6864	26.3411
-37.8515	-39.831	26.35083
-37.8511	-39.7807	26.3606
-37.8493	-43.265	26.3704
-37.8497	-44.1945	26.3801
-37.8485	-48.332	26.3899
-37.848	-43.9456	26.3997
-37.8468	-39.1226	26.4094
-37.8466	-38.1504	26.4192
-37.8452	-41.0405	26.429
-37.8454	-47.1325	26.4387
-37.8438	-45.6422	26.4485
-37.8437	-43.3017	26.4583
-37.8423	-39.5997	26.468
-37.8415	-40.2952	26.4778
-37.8403	-40.9137	26.4875
-37.8406	-42.4208	26.4973
-37.8387	-48.9421	26.50708
-37.8383	-43.427	26.5168
-37.8373	-43.5589	26.5266
-37.8369	-37.2488	26.5364
-37.8361	-39.3299	26.5461
-37.8354	-45.5028	26.5559
-37.8344	-45.74	26.5657
-37.8338	-44.1727	26.5754
-37.8326	-44.4511	26.5852
-37.8318	-40.7683	26.595
-37.831	-40.7572	26.6047
-37.8297	-38.7549	26.6145
-37.8299	-44.2295	26.6243
-37.8286	-45.91856	26.634
-37.8288	-44.6549	26.6438
-37.82732	-41.7435	26.6536
-37.827	-37.17	26.66333
-37.8248	-41.4669	26.6731
-37.825	-42.8215	26.6829
-37.8239	-42.8822	26.6926
-37.8228	-44.176	26.7024
-37.82222	-43.0452	26.7122
-37.8212	-43.6143	26.7219
-37.8202	-40.1137	26.7317
-37.8193	-41.6368	26.7415
-37.8183	-43.32893	26.7512
-37.81715	-47.8561	26.761
-37.8185	-45.0252	26.7708
-37.8171	-41.05249	26.7805
-37.8157	-39.903	26.7903
-37.8151	-39.1486	26.8
-37.8144	-42.9233	26.8098
-37.81424	-43.5933	26.81958
-37.8123	-45.6023	26.8293
-37.81076	-46.7532	26.8391
-37.8102	-40.0941	26.8489
-37.8097	-37.187	26.8586
-37.8097	-39.9984	26.8684
-37.8088	-45.9793	26.8782
-37.8074	-47.7602	26.8879
-37.8063	-41.5434	26.8977
-37.80624	-41.2025	26.9075
-37.804	-38.76733	26.9172
-37.8038	-41.3422	26.927
-37.8031	-44.0603	26.9368
-37.802	-44.0717	26.9465
-37.8019	-47.2768	26.9563
-37.80106	-41.4033	26.9661
-37.7992	-38.4485	26.97583
-37.7998	-40.0466	26.9856
-37.7993	-41.0608	26.9954
-37.798	-47.7705	27.0051
-37.7967	-47.0893	27.0149
-37.7951	-40.5849	27.0247
-37.7961	-39.7656	27.0344
-37.7944	-38.6158	27.0442
-37.793	-41.9968	27.054
-37.7921	-45.31274	27.0637
-37.79055	-48.6789	27.0735
-37.7922	-44.0499	27.0833
-37.7904	-40.97298	27.093
-37.7899	-37.3393	27.1028
-37.78912	-40.1793	27.1125
-37.7887	-46.6062	27.1223
-37.7877	-47.4013	27.13208
-37.7862	-43.816	27.1418
-37.7858	-39.6925	27.1516
-37.7845	-40.4777	27.1614
-37.7839	-41.6743	27.1711
-37.78331	-41.40863	27.1809
-37.7807	-47.7719	27.1907
-37.7817	-43.8843	27.2004
-37.7804	-43.3618	27.2102
-37.7797	-38.5105	27.22
-37.7784	-36.8167	27.2297
-37.77832	-45.2246	27.2395
-37.77705	-44.3833	27.2493
-37.7756	-45.1813	27.259
-37.7767	-43.5124	27.2688
-37.77557	-43.6829	27.2786
-37.7752	-42.556	27.28833
-37.7744	-39.8188	27.2981
-37.7732	-40.9457	27.3079
-37.771	-45.1341	27.3176
-37.7701	-45.7619	27.3274
-37.7705	-45.6638	27.3372
-37.7695	-38.6011	27.3469
-37.76791	-42.7926	27.3567
-37.7674	-43.2027	27.3665
-37.7666	-42.415	27.3762
-37.7655	-45.1283	27.386
-37.7653	-45.752	27.3958
-37.7644	-43.4821	27.4055
-37.76339	-40.1959	27.4153
-37.7621	-38.5178	27.425
-37.7621	-42.5476	27.4348
-37.7616	-46.69556	27.44458
-37.7596	-46.9349	27.4543
-37.75983	-41.871	27.4641
-37.7593	-40.2601	27.4739
-37.7579	-38.654	27.4836
-37.7558	-42.6727	27.4934
-37.756	-42.6064	27.5032
-37.75602	-45.3126	27.5129
-37.75391	-46.9886	27.5227
-37.7543	-39.3802	27.5325
-37.7523	-37.0783	27.5422
-37.7523	-38.8711	27.552
-37.7507	-44.7566	27.5618
-37.7502	-47.742	27.5715
-37.7503	-42.9689	27.5813
-37.7505	-41.5639	27.5911
-37.74728	-37.2671	27.60083
-37.7479	-39.9802	27.6106
-37.7472	-43.1764	27.6204
-37.746	-43.4588	27.6301
-37.7454	-48.5883	27.6399
-37.7443	-42.0417	27.6497
-37.7419	-38.2358	27.6594
-37.7426	-37.8726	27.6692