File: data/processed_data_files/tensile/0.254_hd_dimension_typei_4545_r(5).dat
MTS793|BTW|ENU|1|2|.|/|:|1|0|0|A

Data Header:			0.254_hd_dimension_typei_4545_r0			Time:	20.0247	s	4/15/2019 3:18:09 PM
Data Acquisition:	Timed
Station Name:	ft40.cfg
Test File Name:	monotonic_0.2540_typei_hd_4545_dimension.tst
Displacement	Force	Running Time
mm	N	s
9.98137	-163.72	0.0297852
9.98158	-173.282	0.0493164
9.9815	-172.346	0.0688477
9.98256	-163.1207	0.0883789
9.983387	-170.982	0.10791
9.98377	-172.708	0.127441
9.9865	-164.299	0.146973
9.98817	-163.334	0.166504
9.98956	-173.3588	0.186035
9.99098	-162.914	0.205566
9.99261	-163.113	0.225098
9.99472	-169.5683	0.244629
9.99602	-166.237	0.26416
9.99773	-155.852	0.283691
9.99999	-165.3223	0.303223
10.0003	-167.906	0.322754
10.0028	-158.024	0.342285
10.0039	-162.079	0.361816
10.0057	-163.369	0.381348
10.0077	-153.923	0.400879
10.00945	-157.658	0.42041
10.0117	-165.744	0.439941
10.0124	-153.968	0.459473
10.0136	-152.4792	0.479004
10.0168	-161.9892	0.498535
10.0162	-155.419	0.518066
10.0189	-149.504	0.537598
10.02031	-162.032	0.557129
10.022	-154.378	0.57666
10.0238	-147.081	0.596191
10.0261	-155.946	0.615723
10.0267	-154.635	0.635254
10.02923	-141.652	0.654785
10.0295	-155.735	0.674316
10.0321	-153.309	0.693848
10.03304	-141.867	0.713379
10.0341	-145.579	0.73291
10.0366	-152.941	0.752441
10.0385	-140.234	0.771973
10.0405	-146.229	0.791504
10.041	-149.315	0.811035
10.0423	-142.846	0.830566
10.0435	-138.033	0.850098
10.0468	-149.478	0.869629
10.0475	-142.871	0.88916
10.0488	-136.952	0.908691
10.0507	-142.91	0.928223
10.0531	-144.6291	0.947754
10.0549	-133.058	0.967285
10.0563	-139.411	0.986816
10.0585	-142.705	1.00635
10.0593	-133.804	1.02588
10.06132	-134.758	1.04541
10.0632	-142.905	1.06494
10.0642	-128.963	1.08447
10.0659	-128.116	1.104
10.0677	-142.869	1.12354
10.0695	-132.919	1.14307
10.0719	-125.924	1.1626
10.0709	-135.697	1.18213
10.0741	-130.564	1.20166
10.0761	-120.3279	1.22119
10.0767	-134.622	1.24072
10.0782	-129.794	1.26025
10.0804	-120.727	1.27979
10.0828	-127.299	1.29932
10.0851	-129.933	1.31885
10.085	-117.036	1.33838
10.0861	-125.884	1.35791
10.0893	-129.119	1.37744
10.09	-118.55	1.39697
10.0917	-117.688	1.4165
10.0935	-126.315	1.43604
10.0957	-117.241	1.45557
10.09666	-116.104	1.4751
10.0983	-120.858	1.49463
10.1001	-117.888	1.51416
10.102	-109.281	1.53369
10.10336	-120.0173	1.55322
10.1052	-118.113	1.57275
10.1063	-110.109	1.59229
10.1079	-113.412	1.61182
10.1105	-118.488	1.63135
10.1118	-107.617	1.65088
10.1136	-107.212	1.67041
10.114	-117.276	1.68994
10.1154	-106.894	1.70947
10.1181	-105.045	1.729
10.1194	-114.219	1.74854
10.1219	-104.62	1.76807
10.1231	-97.8983	1.7876
10.1239	-113.39	1.80713
10.1262	-104.973	1.82666
10.12785	-96.9692	1.84619
10.1291	-104.761	1.86572
10.1309	-105.809	1.88525
10.1334	-94.247	1.90479
10.134	-105.436	1.92432
10.1354	-102.194	1.94385
10.1369	-94.8633	1.96338
10.1381	-95.8882	1.98291
10.1411	-103.212	2.00244
10.1423	-90.2374	2.02197
10.1442	-94.9073	2.0415
10.1451	-98.8506	2.06104
10.1475	-93.6086	2.08057
10.14989	-86.9499	2.1001
10.1504	-96.3315	2.11963
10.1514	-91.6445	2.13916
10.1536	-89.9192	2.15869
10.1553	-93.9071	2.17822
10.1571	-93.1279	2.19775
10.1593	-80.6309	2.21729
10.1597	-88.9542	2.23682
10.1626	-93.1026	2.25635
10.1629	-82.2251	2.27588
10.165	-81.77179	2.29541
10.1663	-89.8324	2.31494
10.1692	-80.3291	2.33447
10.1711	-78.52507	2.354
10.1718	-87.8208	2.37354
10.1729	-79.554	2.39307
10.17489	-74.6601	2.4126
10.1767	-84.5511	2.43213
10.1788	-80.2095	2.45166
10.1802	-67.3075	2.47119
10.18114	-82.0172	2.49072
10.18324	-79.7558	2.51025
10.1846	-69.2746	2.52979
10.1863	-73.7059	2.54932
10.1875	-76.4839	2.56885
10.1892	-65.8488	2.58838
10.1901	-73.962	2.60791
10.1927	-75.0519	2.62744
10.1948	-66.1544	2.64697
10.1965	-64.4202	2.6665
10.19703	-74.3208	2.68604
10.1995	-64.1389	2.70557
10.2002	-62.6103	2.7251
10.203	-67.1684	2.74463
10.20457	-65.32991	2.76416
10.2058	-56.7216	2.78369
10.2074	-63.819	2.80322
10.2094	-62.8491	2.82275
10.2101	-56.0241	2.84229
10.2133	-61.3765	2.86182
10.2146	-63.6885	2.88135
10.216	-53.2671	2.90088
10.2178	-54.3052	2.92041
10.2186	-63.6153	2.93994
10.2193	-53.0951	2.95947
10.2222	-50.7155	2.979
10.2244	-59.5885	2.99854
10.2257	-52.3611	3.01807
10.2272	-44.2181	3.0376
10.2284	-58.805	3.05713
10.2296	-51.41383	3.07666
10.2319	-43.1005	3.09619
10.2328	-51.5333	3.11572
10.2347	-50.9866	3.13525
10.23618	-38.2733	3.15479
10.23814	-48.9927	3.17432
10.2401	-50.087	3.19385
10.2413	-39.7571	3.21338
10.2437	-41.1875	3.23291
10.24422	-47.0211	3.25244
10.2455	-36.7625	3.27197
10.2477	-41.1173	3.2915
10.249	-45.595	3.31104
10.2513	-36.9697	3.33057
10.2533	-31.7435	3.3501
10.2546	-42.3162	3.36963
10.2567	-35.36618	3.38916
10.25739	-32.0584	3.40869
10.2596	-36.2447	3.42822
10.26102	-37.9049	3.44775
10.2623	-26.3694	3.46729
10.265	-33.9657	3.48682
10.2669	-33.9446	3.50635
10.2678	-26.6563	3.52588
10.2691	-27.6228	3.54541
10.2704	-36.3018	3.56494
10.2724	-23.9066	3.58447
10.2744	-21.5379	3.604
10.275	-32.3497	3.62354
10.2766	-25.7427	3.64307
10.2786	-18.85549	3.6626
10.2807	-27.9474	3.68213
10.283	-22.4602	3.70166
10.2837	-14.56939	3.72119
10.2857	-27.7659	3.74072
10.2875	-23.8434	3.76025
10.2886	-11.6211	3.77979
10.2905	-18.9399	3.79932
10.2915	-22.2315	3.81885
10.2929	-8.14704	3.83838
10.2944	-16.7334	3.85791
10.29712	-19.978	3.87744
10.29873	-10.893	3.89697
10.3002	-8.30454	3.9165
10.301	-17.6987	3.93604
10.3032	-8.06827	3.95557
10.30478	-6.74616	3.9751
10.3068	-13.3278	3.99463
10.3083	-8.871232	4.01416
10.3086	0.13328	4.03369
10.3117	-9.92348	4.05322
10.3133	-9.23963	4.07275
10.3141	-1.22	4.09229
10.31633	-3.32442	4.11182
10.3177	-6.92252	4.13135
10.3191	2.85222	4.15088
10.3226	0.406431	4.17041
10.323	-6.30516	4.18994
10.3239	3.98039	4.20947
10.3265	7.005156	4.229
10.3272	-3.36919	4.24854
10.3287	3.77804	4.26807
10.3315	11.59	4.2876
10.3315	-0.669229	4.30713
10.3335	5.13764	4.32666
10.3356	13.5779	4.34619
10.3368	5.33636	4.36572
10.3386	6.21061	4.38525
10.3404	18.86068	4.40479
10.3423	6.47864	4.42432
10.3446	6.93526	4.44385
10.3455	18.4613	4.46338
10.34821	16.9276	4.48291
10.3485	7.7141	4.50244
10.3508	22.427	4.52197
10.3529	20.03396	4.5415
10.3539	13.2017	4.56104
10.3546	19.55571	4.58057
10.356	25.7858	4.6001
10.3587	15.2683	4.61963
10.3599	21.5507	4.63916
10.36205	26.3353	4.65869
10.3633	20.6872	4.67822
10.3657	19.0987	4.69775
10.3668	33.5922	4.71729
10.3682	26.0212	4.73682
10.3698	22.1721	4.75635
10.3718	29.6941	4.77588
10.3736	33.1167	4.79541
10.37509	24.73686	4.81494
10.37691	32.8576	4.83447
10.379	34.5471	4.854
10.3795	23.8643	4.87354
10.3815	32.00647	4.89307
10.3821	39.7385	4.9126
10.3846	28.297	4.93213
10.3863	32.7331	4.95166
10.3883	45.8321	4.97119
10.3893	33.5072	4.99072
10.3909	32.733	5.01025
10.3928	44.9886	5.02979
10.3945	40.7909	5.04932
10.3949	36.0609	5.06885
10.39689	50.5781	5.08838
10.3994	40.2439	5.10791
10.4004	39.1203	5.12744
10.4026	48.4276	5.14697
10.4035	50.4463	5.1665
10.4055	40.5798	5.18604
10.4077	49.5364	5.20557
10.4097	50.6482	5.2251
10.4097	46.55386	5.24463
10.4129	49.1057	5.26416
10.413	57.8339	5.28369
10.4158	48.44788	5.30322
10.417	53.8209	5.32275
10.4179	59.5285	5.34229
10.42131	54.955	5.36182
10.4225	50.2334	5.38135
10.423	62.48291	5.40088
10.425	59.2226	5.42041
10.4279	53.4905	5.43994
10.4278	61.49036	5.45947
10.43	64.4799	5.479
10.4323	56.7419	5.49854
10.4337	65.9827	5.51807
10.4339	71.0896	5.5376
10.4363	56.6139	5.55713
10.4383	63.9665	5.57666
10.4398	74.1921	5.59619
10.44209	63.3073	5.61572
10.4422	63.6066	5.63525
10.4448	76.702	5.65479
10.4468	68.7193	5.67432
10.4477	65.2856	5.69385
10.4495	77.3514	5.71338
10.45084	74.5941	5.73291
10.4531	67.3806	5.75244
10.4558	82.2936	5.77197
10.457	75.9802	5.7915
10.4584	70.35865	5.81104
10.4599	78.8133	5.83057
10.4616	85.1318	5.8501
10.463	75.1875	5.86963
10.4645	80.8908	5.88916
10.46539	85.0498	5.90869
10.4672	79.8375	5.92822
10.46937	79.4302	5.94775
10.4702	90.652	5.96729
10.4726	82.0085	5.98682
10.4738	82.0718	6.00635
10.4761	90.7854	6.02588
10.4763	91.0051	6.04541
10.479	80.4683	6.06494
10.4793	93.2473	6.08447
10.4827	95.4146	6.104
10.48295	85.5637	6.12354
10.4857	90.9139	6.14307
10.4877	98.5839	6.1626
10.488	88.2803	6.18213
10.491	94.4572	6.20166
10.4914	103.42	6.22119
10.4935	90.5365	6.24072
10.4951	93.2035	6.26025
10.497	106.344	6.27979
10.4981	100.221	6.29932
10.5004	94.8358	6.31885
10.5008	108.086	6.33838
10.50349	102.251	6.35791
10.5051	97.404	6.37744
10.506	108.6118	6.39697
10.509	108.201	6.4165
10.5104	98.7257	6.43604
10.51136	110.117	6.45557
10.5129	109.935	6.4751
10.5148	104.502	6.49463
10.5167	106.673	6.51416
10.51871	117.755	6.53369
10.519	108.999	6.55322
10.5208	109.984	6.57275
10.5233	116.361	6.59229
10.5242	114.271	6.61182
10.5266	109.18	6.63135
10.5273	122.688	6.65088
10.5287	119.65	6.67041
10.5314	110.603	6.68994
10.533	120.601	6.70947
10.5345	125.444	6.729
10.5351	113.39	6.74854
10.5381	122.464	6.76807
10.539	128.573	6.7876
10.5406	117.6918	6.80713
10.5416	121.902	6.82666
10.5436	132.05	6.84619
10.5452	124.275	6.86572
10.5462	124.737	6.88525
10.549	137.235	6.90479
10.5508	125.873	6.92432
10.55179	121.716	6.94385
10.5541	135.728	6.96338
10.5545	133.306	6.98291
10.5566	127.226	7.00244
10.559	138.8	7.02197
10.5609	135.581	7.0415
10.5617	129.495	7.06104
10.5639	138.4971	7.08057
10.5654	142.933	7.1001
10.5661	130.993	7.11963
10.5682	139.318	7.13916
10.5685	143.118	7.15869
10.5716	138.7579	7.17822
10.5736	138.158	7.19775
10.5751	149.938	7.21729
10.5762	142.877	7.23682
10.5784	141.0204	7.25635
10.5797	148.453	7.27588
10.5812	148.34	7.29541
10.5828	140.77	7.31494
10.5842	153.9713	7.33447
10.5859	154.414	7.354
10.58759	144.373	7.37354
10.5902	150.027	7.39307
10.5907	158.795	7.4126
10.5925	147.4108	7.43213
10.5953	153.04	7.45166
10.59677	160.322	7.47119
10.5982	151.801	7.49072
10.5995	151.92	7.51025
10.5998	164.4774	7.52979
10.6036	155.484	7.54932
10.6045	153.657	7.56885
10.606	167.304	7.58838
10.6073	159.675	7.60791
10.6096	153.189	7.62744
10.6104	165.573	7.64697
10.6122	168.372	7.6665
10.6141	158.198	7.68604
10.6161	167.338	7.70557
10.6189	168.982	7.7251
10.6193	163.053	7.74463
10.6202	165.838	7.76416
10.6215	177.149	7.78369
10.6236	163.983	7.80322
10.6252	168.44	7.82275
10.6267	177.027	7.84229
10.6284	173.325	7.86182
10.6304	166.73	7.88135
10.6322	180.4035	7.90088
10.6329	176.024	7.92041
10.63474	172.015	7.93994
10.6372	178.946	7.95947
10.6384	183.874	7.979
10.6397	171.449	7.99854
10.6412	183.702	8.01807
10.6429	187.923	8.0376
10.6447	176.091	8.05713
10.6454	179.537	8.07666
10.6485	191.549	8.09619
10.6501	181.695	8.11572
10.6516	182.503	8.13525
10.653	195	8.15479
10.6545	184.4	8.17432
10.6558	182.664	8.19385
10.6591	196.2119	8.21338
10.6597	192.711	8.23291
10.6606	183.981	8.25244
10.6623	198.12	8.27197
10.665	195.72	8.2915
10.6658	187.261	8.31104
10.6675	197.089	8.33057
10.6696	200.981	8.3501
10.6703	190.814	8.36963
10.6725	198.036	8.38916
10.6747	202.106	8.40869
10.676	196.845	8.42822
10.6766	197.553	8.44775
10.6783	210.47	8.46729
10.6806	202.371	8.48682
10.6828	198.249	8.50635
10.6852	208.035	8.52588
10.6846	209.264	8.54541
10.6865	199.549	8.56494
10.6874	211.185	8.58447
10.6901	211.1133	8.604
10.6925	203.699	8.62354
10.6948	208.844	8.64307
10.6951	217.907	8.6626
10.6974	204.355	8.68213
10.6994	212.532	8.70166
10.6994	221.656	8.72119
10.7018	211.474	8.74072
10.7037	208.425	8.76025
10.7058	222.994	8.77979
10.70602	216.641	8.79932
10.7082	212.595	8.81885
10.7092	225.581	8.83838
10.7114	219.449	8.85791
10.7127	212.794	8.87744
10.7146	227.245	8.89697
10.71652	226.362	8.9165
10.7185	215.615	8.93604
10.7198	227.857	8.95557
10.7214	229.026	8.9751
10.722	221.34	8.99463
10.7248	224.381	9.01416
10.7267	234.26	9.03369
10.728	224.105	9.05322
10.7286	229.2	9.07275
10.7307	233.965	9.09229
10.7319	231.219	9.11182
10.7343	226.441	9.13135
10.7366	241.029	9.15088
10.73761	236.232	9.17041
10.7399	229.872	9.18994
10.7416	235.963	9.20947
10.7436	242.734	9.229
10.7445	232.442	9.24854
10.7453	242.2242	9.26807
10.748	245.112	9.2876
10.749	236.4854	9.30713
10.7518	239.0835	9.32666
10.753	251.16	9.34619
10.7538	238.253	9.36572
10.7556	239.676	9.38525
10.7564	253.699	9.40479
10.7579	244.896	9.42432
10.7608	240.08	9.44385
10.7615	253.956	9.46338
10.7638	250.7717	9.48291
10.7647	242.5121	9.50244
10.7669	255.5955	9.52197
10.7692	251.854	9.5415
10.7694	243.106	9.56104
10.7724	252.616	9.58057
10.7728	260.42	9.6001
10.7751	247.223	9.61963
10.7766	255.703	9.63916
10.7782	261.052	9.65869
10.7809	255.507	9.67822
10.7814	254.498	9.69775
10.784	266.5296	9.71729
10.7837	257.699	9.73682
10.7854	256.873	9.75635
10.7875	266.373	9.77588
10.7895	265.807	9.79541
10.7914	255.424	9.81494
10.79284	269.525	9.83447
10.796	271.913	9.854
10.7961	260.898	9.87354
10.7983	267.298	9.89307
10.7995	277.023	9.9126
10.8011	263.957	9.93213
10.8024	269.934	9.95166
10.8048	280.843	9.97119
10.806	267.812	9.99072
10.8083	267.929	10.0103
10.8087	283.442	10.0298
10.811	273.811	10.0493
10.8118	269.152	10.0688
10.8134	283.753	10.0884
10.8161	279.427	10.10791
10.8168	269.148	10.1274
10.8183	283.341	10.147
10.8205	286.538	10.1665
10.8227	274.8493	10.186
10.824	284.784	10.2056
10.8254	288.439	10.2251
10.8272	277.529	10.2446
10.8298	283.156	10.26416
10.831	295.432	10.2837
10.8325	284.846	10.3032
10.8339	285.748	10.3228
10.83421	294.807	10.3423
10.8372	289.677	10.3618
10.8381	283.217	10.3813
10.8397	299.658	10.4009
10.8408	295.901	10.42041
10.8437	287.73	10.4399
10.84538	296.531	10.4595
10.847	301.759	10.479
10.8478	287.211	10.4985
10.8512	298.58	10.5181
10.8509	305.25	10.5376
10.8524	294.469	10.5571
10.8543	296.778	10.57666
10.8567	308.053	10.5962
10.8583	296.603	10.6157
10.8581	299.56	10.6353
10.861	311.277	10.6548
10.8626	301.2402	10.6743
10.8651	295.279	10.6938
10.8665	312.832	10.7134
10.8674	308.956	10.73291
10.8691	300.386	10.7524
10.8717	312.414	10.772
10.872	311.17	10.7915
10.8745	301.9422	10.811
10.876	310.817	10.8306
10.8782	317.851	10.8501
10.8789	305.367	10.8696
10.88	313.393	10.88916
10.8811	322.254	10.9087
10.8846	312.173	10.9282
10.8852	311.2034	10.9478
10.8875	325.817	10.9673
10.8885	317.85	10.9868
10.8917	314.339	11.0063
10.8908	323.935	11.0259
10.8941	325.549	11.04541
10.8959	314.545	11.0649
10.8978	327.965	11.0845
10.8988	330.584	11.104
10.9007	317.578	11.1235
10.9021	324.1217	11.1431
10.9048	335.61	11.1626
10.9052	320.901	11.1821
10.9059	326.649	11.20166
10.908	337.118	11.2212
10.9106	326.867	11.2407
10.9118	324.546	11.2603
10.9128	339.839	11.2798
10.9152	329.832	11.2993
10.9168	328.237	11.3188
10.9174	341.545	11.3384
10.9199	336.587	11.35791
10.9218	326.408	11.3774
10.9227	341.498	11.397
10.924	343.548	11.4165
10.9259	329.8158	11.436
10.9285	342.3526	11.4556
10.9295	344.815	11.4751
10.9311	334.476	11.4946
10.9329	340.4	11.51416
10.9336	352.702	11.5337
10.9366	339.3	11.5532
10.937	341.971	11.5728
10.9391	351.477	11.5923
10.9413	345.705	11.6118
10.9423	339.573	11.6313
10.9454	355.889	11.6509
10.9463	352.782	11.67041
10.948	344.45	11.6899
10.9498	350.721	11.7095
10.9509	358.64	11.729
10.9527	344.777	11.7485
10.9535	356.278	11.7681
10.9561	363.901	11.7876
10.9576	348.865	11.8071
10.9589	351.472	11.82666
10.9601	369.028	11.8462
10.9626	353.743	11.8657
10.9641	353.014	11.8853
10.9655	366.0983	11.9048
10.9661	361.043	11.9243
10.9694	354.095	11.9438
10.9709	371.43	11.9634
10.972	363.743	11.98291
10.9735	356.188	12.0024
10.9751	371.735	12.022
10.9771	370.706	12.0415
10.9786	355.708	12.061
10.9802	367.094	12.0806
10.9812	375.138	12.1001
10.983	363.304	12.1196
10.9849	369.994	12.13916
10.986	376.242	12.1587
10.9883	367.553	12.1782
10.9899	367.712	12.1978
10.9912	381.689	12.2173
10.9931	373.137	12.2368
10.9943	370.524	12.2563
10.9962	379.899	12.2759
10.9979	380.011	12.29541
10.9997	368.49	12.3149
11.0007	383.925	12.3345
11.0042	385.58	12.354
11.0042	372.7262	12.3735
11.0051	379.567	12.3931
11.0077	389.787	12.4126
11.01	374.967	12.4321
11.0109	382.957	12.45166
11.012	393.399	12.4712
11.0145	382.482	12.4907
11.01627	378.62	12.5103
11.0169	395.913	12.5298
11.0192	386.5437	12.5493
11.0213	382.484	12.5688
11.0225	395.067	12.5884
11.0238	393.127	12.60791
11.0252	381.079	12.6274
11.0262	396.628	12.647
11.0281	398.204	12.6665
11.0305	384.316	12.686
11.0317	397.456	12.7056
11.0337	401.893	12.7251
11.0351	387.596	12.7446
11.0368	396.17	12.76416
11.03728	406.801	12.7837
11.0406	396.163	12.8032
11.0418	397.172	12.8228
11.044	406.298	12.8423
11.0459	400.26	12.8618
11.046	394.3031	12.8813
11.0479	411.518	12.9009
11.0502	406.522	12.92041
11.051	397.852	12.9399
11.0521	407.05	12.9595
11.0545	415.26	12.979
11.0561	399.3031	12.9985
11.0575	412.084	13.0181
11.0605	415.919	13.0376
11.061	405.433	13.0571
11.0616	405.497	13.07666
11.0651	419.628	13.0962
11.0657	407.221	13.1157
11.0676	409.544	13.1353
11.0702	422.772	13.1548
11.0716	413.517	13.1743
11.0728	405.536	13.1938
11.0739	424.864	13.2134
11.0768	420.648	13.23291
11.0768	410.898	13.2524
11.079	423.52	13.272
11.0808	424.513	13.2915
11.0828	411.535	13.311
11.0846	424.701	13.3306
11.0856	430.08	13.3501
11.087	417.513	13.3696
11.0887	424.817	13.38916
11.0909	432.486	13.4087
11.0914	420.218	13.4282
11.0942	421.89	13.4478
11.09469	435.485	13.4673
11.0966	426.63	13.4868
11.0985	424.601	13.5063
11.0997	432.86	13.5259
11.1019	434.5853	13.54541
11.104	424.825	13.5649
11.1048	438.683	13.5845
11.1065	441.027	13.604
11.1093	427.7666	13.6235
11.1104	433.776	13.6431
11.1109	445.545	13.6626
11.1129	430.147	13.6821
11.1155	437.227	13.70166
11.1176	447.383	13.7212
11.1179	435.996	13.7407
11.12	433.228	13.7603
11.1217	451.293	13.7798
11.1227	439.61	13.7993
11.1243	437.336	13.8188
11.1267	451.37	13.8384
11.1276	447.789	13.85791
11.1304	434.071	13.8774
11.1328	451.019	13.897
11.1335	453.608	13.9165
11.1347	442.171	13.936
11.1361	453.664	13.9556
11.1384	455.969	13.9751
11.1393	443.038	13.9946
11.1411	450.685	14.01416
11.1434	461.832	14.0337
11.1454	449.773	14.0532
11.1471	450.066	14.0728
11.1483	461.762	14.0923
11.14972	455.8	14.1118
11.1507	450.322	14.1313
11.1529	465.077	14.1509
11.1544	461.335	14.17041
11.1559	452.985	14.1899
11.1569	464.27	14.2095
11.1594	466.145	14.229
11.161	453.762	14.2485
11.1625	466.819	14.2681
11.1644	472.124	14.2876
11.1655	459.934	14.3071
11.1671	458.9386	14.32666
11.1684	476.468	14.3462
11.1706	462.686	14.3657
11.1722	464.546	14.3853
11.173	476.841	14.4048
11.1744	468.854	14.4243
11.177	461.748	14.4438
11.1794	479.976	14.4634
11.181	473.325	14.48291
11.182	464.969	14.5024
11.183	479.209	14.522
11.1854	479.957	14.5415
11.1865	465.997	14.561
11.1877	477.814	14.5806
11.1901	483.757	14.6001
11.1923	471.31	14.6196
11.1933	477.453	14.63916
11.1949	484.8418	14.6587
11.1958	473.037	14.6782
11.1984	475.903	14.6978
11.2001	492.217	14.7173
11.2016	483.266	14.7368
11.2033	478.6069	14.7563
11.2042	489.18	14.7759
11.20625	488.456	14.79541
11.2081	479.097	14.8149
11.2099	492.02	14.8345
11.21204	492.181	14.854
11.2129	482.247	14.8735
11.2142	489.524	14.8931
11.2161	497.751	14.9126
11.2174	483.029	14.9321
11.2199	490.532	14.95166
11.2204	501.974	14.9712
11.2223	491.369	14.9907
11.2246	487.434	15.0103
11.2258	504.201	15.0298
11.22799	494.325	15.0493
11.22924	491.174	15.0688
11.2301	504.4874	15.0884
11.2321	499.684	15.10791
11.2331	489.887	15.1274
11.2354	506.783	15.147
11.2377	506.313	15.1665
11.239	495.31	15.186
11.2413	504.2348	15.2056
11.2419	510.542	15.2251
11.2434	497.515	15.2446
11.2449	503.087	15.26416
11.2474	511.828	15.2837
11.2482	500.833	15.3032
11.25	503.649	15.3228
11.2513	514.4129	15.3423
11.2533	504.905	15.3618
11.2554	501.711	15.3813
11.2567	518.187	15.4009
11.2581	512.117	15.42041
11.2592	507.374	15.4399
11.2624	514.579	15.4595
11.263	519.649	15.479
11.2654	506.658	15.4985
11.2663	517.52	15.5181
11.26764	522.875	15.5376
11.2699	512.253	15.5571
11.2714	514.036	15.57666
11.2738	529.204	15.5962
11.2737	513.942	15.6157
11.2768	515.367	15.6353
11.27774	529.3855	15.6548
11.2791	523.4035	15.6743
11.28191	512.987	15.6938
11.2825	529.907	15.7134
11.2845	526.226	15.73291
11.2854	518.631	15.7524
11.2876	532.769	15.772
11.2896	530.968	15.7915
11.2914	516.786	15.811
11.2929	530.934	15.8306
11.2942	536.993	15.8501
11.296	524.11	15.8696
11.2968	529.602	15.88916
11.2986	538.227	15.9087
11.3004	525.522	15.9282
11.3028	530.468	15.9478
11.3036	542.6958	15.9673
11.3063	534.095	15.9868
11.308	532.799	16.0063
11.3089	542.072	16.0259
11.3104	537.789	16.04541
11.3123	528.3924	16.0649
11.3138	543.314	16.0845
11.3156	545.487	16.104
11.31695	536.477	16.1235
11.318	538.456	16.1431
11.3202	547.468	16.1626
11.3222	535.732	16.1821
11.3223	543.924	16.20166
11.3261	551.888	16.2212
11.3271	540.237	16.2407
11.32866	539.24	16.2603
11.3295	557.179	16.2798
11.33135	546.728	16.2993
11.33319	542.777	16.3188
11.3348	556.192	16.3384
11.3371	554.065	16.35791
11.3386	542.437	16.3774
11.3407	556.153	16.397
11.3422	556.0332	16.4165
11.3437	547.012	16.436
11.3444	556.981	16.4556
11.347	560.371	16.4751
11.3481	546.079	16.4946
11.3483	556.029	16.51416
11.3516	565.0166	16.5337
11.3518	552.686	16.5532
11.35421	554.999	16.5728
11.3564	565.6889	16.5923
11.3582	555.281	16.6118
11.3608	555.093	16.6313
11.3612	567.863	16.6509
11.363	562.027	16.67041
11.3639	558.477	16.6899
11.3656	565.571	16.7095
11.3679	570.306	16.729
11.3695	558.244	16.7485
11.3714	568.166	16.7681
11.3715	572.713	16.7876
11.3751	563.497	16.8071
11.3746	563.043	16.82666
11.3771	579.233	16.8462
11.3788	566.77	16.8657
11.38	568.353	16.8853
11.3819	580.025	16.9048
11.3836	571.616	16.9243
11.3854	564.075	16.9438
11.3876	583.019	16.9634
11.38721	577.408	16.98291
11.3903	568.457	17.0024
11.3923	581.788	17.022
11.394	582.662	17.0415
11.3954	569.757	17.061
11.3973	581.312	17.0806
11.3987	583.959	17.1001
11.4001	573.54	17.1196
11.4017	579.795	17.13916
11.4028	589.614	17.1587
11.4055	575.565	17.1782
11.4047	579.622	17.1978
11.4076	592.57	17.2173
11.4093	582.088	17.2368
11.4113	580.193	17.2563
11.4126	590.858	17.2759
11.41455	586.196	17.29541
11.4166	581.355	17.3149
11.4185	594.2804	17.3345
11.4181	592.938	17.354
11.4217	583.787	17.3735
11.4233	591.51	17.3931
11.4234	599.609	17.4126
11.4264	585.53	17.4321
11.4268	591.524	17.45166
11.4305	600.972	17.4712
11.43048	591.958	17.4907
11.4326	588.438	17.5103
11.4334	605.3266	17.5298
11.4364	593.9	17.5493
11.4377	591.771	17.5688
11.4389	606.738	17.5884
11.44031	601.522	17.60791
11.4423	588.382	17.6274
11.4439	606.3006	17.647
11.4452	606.169	17.6665
11.4477	595.245	17.686
11.4486	606.049	17.7056
11.451	608.803	17.7251
11.4527	594.123	17.7446
11.45362	606.085	17.76416
11.4552	612.114	17.7837
11.45728	600.418	17.8032
11.4591	604.462	17.8228
11.4598	614.371	17.8423
11.4617	606.976	17.8618
11.4639	604.3078	17.8813
11.4652	616.535	17.9009
11.4674	611.528	17.92041
11.46827	605.225	17.9399
11.4694	615.622	17.9595
11.4715	616.091	17.979
11.4729	605.14	17.9985
11.4741	618.185	18.0181
11.4758	621.285	18.0376
11.478	609.952	18.0571
11.4807	613.0838	18.07666
11.4815	626.808	18.0962
11.4836	613.907	18.1157
11.4853	615.67	18.1353
11.4857	628.065	18.1548
11.489	619.722	18.1743
11.4889	612.858	18.1938
11.49209	629.763	18.2134
11.49236	623.354	18.23291
11.4948	617.92	18.2524
11.4958	630.175	18.272
11.4976	632.267	18.2915
11.4997	615.345	18.311
11.5008	629.574	18.3306
11.5029	633.5564	18.3501
11.5038	622.948	18.3696
11.5054	628.121	18.38916
11.507	637.193	18.4087
11.5102	622.844	18.4282
11.5106	627.804	18.4478
11.5128	640.2854	18.4673
11.5129	629.851	18.4868
11.5153	627.275	18.5063
11.5175	640.16	18.5259
11.518	633.996	18.54541
11.5199	627.433	18.5649
11.5224	639.381	18.5845
11.5237	640.407	18.604
11.5253	631.259	18.6235
11.5272	638.9342	18.6431
11.5275	643.574	18.6626
11.5307	631.95	18.6821
11.5315	640.168	18.70166
11.5332	650.843	18.7212
11.5361	639.239	18.7407
11.5368	634.82	18.7603
11.5386	652.181	18.7798
11.5394	641.503	18.7993
11.5414	641.774	18.8188
11.5424	651.921	18.8384
11.5448	649.209	18.85791
11.5471	637.9751	18.8774
11.5477	654.2569	18.897
11.54923	650.176	18.9165
11.551	641.499	18.936
11.55266	650.911	18.9556
11.5552	657.706	18.9751
11.5552	641.824	18.9946
11.5571	650.847	19.01416
11.5593	658.653	19.0337
11.5603	650.441	19.0532
11.5628	651.855	19.0728
11.5639	661.388	19.0923
11.5655	651.241	19.1118
11.5682	650.583	19.1313
11.569	664.071	19.1509
11.5714	657.353	19.17041
11.5722	651.773	19.1899
11.5741	660.647	19.2095
11.5756	662.348	19.229
11.5784	653.5899	19.2485
11.5783	662.925	19.2681
11.5794	665.756	19.2876
11.5826	656.253	19.3071
11.5834	659.694	19.32666
11.5854	671.186	19.3462
11.5875	659.4104	19.3657
11.5887	661.186	19.3853
11.5909	673.588	19.4048
11.5919	665.699	19.4243
11.5943	659.156	19.4438
11.596	674.399	19.4634
11.5968	669.016	19.48291
11.5988	662.5177	19.5024
11.6007	673.927	19.522
11.6016	675.631	19.5415
11.6025	660.556	19.561
11.6053	677.146	19.5806
11.607	677.365	19.6001
11.6081	667.0719	19.6196
11.6093	672.599	19.63916
11.6115	681.998	19.6587
11.6133	668.8	19.6782
11.615	673.031	19.6978
11.6171	681.746	19.7173
11.6189	677.018	19.7368
11.6195	673.13	19.7563
11.6205	685.273	19.7759
11.622	679.056	19.79541
11.6245	673.533	19.8149
11.6267	686.918	19.8345
11.6274	686.854	19.854
11.6296	675.412	19.8735
11.631	682.176	19.8931
11.6336	689.909	19.9126
11.6347	677.138	19.9321
11.6367	685.398	19.95166
11.6381	692.424	19.9712
11.63931	682.819	19.9907
11.6408	680.384	20.0103
11.6424	690.879	20.02002

Data Header:			0.254_hd_dimension_typei_4545_r0			Time:	40.0244	s	4/15/2019 3:18:29 PM
Data Acquisition:	Timed
Station Name:	ft40.cfg
Test File Name:	monotonic_0.2540_typei_hd_4545_dimension.tst
Displacement	Force	Running Time
mm	N	s
11.6422	697.173	20.0298
11.6436	685.67	20.0493
11.6455	683.794	20.0688
11.6473	697.926	20.0884
11.6483	693.929	20.10791
11.6504	681.221	20.1274
11.6513	697.71	20.147
11.6535	694.659	20.1665
11.655	686.31	20.186
11.65674	697.743	20.2056
11.6582	701.281	20.2251
11.661	684.298	20.2446
11.6629	697.104	20.26416
11.6628	703.217	20.2837
11.6661	692.9201	20.3032
11.6669	692.212	20.3228
11.6684	705.307	20.3423
11.6697	695.711	20.3618
11.6713	695.486	20.3813
11.6733	705.384	20.4009
11.6744	699.493	20.42041
11.6761	695.581	20.4399
11.6776	705.544	20.4595
11.6796	705.536	20.479
11.6814	695.731	20.4985
11.6832	706.797	20.5181
11.6845	710.9472	20.5376
11.6861	700.279	20.5571
11.6881	702.794	20.57666
11.6901	714.69	20.5962
11.6922	702.906	20.6157
11.6929	705.456	20.6353
11.6938	716.246	20.6548
11.6967	709.472	20.6743
11.6973	700.449	20.6938
11.6996	718.878	20.7134
11.7012	714.415	20.73291
11.703	706.047	20.7524
11.7053	717.64	20.772
11.7054	718.759	20.7915
11.7061	705.357	20.811
11.7099	717.316	20.8306
11.7106	719.803	20.8501
11.7124	710.391	20.8696
11.7127	716.908	20.88916
11.7165	725.657	20.9087
11.7166	711.296	20.9282
11.71916	716.131	20.9478
11.7206	728.255	20.9673
11.7229	719.291	20.9868
11.7237	713.669	21.0063
11.7254	727.383	21.0259
11.728	722.057	21.04541
11.7293	716.7179	21.0649
11.7298	726.903	21.0845
11.7318	726.248	21.104
11.7336	718.0401	21.1235
11.7354	725.76	21.1431
11.7369	730.21	21.1626
11.7387	719.377	21.1821
11.7398	726.096	21.20166
11.7418	734.398	21.2212
11.7434	726.276	21.2407
11.7447	723.0882	21.2603
11.7469	737.446	21.2798
11.7487	727.662	21.2993
11.7492	726.673	21.3188
11.7506	739.159	21.3384
11.7534	734.896	21.35791
11.7541	720.988	21.3774
11.7564	741.4411	21.397
11.7582	737.853	21.4165
11.7593	729.195	21.436
11.7608	736.825	21.4556
11.76284	743.34	21.4751
11.764	727.335	21.4946
11.7658	737.71	21.51416
11.76657	743.5	21.5337
11.7696	734.271	21.5532
11.77	736.958	21.5728
11.773	750.058	21.5923
11.7755	735.817	21.6118
11.7756	733.927	21.6313
11.7772	746.84	21.6509
11.7787	743.673	21.67041
11.7798	735.7887	21.6899
11.7816	747.089	21.7095
11.785	744.34	21.729
11.7859	737.798	21.7485
11.78616	747.857	21.7681
11.78828	751.622	21.7876
11.7897	740.774	21.8071
11.79233	745.832	21.82666
11.7946	754.471	21.8462
11.7954	743.596	21.8657
11.7968	744.372	21.8853
11.79812	757.227	21.9048
11.8003	750.588	21.9243
11.802	741.584	21.9438
11.8034	758.745	21.9634
11.8057	752.253	21.98291
11.8072	746.271	22.0024
11.8089	760.006	22.022
11.8094	759.683	22.0415
11.8117	742.934	22.061
11.8132	758.177	22.0806
11.8151	760.17	22.1001
11.8163	750.462	22.1196
11.8178	755.682	22.13916
11.8195	764.874	22.1587
11.8215	751.544	22.1782
11.8227	756.118	22.1978
11.8254	765.323	22.2173
11.8264	758.559	22.2368
11.8286	754.919	22.2563
11.829	769.108	22.2759
11.8319	759.628	22.29541
11.832	756.063	22.3149
11.8353	767.532	22.3345
11.83559	768.289	22.354
11.8379	758	22.3735
11.84	764.677	22.3931
11.8397	769.163	22.4126
11.8423	758.415	22.4321
11.844	766.6499	22.45166
11.8457	774.19	22.4712
11.8477	763.819	22.4907
11.8489	760.685	22.5103
11.8503	777.129	22.5298
11.8523	768.507	22.5493
11.8546	762.815	22.5688
11.8559	776.37	22.5884
11.8569	773.812	22.60791
11.8593	761.32	22.6274
11.8605	777.144	22.647
11.86223	776.534	22.6665
11.8647	766.362	22.686
11.8661	776.0069	22.7056
11.8665	782.381	22.7251
11.86754	764.824	22.7446
11.8699	774.506	22.76416
11.8723	783.128	22.7837
11.87473	774.512	22.8032
11.8755	771.631	22.8228
11.8763	785.73	22.8423
11.8797	773.921	22.8618
11.8811	775.373	22.8813
11.8815	785.73	22.9009
11.8828	781.208	22.92041
11.8855	773.665	22.9399
11.8862	785.42	22.9595
11.8882	783.937	22.979
11.8902	776.785	22.9985
11.8918	784.282	23.0181
11.8931	790.48	23.0376
11.8951	778.948	23.0571
11.8961	781.987	23.07666
11.89769	790.409	23.0962
11.9005	779.415	23.1157
11.9016	784.039	23.1353
11.9034	793.035	23.1548
11.9041	786.564	23.1743
11.9062	777.773	23.1938
11.9086	796.138	23.2134
11.91	789.698	23.23291
11.9122	783.217	23.2524
11.9117	794.646	23.272
11.9143	796.698	23.2915
11.9157	780.826	23.311
11.917	795.234	23.3306
11.9183	796.8045	23.3501
11.9215	786.125	23.3696
11.9215	793.324	23.38916
11.9244	803.975	23.4087
11.9256	786.561	23.4282
11.9273	792.834	23.4478
11.9283	801.926	23.4673
11.9321	795.445	23.4868
11.9317	791.016	23.5063
11.9337	802.449	23.5259
11.9364	795.349	23.54541
11.93753	792.143	23.5649
11.9386	801.97	23.5845
11.9406	803.272	23.604
11.9416	791.656	23.6235
11.9433	800.011	23.6431
11.9454	804.646	23.6626
11.9481	797.4	23.6821
11.9484	798.716	23.70166
11.9486	808.087	23.7212
11.9517	798.9931	23.7407
11.95253	798.5368	23.7603
11.9539	811.336	23.7798
11.9566	800.908	23.7993
11.95815	798.95	23.8188
11.9599	811.758	23.8384
11.96156	808.374	23.85791
11.9622	796.539	23.8774
11.9648	810.7019	23.897
11.9667	810.549	23.9165
11.96803	801.348	23.936
11.96959	809.013	23.9556
11.9713	817.341	23.9751
11.97296	801.199	23.9946
11.9752	812.275	24.01416
11.9757	817.048	24.0337
11.9785	805.927	24.0532
11.98002	807.271	24.0728
11.9805	820.549	24.0923
11.9827	806.616	24.1118
11.9837	807.465	24.1313
11.9858	818.756	24.1509
11.9873	815.17	24.17041
11.9891	808.704	24.1899
11.9908	819.085	24.2095
11.9923	816.2832	24.229
11.9942	809.712	24.2485
11.9954	817.028	24.2681
11.9974	822.716	24.2876
11.9988	810.716	24.3071
12.0004	815.199	24.32666
12.0015	822.534	24.3462
12.0028	815.097	24.3657
12.0046	814.598	24.3853
12.0069	824.024	24.4048
12.009	819.934	24.4243
12.0106	813.016	24.4438
12.0121	827.3808	24.4634
12.013	820.831	24.48291
12.0157	815.136	24.5024
12.0164	827.196	24.522
12.0186	827.718	24.5415
12.0189	814.018	24.561
12.0221	826.674	24.5806
12.0234	829.789	24.6001
12.0243	819.782	24.6196
12.0266	825.7981	24.63916
12.0286	833.88	24.6587
12.02949	818.446	24.6782
12.03242	824.96	24.6978
12.0339	833.766	24.7173
12.0357	827.342	24.7368
12.0357	821.728	24.7563
12.0374	834.8775	24.7759
12.03903	827.847	24.79541
12.0415	823.721	24.8149
12.0429	832.714	24.8345
12.045	833.439	24.854
12.0461	824.38	24.8735
12.0469	833.816	24.8931
12.0495	834.4989	24.9126
12.0508	825.92	24.9321
12.0529	831.528	24.95166
12.0542	840.0321	24.9712
12.0558	830.8924	24.9907
12.0565	827.7	25.0103
12.0582	840.363	25.0298
12.0617	834.058	25.0493
12.0618	829.36	25.0688
12.0646	841.536	25.0884
12.06523	837.672	25.10791
12.06679	826.708	25.1274
12.0684	842.277	25.147
12.0706	840.8089	25.1665
12.071	830.68	25.186
12.0739	840.01	25.2056
12.0752	844.828	25.2251
12.0773	828.999	25.2446
12.0783	838.665	25.26416
12.0804	846.764	25.2837
12.0835	837.483	25.3032
12.0832	838.4776	25.3228
12.0847	849.831	25.3423
12.086	835.196	25.3618
12.0878	837.575	25.3813
12.0897	848.706	25.4009
12.0921	845.1427	25.42041
12.0936	835.261	25.4399
12.0953	847.324	25.4595
12.0958	846.588	25.479
12.098	838.734	25.4985
12.1003	845.3	25.5181
12.10235	849.785	25.5376
12.1033	840.974	25.5571
12.1042	845.365	25.57666
12.1054	850.556	25.5962
12.1075	842.812	25.6157
12.1094	842.879	25.6353
12.1094	854.308	25.6548
12.1122	848.789	25.6743
12.1141	841.74	25.6938
12.1169	853.646	25.7134
12.1177	850.879	25.73291
12.1179	843.679	25.7524
12.1211	855.356	25.772
12.1224	855.078	25.7915
12.124	840.691	25.811
12.1259	855.13	25.8306
12.1277	857.624	25.8501
12.1292	846.889	25.8696
12.1301	851.332	25.88916
12.1318	861.216	25.9087
12.1343	847.886	25.9282
12.1355	853.485	25.9478
12.1373	859.473	25.9673
12.139	854.012	25.9868
12.1398	850.449	26.0063
12.1417	862.831	26.0259
12.1436	853.572	26.04541
12.1448	850.181	26.0649
12.1475	859.306	26.0845
12.149	861.505	26.104
12.1505	851.7533	26.1235
12.152	859.244	26.1431
12.1528	861.611	26.1626
12.15583	853.241	26.1821
12.1564	857.845	26.20166
12.1576	866.521	26.2212
12.1594	855.711	26.2407
12.1616	855.427	26.2603
12.1632	865.147	26.2798
12.16568	859.005	26.2993
12.16623	853.58	26.3188
12.1681	866.505	26.3384
12.1694	866.284	26.35791
12.1716	854.19	26.3774
12.1733	866.614	26.397
12.17499	866.199	26.4165
12.176	857.321	26.436
12.1774	866.4256	26.4556
12.18	871.215	26.4751
12.1805	854.388	26.4946
12.1829	866.0755	26.51416
12.1843	872.934	26.5337
12.1867	863.255	26.5532
12.1878	860.6	26.5728
12.1892	874.505	26.5923
12.1909	862.5376	26.6118
12.19296	862.4256	26.6313
12.1943	870.993	26.6509
12.1946	869.099	26.67041
12.1973	861.97	26.6899
12.2	874.24	26.7095
12.1993	869.005	26.729
12.2026	862.267	26.7485
12.2048	870.264	26.7681
12.2056	875.755	26.7876
12.2067	864.692	26.8071
12.2088	868.209	26.82666
12.211	874.401	26.8462
12.2126	867.033	26.8657
12.2134	866.426	26.8853
12.2151	877.734	26.9048
12.217	870.867	26.9243
12.2186	864.411	26.9438
12.2193	877.095	26.9634
12.2221	873.656	26.98291
12.2231	866.191	27.0024
12.2249	875.951	27.022
12.2263	880.251	27.0415
12.2287	865.504	27.061
12.2299	877.134	27.0806
12.2306	879.636	27.1001
12.2323	868.63	27.1196
12.235	874.258	27.13916
12.2367	883.707	27.1587
12.2397	868.132	27.1782
12.2405	873.85	27.1978
12.2408	882.7052	27.2173
12.2435	875.513	27.2368
12.2441	869.7934	27.2563
12.2461	884.164	27.2759
12.2471	875.0354	27.29541
12.2502	873.774	27.3149
12.2514	880.651	27.3345
12.2529	881.77	27.354
12.253	871.389	27.3735
12.2548	881.983	27.3931
12.2572	883.273	27.4126
12.25832	873.8595	27.4321
12.2615	878.3335	27.45166
12.2615	886.293	27.4712
12.2643	876.455	27.4907
12.2655	876.707	27.5103
12.267	885.137	27.5298
12.2692	879.634	27.5493
12.2704	874.94	27.5688
12.2727	887.544	27.5884
12.2735	882.834	27.60791
12.275	872.952	27.6274
12.277	885.797	27.647
12.2778	885.313	27.6665
12.28073	876.447	27.686
12.2816	884.345	27.7056
12.2846	889.524	27.7251
12.2847	874.075	27.7446
12.2871	882.887	27.76416
12.289	888.834	27.7837
12.28963	881.055	27.8032
12.2912	883.284	27.8228
12.2945	893.823	27.8423
12.295	879.224	27.8618
12.2966	880.182	27.8813
12.2987	890.732	27.9009
12.2996	888.693	27.92041
12.302	879.655	27.9399
12.3029	891.019	27.9595
12.3039	885.882	27.979
12.3063	880.518	27.9985
12.30757	888.448	28.0181
12.309	893.211	28.0376
12.3111	880.651	28.0571
12.31249	886.759	28.07666
12.3149	892.8512	28.0962
12.3159	885.941	28.1157
12.3182	883.26	28.1353
12.3194	895.4704	28.1548
12.3207	888.752	28.1743
12.32253	882.169	28.1938
12.32495	892.822	28.2134
12.3265	889.981	28.23291
12.3292	883.856	28.2524
12.3282	894.179	28.272
12.3304	896.236	28.2915
12.3336	882.146	28.311
12.33404	890.88	28.3306
12.336	896.562	28.3501
12.3368	885.539	28.3696
12.3386	890.6778	28.38916
12.3399	898.753	28.4087
12.3435	884.28	28.4282
12.344	889.35	28.4478
12.3444	898.067	28.4673
12.3479	889.706	28.4868
12.3487	886.722	28.5063
12.3507	898.8385	28.5259
12.3516	891.913	28.54541
12.3546	887.229	28.5649
12.3557	896.316	28.5845
12.35714	898.4234	28.604
12.3583	888.631	28.6235
12.3592	893.737	28.6431
12.3618	896.777	28.6626
12.3637	888.712	28.6821
12.3659	894.431	28.70166
12.3665	903.416	28.7212
12.3689	890.974	28.7407
12.3697	889.614	28.7603
12.3723	900.12	28.7798
12.3735	895.123	28.7993
12.375	890.132	28.8188
12.3769	901.071	28.8384
12.3781	897.523	28.85791
12.3796	887.545	28.8774
12.38222	899.626	28.897
12.3824	901.275	28.9165
12.38408	889.753	28.936
12.387	899.522	28.9556
12.3867	905.758	28.9751
12.3891	887.786	28.9946
12.3907	896.85	29.01416
12.3927	903.271	29.0337
12.3935	894.7	29.0532
12.3963	895.132	29.0728
12.3982	906.865	29.0923
12.3997	893.537	29.1118
12.4021	895.583	29.1313
12.4024	904.242	29.1509
12.4035	900.967	29.17041
12.406	890.72	29.1899
12.4066	904.498	29.2095
12.4089	900.146	29.229
12.4105	892.825	29.2485
12.4115	899.025	29.2681
12.4128	905.562	29.2876
12.4153	895.037	29.3071
12.4162	899.546	29.32666
12.4196	903.403	29.3462
12.4201	897.741	29.3657
12.4223	896.241	29.3853
12.4234	907.674	29.4048
12.4253	899.3335	29.4243
12.427	893.709	29.4438
12.42936	904.543	29.4634
12.4294	903.883	29.48291
12.43193	894.634	29.5024
12.4334	904.0777	29.522
12.4349	905.799	29.5415
12.43658	892.9649	29.561
12.4383	903.766	29.5806
12.4402	906.495	29.6001
12.4422	896.3396	29.6196
12.444	899.535	29.63916
12.44453	911.196	29.6587
12.4458	896.391	29.6782
12.44843	899.67	29.6978
12.4498	907.444	29.7173
12.4521	902.3222	29.7368
12.4532	897.872	29.7563
12.4544	909.623	29.7759
12.4571	901.123	29.79541
12.45871	898.861	29.8149
12.4598	907.913	29.8345
12.4604	907.1507	29.854
12.462	896.966	29.8735
12.4642	905.6839	29.8931
12.4663	906.501	29.9126
12.4676	899.349	29.9321
12.4686	904.255	29.95166
12.4705	910.612	29.9712
12.4721	901.836	29.9907
12.4736	904.668	30.0103
12.4751	909.3866	30.0298
12.4774	904.29	30.0493
12.4796	899.988	30.0688
12.4804	913.1424	30.0884
12.482	907.821	30.10791
12.4829	897.398	30.1274
12.4859	908.834	30.147
12.48747	910.294	30.1665
12.4884	899.682	30.186
12.4897	907.631	30.2056
12.4913	912.7663	30.2251
12.4937	897.766	30.2446
12.4946	906.487	30.26416
12.4974	914.015	30.2837
12.499	902.844	30.3032
12.5004	904.02	30.3228
12.501	916.695	30.3423
12.5037	904.838	30.3618
12.5058	903.009	30.3813
12.5071	911.402	30.4009
12.5094	908.882	30.42041
12.51	901.838	30.4399
12.5111	913.354	30.4595
12.514	909.145	30.479
12.5147	903.522	30.4985
12.5169	909.3042	30.5181
12.519	914.319	30.5376
12.5187	903.434	30.5571
12.5208	908.571	30.57666
12.5224	912.507	30.5962
12.524	907.6	30.6157
12.5263	906.964	30.6353
12.5268	915.575	30.6548
12.5293	908.252	30.6743
12.5308	904.07	30.6938
12.5328	914.877	30.7134
12.53461	911.52	30.73291
12.5366	902.533	30.7524
12.5378	914.278	30.772
12.5393	917.6347	30.7915
12.5408	902.876	30.811
12.5419	911.937	30.8306
12.5446	915.27	30.8501
12.546	907.052	30.8696
12.5479	910.632	30.88916
12.5486	919.774	30.9087
12.5506	904.174	30.9282
12.5522	911.68	30.9478
12.5541	918.378	30.9673
12.5553	912.443	30.9868
12.5582	905.716	31.0063
12.5592	918.88	31.0259
12.561	911.337	31.04541
12.5621	908.467	31.0649
12.5637	914.29	31.0845
12.5653	914.6582	31.104
12.5663	907.314	31.1235
12.5682	916.049	31.1431
12.56946	913.6059	31.1626
12.5719	907.087	31.1821
12.5729	911.364	31.20166
12.5741	920.2	31.2212
12.5763	909.851	31.2407
12.5786	911.193	31.2603
12.5805	916.707	31.2798
12.58179	912.287	31.2993
12.5823	908.614	31.3188
12.5843	920.041	31.3384
12.58646	913.999	31.35791
12.5874	907.496	31.3774
12.5901	916.892	31.397
12.5915	918.633	31.4165
12.5923	907.129	31.436
12.5943	916.022	31.4556
12.596	922.31	31.4751
12.5971	907.047	31.4946
12.5994	914.228	31.51416
12.6011	921.288	31.5337
12.60214	912.029	31.5532
12.6048	911.075	31.5728
12.6063	922.776	31.5923
12.6086	909.8584	31.6118
12.60932	911.028	31.6313
12.6108	921.626	31.6509
12.6129	919.464	31.67041
12.6144	908.831	31.6899
12.6155	921.344	31.7095
12.6174	916.141	31.729
12.6185	910.268	31.7485
12.6205	916.187	31.7681
12.623	921.612	31.7876
12.6242	911.168	31.8071
12.625	916.526	31.82666
12.6267	921.893	31.8462
12.6289	913.95	31.8657
12.6302	911.91	31.8853
12.6325	925.263	31.9048
12.634	916.15	31.9243
12.6353	910.847	31.9438
12.6376	920.612	31.9634
12.639	919.255	31.98291
12.6402	911.2608	32.0024
12.642	920.329	32.022
[...]
15.3013	933.5863	63.92627
15.3018	928.641	63.936
15.3023	931.964	63.9458
15.30339	936.64	63.9556
15.30382	940.619	63.9653
15.3043	940.873	63.9751
15.3053	935.238	63.9849
15.3064	930.362	63.9946
15.3065	928.273	64.0044
15.3075	931.279	64.01416
15.30913	940.823	64.0239
15.3101	942.707	64.0337
15.30986	939.989	64.0435
15.3103	930.419	64.0532
15.3116	928.5423	64.063
15.313	932.481	64.0728
15.3142	935.343	64.08252
15.31414	943.212	64.0923
15.3151	941.064	64.1021
15.3153	934.148	64.1118
15.31708	929.077	64.1216
15.31677	925.811	64.1313
15.3187	935.595	64.1411
15.3191	942.728	64.1509
15.3194	943.241	64.1606
15.3205	935.05	64.17041
15.3221	927.54	64.1802
15.3217	929.782	64.1899
15.3235	931.427	64.1997
15.3243	940.184	64.2095
15.3243	942.435	64.2192
15.3257	938.825	64.229
15.3269	931.379	64.23877
15.3278	924.585	64.2485
15.3281	930.388	64.2583
15.33	940.229	64.2681
15.3294	943.368	64.2778
15.3307	941.928	64.2876
15.3311	931.424	64.2974
15.3326	929.206	64.3071
15.3334	930.284	64.3169
15.333	935.457	64.32666
15.3353	940.8092	64.3364
15.3346	942.012	64.3462
15.3358	936.095	64.356
15.3362	929.529	64.3657
15.337	927.4303	64.3755
15.33865	933.182	64.3853
15.3388	939.434	64.39502
15.3403	939.9483	64.4048
15.3406	937.69	64.4146
15.3414	932.915	64.4243
15.3425	929.559	64.4341
15.34279	930.215	64.4438
15.3441	935.348	64.4536
15.3444	940.931	64.4634
15.3465	941.057	64.4731
15.3454	932.5592	64.48291
15.3473	931.28	64.4927
15.3475	927.313	64.5024
15.3492	933.842	64.5122
15.3494	937.984	64.522
15.3521	939.5575	64.5317
15.3518	939.674	64.5415
15.35331	934.6413	64.55127
15.3527	929.199	64.561
15.35485	929.163	64.5708
15.3547	933.748	64.5806
15.3557	943.069	64.5903
15.3572	940.086	64.6001
15.3571	935.072	64.6099
15.35819	928.447	64.6196
15.3597	928.409	64.6294
15.3601	936.34	64.63916
15.3606	938.871	64.6489
15.3613	940.901	64.6587
15.3626	938.23	64.6685
15.3629	930.8656	64.6782
15.3633	926.656	64.688
15.3649	930.349	64.6978
15.3648	938.832	64.70752
15.3668	945.227	64.7173
15.3677	939.988	64.7271
15.36888	934.114	64.7368
15.3694	928.499	64.7466
15.3707	929.233	64.7563
15.3705	935.096	64.7661
15.3717	942.09	64.7759
15.3723	941.6297	64.7856
15.3719	938.175	64.79541
15.3743	930.197	64.8052
15.3749	926.658	64.8149
15.3755	932.884	64.8247
15.37609	940.805	64.8345
15.377	944.048	64.8442
15.3776	936.801	64.854
15.3796	929.1236	64.86377
15.38064	929.362	64.8735
15.3794	928.596	64.8833
15.3806	937.376	64.8931
15.3817	942.322	64.9028
15.3823	941.775	64.9126
15.38342	936.362	64.9224
15.3842	925.733	64.9321
15.3852	928.139	64.9419
15.3859	936.544	64.95166
15.3866	941.955	64.9614
15.3882	942.698	64.9712
15.3895	934.708	64.981
15.3888	931.517	64.9907
15.3891	928.997	65.0005
15.3908	929.781	65.0103
15.3925	938.5957	65.02002
15.393	942.499	65.0298
15.3932	939.786	65.0396
15.3939	929.7	65.0493
15.3941	928.149	65.0591
15.39564	930.912	65.0688
15.3962	936.641	65.0786
15.3974	941.136	65.0884
15.3976	939.3645	65.0981
15.3985	934.612	65.10791
15.3991	930.754	65.1177
15.401	929.134	65.1274
15.4005	930.739	65.1372
15.4016	939.686	65.147
15.4035	941.254	65.1567
15.403	935.663	65.1665
15.4047	932.073	65.17627
15.4055	926.776	65.186
15.4061	932.929	65.1958
15.4065	936.83	65.2056
15.4074	938.847	65.2153
15.4081	941.086	65.2251
15.4098	934.138	65.2349
15.4098	930.037	65.2446
15.4104	926.844	65.2544
15.41246	931.282	65.26416
15.4126	941.676	65.2739
15.4136	940.441	65.2837
15.41483	936.338	65.2935
15.4152	929.814	65.3032
15.4153	926.431	65.313
15.4158	933.028	65.3228
15.4174	934.909	65.33252
15.4173	942.577	65.3423
15.4198	943.894	65.3521
15.4199	933.571	65.3618
15.4205	927.107	65.3716
15.4214	924.322	65.3813
15.4227	935.507	65.3911
15.423	943.768	65.4009
15.4236	942.151	65.4106
15.424	934.168	65.42041
15.4246	928.9577	65.4302
15.4267	928.333	65.4399
15.42755	931.153	65.4497
15.42835	939.784	65.4595
15.4297	942.277	65.4692
15.4294	940.81	65.479
15.43039	931.337	65.48877
15.432	924.985	65.4985
15.4322	929.522	65.5083
15.4328	939.075	65.5181
15.4339	943.693	65.5278
15.4343	941.885	65.5376
15.4351	934.633	65.5474
15.4358	931.105	65.5571
15.4366	927.297	65.5669
15.4381	935.318	65.57666
15.439	938.3	65.5864
15.4397	942.688	65.5962
15.4405	938.716	65.606
15.4416	926.783	65.6157
15.441	929.382	65.6255
15.4431	931.91	65.6353
15.4439	940.179	65.64502
15.4444	942.513	65.6548
15.445	936.668	65.6646
15.4461	933.4	65.6743
15.4461	928.353	65.6841
15.44826	929.546	65.6938
15.4484	935.742	65.7036
15.4488	939.452	65.7134
15.4492	943.514	65.7231
15.4518	935.024	65.73291
15.452	929.16	65.7427
15.4525	928.85	65.7524
15.454	933.604	65.7622
15.4539	940.021	65.772
15.4544	939.831	65.7817
15.4555	939.077	65.7915
15.4569	933.776	65.80127
15.4576	928.847	65.811
15.458	929.116	65.8208
15.4592	935.42	65.8306
15.4604	940.638	65.8403
15.4603	937.966	65.8501
15.4616	936.017	65.8599
15.463	926.853	65.8696
15.4635	929.7041	65.8794
15.4645	933.745	65.88916
15.4654	936.284	65.8989
15.4647	941.642	65.9087
15.4657	937.261	65.9185
15.4673	932.736	65.9282
15.4679	926.1673	65.938
15.4687	927.512	65.9478
15.471	939.822	65.95752
15.4703	941.603	65.9673
15.4707	941.278	65.9771
15.4719	932.601	65.9868
15.4734	928.3905	65.9966
15.4741	930.613	66.0063
15.4747	932.697	66.0161
15.4749	940.951	66.0259
15.47622	941.748	66.0356
15.47693	937.137	66.04541
15.4781	929.52	66.0552
15.4773	923.654	66.0649
15.4795	932.654	66.0747
15.4798	940.167	66.0845
15.4819	941.75	66.0942
15.4822	937.838	66.104
15.4829	930.231	66.11377
15.4828	928.692	66.1235
15.4845	927.499	66.1333
15.4848	936.915	66.1431
15.4867	941.525	66.1528
15.4867	940.954	66.1626
15.48769	934.116	66.1724
15.4878	925.935	66.1821
15.4892	926.181	66.1919
15.4904	936.554	66.20166
15.491	941.322	66.2114
15.4906	940.431	66.2212
15.4931	936.019	66.231
15.4935	930.041	66.2407
15.4942	926.016	66.2505
15.4948	932.048	66.2603
15.4965	937.842	66.27002
15.4961	943.288	66.2798
15.496	940.268	66.2896
15.497	929.168	66.2993
15.4984	927.242	66.3091
15.49943	928.9234	66.3188
15.4999	935.624	66.3286
15.50183	940.02	66.3384
15.5018	937.367	66.3481
15.5028	937.853	66.35791
15.5036	928.087	66.3677
15.5045	927.574	66.3774
15.5052	930.853	66.3872
15.5066	938.708	66.397
15.50773	944.738	66.4067
15.5076	935.305	66.4165
15.509	931.5	66.42627
15.5093	927.114	66.436
15.5111	929.181	66.4458
15.511	937.518	66.4556
15.5112	938.758	66.4653
15.5134	939.518	66.4751
15.5142	935.943	66.4849
15.5151	928.131	66.4946
15.5149	927.67	66.5044
15.5169	931.825	66.51416
15.5171	939.002	66.5239
15.5186	940.067	66.5337
15.5198	936.243	66.5435
15.5193	929.341	66.5532
15.5202	928.021	66.563
15.521	930.689	66.5728
15.5219	935.918	66.58252
15.5228	940.2796	66.5923
15.524	940.977	66.6021
15.5245	933.226	66.6118
15.52495	924.651	66.6216
15.5256	926.002	66.6313
15.5274	934.461	66.6411
15.5278	941.885	66.6509
15.5278	941.748	66.6606
15.5302	933.115	66.67041
15.5304	929.65	66.6802
15.5305	927.4325	66.6899
15.5312	928.576	66.6997
15.5325	938.957	66.7095
15.53203	941.298	66.7192
15.5335	939.95	66.729
15.5357	932.132	66.73877
15.536	921.786	66.7485
15.5373	929.077	66.7583
15.53815	936.617	66.7681
15.537	942.121	66.7778
15.5391	940.7774	66.7876
15.5388	931.566	66.7974
15.5401	928.5517	66.8071
15.5421	925.471	66.8169
15.5417	933.221	66.82666
15.5434	940.727	66.8364
15.5435	941.288	66.8462
15.5444	936.854	66.856
15.5448	925.473	66.8657
15.5469	925.22	66.8755
15.5471	932.372	66.8853
15.5472	937.5769	66.89502
15.5481	938.987	66.9048
15.5494	937.8634	66.9146
15.5506	929.377	66.9243
15.5515	926.674	66.9341
15.5519	927.367	66.9438
15.5527	933.091	66.9536
15.5534	940.943	66.9634
15.5543	941.309	66.9731
15.55614	932.515	66.98291
15.5568	927.097	66.9927
15.5571	927.681	67.0024
15.5573	932.569	67.0122
15.5583	937.076	67.022
15.5589	937.821	67.0317
15.5595	937.06	67.0415
15.5604	930.076	67.05127
15.5608	927.664	67.061
15.5628	926.2121	67.0708
15.5623	935.489	67.0806
15.5643	942.589	67.0903
15.5649	936.197	67.1001
15.5658	933.255	67.1099
15.56629	927.482	67.1196
15.5673	926.963	67.1294
15.5675	932.194	67.13916
15.5676	935.265	67.1489
15.5698	941.061	67.1587
15.57031	938.022	67.1685
15.57179	929.821	67.1782
15.5724	926.311	67.188
15.5727	927.304	67.1978
15.5741	938.547	67.20752
15.5753	940.574	67.2173
15.5752	937.41	67.2271
15.5766	931.8653	67.2368
15.5767	925.525	67.2466
15.5782	927.136	67.2563
15.5787	931.034	67.2661
15.5791	939.311	67.2759
15.5809	940.499	67.2856
15.58031	936.563	67.29541
15.5812	927.352	67.3052
15.5834	924.262	67.3149
15.5837	931.243	67.3247
15.5835	937.59	67.3345
15.5851	942.4295	67.3442
15.5855	935.264	67.354
15.5866	929.728	67.36377
15.5877	925.845	67.3735
15.5899	926.481	67.3833
15.5891	937.064	67.3931
15.58908	940.71	67.4028
15.59086	941.146	67.4126
15.5912	932.258	67.4224
15.5924	922.635	67.4321
15.5932	925.934	67.4419
15.5946	932.491	67.45166
15.5944	940.168	67.4614
15.5966	939.68	67.4712
15.597	932.692	67.481
15.5977	930.307	67.4907
15.5982	922.163	67.5005
15.5991	930.737	67.5103
15.5996	936.238	67.52002
15.6013	940.587	67.5298
15.6019	938.5014	67.5396
15.60215	927.547	67.5493
15.6038	925.231	67.5591
15.6042	928.741	67.5688
15.60429	933.724	67.5786
15.6062	939	67.5884
15.60758	936.991	67.5981
15.6065	933.809	67.60791
15.6077	928.083	67.6177
15.6096	925.31	67.6274
15.609	930.353	67.6372
15.6104	938.295	67.647
15.6105	941.768	67.6567
15.612	933.9671	67.6665
15.612	929.203	67.67627
15.6133	927.915	67.686
15.6145	930.187	67.6958
15.6153	933.596	67.7056
15.6156	938.125	67.7153
15.6176	940.06	67.7251
15.61719	933.8468	67.7349
15.6178	928.594	67.7446
15.6188	925.488	67.7544
15.61973	932.003	67.76416
15.6205	940.021	67.7739
15.622	938.532	67.7837
15.6229	937.398	67.7935
15.6241	928.286	67.8032
15.624	927.86	67.813
15.6251	929.121	67.8228
15.62633	934.133	67.83252
15.6267	940.796	67.8423
15.62727	939.425	67.8521
15.6288	931.906	67.8618
15.6288	925.39	67.8716
15.6299	925.157	67.8813
15.6308	935.452	67.8911
15.6316	938.2019	67.9009
15.6317	940.69	67.9106
15.6325	934.1557	67.92041
15.6345	927.277	67.9302
15.6341	927.79	67.9399
15.6362	927.31	67.9497
15.6366	936.043	67.9595
15.6382	942.015	67.9692
15.6379	937.38	67.979
15.639	928.89	67.98877
15.6403	923.04	67.9985
15.6397	926.495	68.0083
15.6412	934.554	68.0181
15.6422	940.449	68.0278
15.6431	938.055	68.0376
15.6431	932.18	68.0474
15.6444	927.414	68.0571
15.645	924.062	68.0669
15.646	930.523	68.07666
15.6464	940.673	68.0864
15.6481	942.159	68.0962
15.6491	934.984	68.106
15.6492	924.925	68.1157
15.6496	925.1322	68.1255
15.6496	929.138	68.1353
15.6516	938.875	68.14502
15.6529	938.894	68.1548
15.6542	937.964	68.1646
15.6547	930.661	68.1743
15.6554	923.396	68.1841
15.656	928.351	68.1938
15.6564	933.534	68.2036
15.6579	939.668	68.2134
15.6577	940.69	68.2231
15.6598	930.47	68.23291
15.6598	925.825	68.2427
15.6607	926.469	68.2524
15.6613	932.299	68.2622
15.6616	936.1438	68.272
15.6624	936.6275	68.2817
15.66434	937.549	68.2915
15.6658	928.896	68.30127
15.66504	925.936	68.311
15.66684	926.7782	68.3208
15.6675	934.969	68.3306
15.6679	939.864	68.3403
15.6678	935.263	68.3501
15.6693	931.666	68.3599
15.67098	927.587	68.3696
15.6712	927.306	68.3794
15.672	930.545	68.38916
15.6719	936.202	68.3989
15.6734	940.817	68.4087
15.6756	936.183	68.4185
15.6757	927.769	68.4282
15.6756	924.484	68.438
15.6777	927.665	68.4478
15.6765	937.604	68.45752
15.6783	938.642	68.4673
15.6796	936.358	68.4771
15.68067	930.978	68.4868
15.6813	926.358	68.4966
15.6829	926.459	68.5063
15.6822	930.339	68.5161
15.6839	938.011	68.5259
15.6842	939.588	68.5356
15.6851	935.972	68.54541
15.6871	926.2774	68.5552
15.6861	923.973	68.5649
15.68755	931.277	68.5747
15.6889	935.9137	68.5845
15.6887	941.926	68.5942
15.6894	936.95	68.604
15.69164	929.148	68.61377
15.6914	926.8089	68.6235
15.6921	923.838	68.6333
15.6928	933.453	68.6431
15.6947	941.681	68.6528
15.6943	938.375	68.6626
15.6961	931.107	68.6724
15.696	921.462	68.6821
15.6975	925.196	68.6919
15.6983	931.577	68.70166
15.7003	937.594	68.7114
15.6999	939.267	68.7212
15.7002	934.604	68.731
15.7012	928.597	68.7407
15.7024	921.9986	68.7505
15.7035	927.413	68.7603
15.7047	937.742	68.77002
15.7049	940.87	68.7798
15.70508	935.757	68.7896
15.7067	926.929	68.7993
15.7083	923.751	68.8091
15.7079	928.576	68.8188
15.7101	932.0152	68.8286
15.7101	937.282	68.8384
15.7105	937.684	68.8481
15.71	933.723	68.85791
15.7124	924.368	68.8677
15.7132	925.658	68.8774
15.713	927.07	68.8872
15.7148	937.351	68.897
15.7152	938.836	68.9067
15.7159	931.736	68.9165
15.7171	927.656	68.92627
15.7172	924.386	68.936
15.7195	926.395	68.9458
15.7203	933.516	68.9556
15.7208	935.416	68.9653
15.7214	938.181	68.9751
15.7221	931.717	68.9849
15.7221	925.4621	68.9946
15.7236	923.014	69.0044
15.7245	928.381	69.01416
15.7257	937.075	69.0239
15.7255	934.656	69.0337
15.7269	934.452	69.0435
15.7275	927.928	69.0532
15.7295	923.3728	69.063
15.73	928.099	69.0728
15.7301	932.64	69.08252
15.7307	936.7793	69.0923
15.7308	936.314	69.1021
15.7321	928.818	69.1118
15.7339	922.533	69.1216
15.7337	922.6178	69.1313
15.73513	931.425	69.1411
15.7355	935.6828	69.1509
15.7364	937.625	69.1606
15.7376	931.916	69.17041
15.738	925.51	69.1802
15.7383	921.57	69.1899
15.7384	923.758	69.1997
15.7411	932.684	69.2095
15.7411	938.398	69.2192
15.7417	933.476	69.229
15.74293	925.257	69.23877
15.7436	920.054	69.2485
15.7444	924.7373	69.2583
15.7459	929.167	69.2681
15.7467	936.894	69.2778
15.7467	935.834	69.2876
15.7473	930.508	69.2974
15.7488	924.151	69.3071
15.7492	917.863	69.3169
15.75	928.24	69.32666
15.751	935.147	69.3364
15.7529	937.27	69.3462
15.7525	930.356	69.356
15.7533	921.459	69.3657
15.7536	921.579	69.3755
15.75577	924.185	69.3853
15.7558	931.789	69.39502
15.7566	934.811	69.4048
15.75721	932.23	69.4146
15.7583	926.74	69.4243
15.75985	916.732	69.4341
15.75976	918.603	69.4438
15.766	-234.441	69.4536
15.7685	19.8379	69.4634
15.7671	-38.2044	69.4731
15.7666	-42.0678	69.48291
15.7689	-57.6032	69.4927
15.7683	-48.60709	69.5024
15.7695	-47.1972	69.5122
15.7694	-35.46405	69.522
15.77	-38.2737	69.5317
15.77047	-40.02002	69.5415
15.7698	-47.1062	69.55127
15.7716	-50.1921	69.561
15.7715	-47.5516	69.5708
15.77196	-41.9944	69.5806
15.7726	-34.9945	69.5903
15.7751	-38.0477	69.6001
15.7754	-45.1877	69.6099
15.77482	-49.828	69.6196
15.7766	-48.7059	69.6294
15.7773	-45.3393	69.63916
15.7774	-38.8465	69.6489
15.779	-34.5301	69.6587
15.7795	-40.7959	69.6685
15.7806	-48.0494	69.6782
15.78174	-51.6198	69.688
15.78179	-46.113	69.6978
15.7827	-38.9087	69.70752
15.7838	-38.3378	69.7173
15.78458	-36.0157	69.7271
15.7851	-44.7377	69.7368
15.78586	-50.9463	69.7466
15.7871	-50.20639	69.7563
15.7879	-45.6314	69.7661
15.7881	-35.9351	69.7759
15.7898	-34.3308	69.7856
15.7905	-41.9955	69.79541
15.7908	-50.39043	69.8052
15.7914	-53.358	69.8149
15.7925	-46.1583	69.8247
15.7932	-41.158	69.8345
15.7948	-34.8324	69.8442
15.7934	-38.3945	69.854
15.796	-45.2764	69.86377
15.79548	-50.6621	69.8735
15.7986	-51.64	69.8833
15.797	-42.1741	69.8931
15.79866	-32.40036	69.9028
15.7995	-34.8424	69.9126
15.8009	-44.5781	69.9224
15.8012	-53.2384	69.9321
15.8014	-50.9946	69.9419
15.8025	-45.5943	69.95166
15.8037	-37.142	69.9614
15.8044	-36.7289	69.9712
15.8047	-40.0627	69.981
15.8062	-48.7834	69.9907
15.8063	-52.8415	70.0005
15.8088	-47.5479	70.0103
15.8089	-36.8817	70.02002
15.8096	-33.7484	70.0298
15.8104	-37.1667	70.0396
15.8119	-47.1293	70.0493
15.8123	-50.1966	70.0591
15.8121	-48.0886	70.0688
15.8136	-41.7237	70.0786
15.8149	-36.2829	70.0884
15.8158	-36.5839	70.0981
15.816	-41.04845	70.10791
15.81715	-50.6879	70.1177
15.8172	-49.5993	70.1274
15.819	-45.326	70.1372
15.8199	-37.2994	70.147
15.82	-35.0224	70.1567
15.8202	-43.2388	70.1665
15.82211	-46.5188	70.17627
15.8221	-49.3324	70.186
15.82313	-46.9457	70.1958
15.8231	-40.9122	70.2056
15.825	-37.9587	70.2153
15.8259	-36.7747	70.2251
15.8265	-45.0884	70.2349
15.8265	-49.2027	70.2446
15.82804	-49.8134	70.2544
15.829	-43.24913	70.26416
15.8294	-37.301	70.2739
15.83	-38.6419	70.2837
15.8314	-40.9849	70.2935
15.8319	-46.5929	70.3032
15.8334	-47.4509	70.313
15.83412	-47.8247	70.3228
15.8351	-42.5366	70.33252
15.8359	-35.4857	70.3423
15.8352	-36.1284	70.3521
15.8367	-42.9578	70.3618
15.8379	-50.3892	70.3716
15.8385	-48.2906	70.3813
15.8391	-42.7884	70.3911
15.84	-39.6886	70.4009
15.8413	-35.1443	70.4106
15.8412	-40.7523	70.42041
15.8424	-47.2078	70.4302
15.8439	-50.4504	70.4399
15.8439	-48.3236	70.4497
15.84579	-38.7233	70.4595
15.8448	-34.555	70.4692
15.8474	-37.3247	70.479
15.8474	-47.0379	70.48877
15.84797	-52.6002	70.4985
15.8492	-47.7831	70.5083
15.8505	-44.4041	70.5181
15.8513	-35.9114	70.5278
15.8523	-36.2559	70.5376
15.8516	-42.848	70.5474
15.853	-47.5225	70.5571
15.8542	-53.39357	70.5669
15.8548	-45.6178	70.57666
15.8555	-35.55191	70.5864
15.8568	-35.231	70.5962
15.8568	-41.1754	70.606
15.8582	-48.8597	70.6157
15.85828	-50.0768	70.6255
15.8595	-47.0913	70.6353
15.8597	-40.7042	70.64502
15.861	-37.1124	70.6548
15.8628	-38.2506	70.6646
15.8632	-46.11908	70.6743
15.863	-51.9444	70.6841
15.8651	-48.9259	70.6938
15.8654	-41.9949	70.7036
15.8665	-36.0938	70.7134
15.8661	-38.0434	70.7231
15.86826	-42.9105	70.73291
15.8682	-48.8192	70.7427
15.8703	-49.6101	70.7524
15.86978	-43.9893	70.7622
15.8704	-39.0322	70.772
15.8718	-36.985	70.7817
15.8724	-38.7197	70.7915
15.87401	-47.6861	70.80127
15.8735	-50.1483	70.811
15.8745	-49.1518	70.8208
15.875	-41.1639	70.8306
15.8774	-35.7651	70.8403
15.8762	-41.0729	70.8501
15.8796	-43.5174	70.8599
15.8792	-48.3849	70.8696
15.8799	-49.3982	70.8794
15.8813	-45.9815	70.88916
15.8819	-39.4471	70.8989
15.8819	-34.6854	70.9087
15.8825	-40.4015	70.9185
15.8846	-46.10199	70.9282
15.8852	-50.1361	70.938
15.88574	-46.4016	70.9478
15.8874	-38.4488	70.95752
15.8874	-38.9932	70.9673
15.88773	-38.0657	70.9771
15.8889	-41.3198	70.9868
15.8894	-48.7449	70.9966
15.8911	-51.5162	71.0063
15.8922	-44.499	71.0161
15.8921	-38.11198	71.0259
15.8921	-35.7962	71.0356
15.894	-42.9055	71.04541
15.8949	-49.2296	71.0552
15.8953	-51.4966	71.0649
15.8969	-44.7423	71.0747
15.8977	-41.0502	71.0845
15.8977	-35.9351	71.0942
15.8996	-38.2985	71.104
15.8989	-44.387	71.11377
15.9015	-52.0131	71.1235
15.9002	-49.763	71.1333
15.902	-43.0777	71.1431
15.9021	-35.3712	71.1528
15.9047	-35.12291	71.1626
15.90408	-45.6155	71.1724
15.9059	-50.6136	71.1821
15.9072	-48.2443	71.1919
15.9071	-47.3551	71.20166
15.9078	-36.5684	71.2114
15.9089	-36.4238	71.2212
15.9096	-39.4942	71.231
15.9096	-49.0661	71.2407
15.91099	-53.9522	71.2505
15.9116	-47.73922	71.2603
15.9128	-37.7868	71.27002
15.9137	-36.4681	71.2798
15.9139	-38.9465	71.2896
15.9154	-47.6474	71.2993
15.9166	-50.0535	71.3091
15.9164	-48.3774	71.3188
15.9178	-43.6868	71.3286
15.9182	-37.2973	71.3384
15.9198	-38.2482	71.3481
15.9203	-42.596	71.35791
15.9208	-51.2705	71.3677
15.9214	-51.6086	71.3774
15.9219	-43.2673	71.3872
15.9236	-37.2754	71.397
15.9235	-38.0749	71.4067
15.9264	-41.7196	71.4165
15.9252	-46.9441	71.42627
15.9269	-49.6628	71.436
15.9279	-48.3584	71.4458
15.9283	-42.8998	71.4556
15.9289	-34.9864	71.4653
15.929	-36.938	71.4751
15.9309	-45.3352	71.4849
15.9314	-49.6366	71.4946
15.9323	-49.7034	71.5044
15.933	-43.4755	71.51416
15.9336	-39.4385	71.5239
15.9349	-40.3134	71.5337
15.9357	-41.3972	71.5435
15.9362	-47.7787	71.5532
15.937	-49.2888	71.563
15.9382	-47.6759	71.5728
15.9383	-43.06395	71.58252
15.9391	-34.7661	71.5923
15.9395	-40.4116	71.6021
15.9407	-43.2666	71.6118
15.94213	-50.6899	71.6216
15.9429	-48.5147	71.6313
15.9435	-42.6594	71.6411
15.94408	-41.56448	71.6509
15.9454	-37.237	71.6606
15.9461	-40.53	71.67041
15.94715	-47.823	71.6802
15.9475	-50.44207	71.6899
15.9488	-48.07653	71.6997
15.9494	-37.568	71.7095
15.9502	-37.0247	71.7192
15.9505	-39.9371	71.729
15.95172	-46.3233	71.73877
15.9527	-52.5767	71.7485
15.9516	-48.6512	71.7583
15.9554	-44.7379	71.7681
15.955	-37.3344	71.7778
15.9563	-35.5156	71.7876
15.95634	-42.2542	71.7974
15.9574	-51.6544	71.8071
15.9583	-53.2441	71.8169
15.9588	-45.8286	71.82666
15.9592	-37.8428	71.8364
15.9606	-36.555	71.8462
15.9625	-42.03384	71.856
15.96272	-49.8346	71.8657
15.9623	-50.2413	71.8755
15.9647	-50.1604	71.8853
15.964	-39.2253	71.89502
15.9655	-37.10537	71.9048
15.9657	-38.3623	71.9146
15.9675	-44.569	71.9243
15.9683	-54.5785	71.9341