File: data/processed_data_files/tensile/0.254_solid_uprint_typeiv_090_r(5).dat
MTS793|BTW|ENU|1|2|.|/|:|1|0|0|A

Data Header:			0.254_solid_uprint_typeiv_090_r0			Time:	20.0176	s	4/14/2019 1:09:21 AM
Data Acquisition:	Timed
Station Name:	ft40.cfg
Test File Name:	monotonic_0.2540_typeiv_solid_090_uprint.tst
Displacement	Force	Running Time
mm	N	s
-40.0406	-177.754	0.0227051
-40.041	-171.451	0.0422363
-40.0407	-174.888	0.0617676
-40.0408	-174.906	0.0812988
-40.0398	-173.898	0.10083
-40.0384	-169.133	0.120361
-40.0354	-177.254	0.139893
-40.0352	-170.584	0.159424
-40.0333	-167.221	0.178955
-40.0317	-169.063	0.198486
-40.0302	-168.988	0.218018
-40.0287	-161.187	0.237549
-40.0267	-169.004	0.25708
-40.0249	-167.543	0.276611
-40.0231	-164.016	0.296143
-40.0218	-162.744	0.315674
-40.02	-165.024	0.335205
-40.0186	-160.207	0.354736
-40.0171	-162.1501	0.374268
-40.0158	-161.752	0.393799
-40.0151	-159.409	0.41333
-40.0124	-154.828	0.432861
-40.01009	-159.505	0.452393
-40.0093	-157.214	0.471924
-40.0073	-151.633	0.491455
-40.0057	-155.015	0.510986
-40.0031	-155.4796	0.530518
-40.0035	-149.8998	0.550049
-40.0011	-150.11	0.56958
-39.9989	-153.28	0.589111
-39.9979	-145.534	0.608643
-39.9967	-147.51	0.628174
-39.9944	-149.573	0.647705
-39.993	-144.523	0.667236
-39.991	-140.945	0.686768
-39.9897	-149.7	0.706299
-39.98888	-142.326	0.72583
-39.9851	-139.212	0.745361
-39.9844	-141.77	0.764893
-39.9828	-141.655	0.784424
-39.9815	-135.677	0.803955
-39.9804	-141.516	0.823486
-39.9781	-136.398	0.843018
-39.9776	-134.045	0.862549
-39.9743	-135.966	0.88208
-39.9738	-136.556	0.901611
-39.9718	-128.413	0.921143
-39.9693	-132.1351	0.940674
-39.968	-134.2567	0.960205
-39.9669	-129.69	0.979736
-39.9648	-125.889	0.999268
-39.9634	-128.084	1.0188
-39.9621	-127.291	1.03833
-39.9597	-125.367	1.05786
-39.9593	-127.881	1.07739
-39.9574	-125.71	1.09692
-39.9554	-120.4615	1.11646
-39.954	-123.723	1.13599
-39.9513	-124.614	1.15552
-39.9506	-117.824	1.17505
-39.9491	-121.238	1.19458
-39.9478	-121.896	1.21411
-39.9456	-115.3828	1.23364
-39.9431	-115.152	1.25317
-39.9418	-121.4501	1.27271
-39.94017	-112.406	1.29224
-39.9385	-113.6366	1.31177
-39.9368	-117.351	1.3313
-39.9365	-108.935	1.35083
-39.9343	-105.816	1.37036
-39.9323	-116.0426	1.38989
-39.9308	-108.468	1.40942
-39.9291	-106.442	1.42896
-39.9281	-108.794	1.44849
-39.9253	-108.515	1.46802
-39.9243	-101.963	1.48755
-39.9242	-108.086	1.50708
-39.9216	-104.642	1.52661
-39.9197	-99.4845	1.54614
-39.9185	-101.086	1.56567
-39.9159	-102.774	1.58521
-39.914	-97.0142	1.60474
-39.9135	-97.29493	1.62427
-39.9116	-101.3322	1.6438
-39.91	-97.3581	1.66333
-39.9068	-94.1276	1.68286
-39.9072	-93.0867	1.70239
-39.9057	-95.64817	1.72192
-39.9046	-91.901	1.74146
-39.9011	-95.4621	1.76099
-39.8997	-92.2343	1.78052
-39.8991	-88.0912	1.80005
-39.8973	-88.7165	1.81958
-39.895	-93.2578	1.83911
-39.8944	-83.306	1.85864
-39.891	-85.1055	1.87817
-39.889	-87.901	1.89771
-39.8888	-82.7736	1.91724
-39.888	-78.31678	1.93677
-39.8855	-86.1733	1.9563
-39.8847	-79.3163	1.97583
-39.883	-80.1324	1.99536
-39.8802	-81.5891	2.01489
-39.8797	-79.0722	2.03442
-39.8776	-73.1349	2.05396
-39.87627	-80.1391	2.07349
-39.874	-77.0746	2.09302
-39.87207	-71.7228	2.11255
-39.8711	-72.7765	2.13208
-39.86832	-74.463	2.15161
-39.868	-68.5943	2.17114
-39.8656	-69.1714	2.19067
-39.864	-71.2323	2.21021
-39.8627	-66.1015	2.22974
-39.8612	-69.0456	2.24927
-39.8599	-69.0677	2.2688
-39.8582	-65.9944	2.28833
-39.8559	-60.6937	2.30786
-39.8547	-68.99144	2.32739
-39.8527	-65.0421	2.34692
-39.8518	-58.2655	2.36646
-39.8504	-60.0054	2.38599
-39.8478	-63.6585	2.40552
-39.8466	-57.1045	2.42505
-39.8442	-60.6383	2.44458
-39.8419	-59.3585	2.46411
-39.8418	-52.52697	2.48364
-39.8394	-54.5374	2.50317
-39.839	-58.8433	2.52271
-39.8366	-50.9888	2.54224
-39.8352	-50.2779	2.56177
-39.8332	-55.417	2.5813
-39.8322	-49.914	2.60083
-39.8308	-44.8352	2.62036
-39.8289	-52.8539	2.63989
-39.8276	-45.96418	2.65942
-39.826	-45.0163	2.67896
-39.8241	-47.621	2.69849
-39.82132	-44.2361	2.71802
-39.82	-39.9996	2.73755
-39.8187	-44.1452	2.75708
-39.8168	-44.39529	2.77661
-39.8154	-39.8953	2.79614
-39.81477	-38.74786	2.81567
-39.8132	-40.5733	2.83521
-39.8108	-38.71307	2.85474
-39.8085	-35.9093	2.87427
-39.8077	-37.8018	2.8938
-39.80579	-35.1792	2.91333
-39.8035	-32.4982	2.93286
-39.8035	-34.3162	2.95239
-39.80106	-34.7364	2.97192
-39.8004	-25.7302	2.99146
-39.7977	-32.5105	3.01099
-39.7965	-31.8879	3.03052
-39.7947	-25.8361	3.05005
-39.7916	-25.4191	3.06958
-39.7921	-32.4149	3.08911
-39.7901	-22.3808	3.10864
-39.7883	-25.9126	3.12817
-39.7864	-26.5392	3.14771
-39.7849	-20.6082	3.16724
-39.784	-17.8141	3.18677
-39.7836	-26.5039	3.2063
-39.7801	-17.575	3.22583
-39.778	-17.1554	3.24536
-39.777	-21.1809	3.26489
-39.7749	-17.7743	3.28442
-39.773	-12.0964	3.30396
-39.7717	-16.5769	3.32349
-39.7704	-14.9536	3.34302
-39.7681	-11.1894	3.36255
-39.7663	-13.542	3.38208
-39.7652	-11.5421	3.40161
-39.7622	-7.33259	3.42114
-39.7617	-9.69984	3.44067
-39.7604	-11.9806	3.46021
-39.7585	-5.63355	3.47974
-39.7574	-5.54898	3.49927
-39.7559	-6.805222	3.5188
-39.7533	-5.95907	3.53833
-39.7527	0.550546	3.55786
-39.75005	-5.86789	3.57739
-39.74913	-1.59282	3.59692
-39.7475	2.13858	3.61646
-39.7462	-0.476747	3.63599
-39.745	-3.06614	3.65552
-39.74287	6.57109	3.67505
-39.7411	1.730188	3.69458
-39.7394	3.64566	3.71411
-39.7376	8.22965	3.73364
-39.7371	8.830411	3.75317
-39.7347	-0.379196	3.77271
-39.7326	10.415	3.79224
-39.7309	10.1951	3.81177
-39.7297	7.47957	3.8313
-39.727	12.5949	3.85083
-39.7266	15.4883	3.87036
-39.7251	7.86603	3.88989
-39.7223	13.6354	3.90942
-39.72073	19.1424	3.92896
-39.7195	16.1447	3.94849
-39.7182	15.7918	3.96802
-39.7166	20.3424	3.98755
-39.7158	18.6098	4.00708
-39.7139	18.1337	4.02661
-39.7108	22.0245	4.04614
-39.7095	20.60425	4.06567
-39.708	22.1101	4.08521
-39.706	24.9849	4.10474
-39.70631	28.4483	4.12427
-39.7038	21.51897	4.1438
-39.701	26.3448	4.16333
-39.7008	30.4235	4.18286
-39.699	29.5593	4.20239
-39.69791	25.29587	4.22192
-39.6958	34.6711	4.24146
-39.6936	28.7109	4.26099
-39.6903	29.886	4.28052
-39.6928	36.92157	4.30005
-39.6881	35.6902	4.31958
-39.6863	31.157	4.33911
-39.68523	41.6623	4.35864
-39.6834	37.679	4.37817
-39.6822	33.5999	4.39771
-39.6814	41.2335	4.41724
-39.6794	44.3888	4.43677
-39.6778	36.9546	4.4563
-39.6766	42.3244	4.47583
-39.6753	45.6044	4.49536
-39.6719	40.9445	4.51489
-39.6711	47.9553	4.53442
-39.6699	48.4833	4.55396
-39.6673	44.746	4.57349
-39.6663	46.2328	4.59302
-39.6641	52.9655	4.61255
-39.6634	48.6819	4.63208
-39.6627	49.1494	4.65161
-39.6595	54.09269	4.67114
-39.6574	56.027	4.69067
-39.6558	51.9047	4.71021
-39.6547	56.54393	4.72974
-39.6526	58.1497	4.74927
-39.6517	54.9054	4.7688
-39.6496	57.3361	4.78833
-39.6495	64.1014	4.80786
-39.6461	54.0039	4.82739
-39.6462	60.8409	4.84692
-39.6441	66.7489	4.86646
-39.6414	62.12	4.88599
-39.64053	57.9884	4.90552
-39.6379	67.0108	4.92505
-39.6368	61.6876	4.94458
-39.6361	63.8945	4.96411
-39.6331	69.882	4.98364
-39.6322	69.3648	5.00317
-39.6317	65.0439	5.02271
-39.62965	72.4166	5.04224
-39.6275	71.7142	5.06177
-39.6259	67.1164	5.0813
-39.6229	72.8297	5.10083
-39.6218	76.2088	5.12036
-39.62056	72.2174	5.13989
-39.6188	75.5864	5.15942
-39.6175	79.3547	5.17896
-39.6146	75.3117	5.19849
-39.6146	78.3982	5.21802
-39.6119	80.9022	5.23755
-39.6103	79.13427	5.25708
-39.60931	77.63237	5.27661
-39.607	85.1413	5.29614
-39.6047	84.79435	5.31567
-39.6036	81.9894	5.33521
-39.6033	83.6885	5.35474
-39.6008	90.0422	5.37427
-39.5992	84.0595	5.3938
-39.5974	87.7637	5.41333
-39.5962	90.61	5.43286
-39.5935	91.2096	5.45239
-39.5936	87.4505	5.47192
-39.5911	96.0909	5.49146
-39.5898	90.0778	5.51099
-39.5888	91.3298	5.53052
-39.5865	99.0948	5.55005
-39.5846	97.4498	5.56958
-39.5835	91.655	5.58911
-39.5812	100.723	5.60864
-39.579	98.6479	5.62817
-39.57774	97.9906	5.64771
-39.5765	100.922	5.66724
-39.5746	104.742	5.68677
-39.5729	97.7143	5.7063
-39.5726	104.437	5.72583
-39.5696	105.363	5.74536
-39.5687	101.829	5.76489
-39.5669	106.471	5.78442
-39.5649	110.142	5.80396
-39.5641	105.644	5.82349
-39.5613	105	5.84302
-39.5609	112.207	5.86255
-39.5593	109.944	5.88208
-39.5573	112.9	5.90161
-39.5553	112.842	5.92114
-39.553	114.957	5.94067
-39.5516	109.1391	5.96021
-39.5506	117.9362	5.97974
-39.5495	119.031	5.99927
-39.5471	115.588	6.0188
-39.546	113.836	6.03833
-39.544	125.183	6.05786
-39.54295	115.782	6.07739
-39.54184	118.677	6.09692
-39.54	125.058	6.11646
-39.5369	124.002	6.13599
-39.5358	119.636	6.15552
-39.5341	130.447	6.17505
-39.5322	125.024	6.19458
-39.5315	121.896	6.21411
-39.528	132.501	6.23364
-39.52668	130.676	6.25317
-39.5263	123.6693	6.27271
-39.524	132.721	6.29224
-39.5226	133.115	6.31177
-39.5214	129.419	6.3313
-39.5202	132.954	6.35083
-39.51799	136.338	6.37036
-39.5161	132.152	6.38989
-39.5151	136.164	6.40942
-39.5139	139.58	6.42896
-39.5117	134.302	6.44849
-39.5108	137.012	6.46802
-39.5093	141.094	6.48755
-39.5067	142.077	6.50708
-39.5051	138.4973	6.52661
-39.5019	143.952	6.54614
-39.5013	145.454	6.56567
-39.5015	143.055	6.58521
-39.499	145.833	6.60474
-39.4964	150.516	6.62427
-39.4954	142.731	6.6438
-39.493	149.821	6.66333
-39.492	153.174	6.68286
-39.4903	147.293	6.70239
-39.48999	146.906	6.72192
-39.4868	157.0424	6.74146
-39.4855	150.812	6.76099
-39.4837	150.963	6.78052
-39.48143	156.041	6.80005
-39.4808	155.829	6.81958
-39.4805	152.1095	6.83911
-39.4776	160.318	6.85864
-39.4757	158.948	6.87817
-39.4737	154.565	6.89771
-39.4726	164.615	6.91724
-39.4716	162.29	6.93677
-39.46804	155.998	6.9563
-39.4676	162.575	6.97583
-39.466	166.351	6.99536
-39.46397	161.21	7.01489
-39.4633	165.263	7.03442
-39.4603	167.974	7.05396
-39.4586	165.289	7.07349
-39.4588	165.129	7.09302
-39.4559	172.8033	7.11255
-39.4546	167.73	7.13208
-39.4526	169.111	7.15161
-39.4524	171.867	7.17114
-39.4497	174.707	7.19067
-39.4483	168.581	7.21021
-39.4471	175.319	7.22974
-39.4442	175.807	7.24927
-39.4433	175.528	7.2688
-39.4409	174.982	7.28833
-39.4398	180.68	7.30786
-39.439	175.331	7.32739
-39.437	180.924	7.34692
-39.4359	185.245	7.36646
-39.4335	180.174	7.38599
-39.4301	177.117	7.40552
-39.4298	187.323	7.42505
-39.4296	182.8	7.44458
-39.42725	180.852	7.46411
-39.4248	189.996	7.48364
-39.4235	188.455	7.50317
-39.4224	183.909	7.52271
-39.4202	190.377	7.54224
-39.4198	190.81	7.56177
-39.4176	185.222	7.5813
-39.41581	194.207	7.60083
-39.4138	193.282	7.62036
-39.4132	190.6393	7.63989
-39.4112	192.612	7.65942
-39.41	198.012	7.67896
-39.4071	193.426	7.69849
-39.4057	198.146	7.71802
-39.4049	198.648	7.73755
-39.4031	198.019	7.75708
-39.4001	195.774	7.77661
-39.3994	203.699	7.79614
-39.3984	203.038	7.81567
-39.3967	199.838	7.83521
-39.3952	202.144	7.85474
-39.3926	208.376	7.87427
-39.3919	200.632	7.8938
-39.3901	204.946	7.91333
-39.3874	209.2702	7.93286
-39.38689	205.958	7.95239
-39.3841	205.4933	7.97192
-39.382	212.961	7.99146
-39.38142	206.72	8.01099
-39.38023	209.22	8.03052
-39.3791	216.782	8.05005
-39.37664	213.708	8.06958
-39.3752	209.344	8.08911
-39.3724	218.204	8.10864
-39.372	217.32	8.12817
-39.3695	213.671	8.14771
-39.3678	220.103	8.16724
-39.3668	219.187	8.18677
-39.3651	215.056	8.2063
-39.3637	220.631	8.22583
-39.3628	223.255	8.24536
-39.3606	217.789	8.26489
-39.3584	223.8736	8.28442
-39.3566	226.912	8.30396
-39.3555	225.597	8.32349
-39.3539	220.194	8.34302
-39.352	231.258	8.36255
-39.3504	228.424	8.38208
-39.3494	226.82	8.40161
-39.347	229.377	8.42114
-39.3459	233.528	8.44067
-39.344	225.702	8.46021
-39.3431	233.555	8.47974
-39.3397	233.489	8.49927
-39.3396	231.379	8.5188
-39.3389	231.37	8.53833
-39.3369	239.791	8.55786
-39.3347	231.235	8.57739
-39.3318	236.756	8.59692
-39.3308	241.291	8.61646
-39.3294	237.369	8.63599
-39.3283	235.315	8.65552
-39.3271	245.084	8.67505
-39.3244	238.093	8.69458
-39.323	238.268	8.71411
-39.3212	248.135	8.73364
-39.3196	244.025	8.75317
-39.3179	238.819	8.77271
-39.3166	244.96	8.79224
-39.3151	248.751	8.81177
-39.3135	242.906	8.8313
-39.3115	249.9561	8.85083
-39.3094	249.913	8.87036
-39.3089	247.993	8.88989
-39.3056	250.649	8.90942
-39.3044	255.729	8.92896
-39.3032	249.833	8.94849
-39.3015	252.811	8.96802
-39.3011	257.307	8.98755
-39.29829	255.631	9.00708
-39.2975	252.072	9.02661
-39.2952	259.489	9.04614
-39.29388	259.108	9.06567
-39.2925	258.296	9.08521
-39.2914	257.725	9.10474
-39.2886	264.091	9.12427
-39.2878	257.343	9.1438
-39.2866	263.078	9.16333
-39.2844	266.587	9.18286
-39.28186	262.158	9.20239
-39.2798	261.327	9.22192
-39.2779	269.312	9.24146
-39.2786	264.061	9.26099
-39.2751	264.097	9.28052
-39.2747	271.578	9.30005
-39.2728	269.066	9.31958
-39.2713	264.973	9.33911
-39.2688	273.636	9.35864
-39.2671	271.622	9.37817
-39.26619	267.793	9.39771
-39.264	276.874	9.41724
-39.263	276.322	9.43677
-39.261	270.46	9.4563
-39.26	274.2446	9.47583
-39.259	280.517	9.49536
-39.2543	275.249	9.51489
-39.2554	279.721	9.53442
-39.25259	280.786	9.55396
-39.2508	279.102	9.57349
-39.2498	278.53	9.59302
-39.249	285.6275	9.61255
-39.2474	281.795	9.63208
-39.2456	282.478	9.65161
-39.2436	284.5542	9.67114
-39.242	287.728	9.69067
-39.24065	280.009	9.71021
-39.2386	287.093	9.72974
-39.2363	290.034	9.74927
-39.23592	286.397	9.7688
-39.2339	288.248	9.78833
-39.2318	293.572	9.80786
-39.23019	286.5499	9.82739
-39.2288	290.876	9.84692
-39.2279	298.021	9.86646
-39.2254	291.97	9.88599
-39.2237	290.2081	9.90552
-39.2224	299.565	9.92505
-39.2209	294.133	9.94458
-39.2182	290.85	9.96411
-39.2169	301.386	9.98364
-39.2147	298.077	10.0032
-39.2136	295.575	10.0227
-39.2133	300.858	10.0422
-39.2104	302.353	10.0618
-39.20932	297.464	10.0813
-39.2077	304.592	10.10083
-39.2058	304.008	10.1204
-39.2036	301.786	10.1399
-39.2032	301.766	10.1594
-39.2	308.727	10.179
-39.1993	305.743	10.1985
-39.197	307.502	10.218
-39.196	308.278	10.2375
-39.1954	309.223	10.25708
-39.1936	306.266	10.2766
-39.1914	313.57	10.2961
-39.1894	311.53	10.3157
-39.1881	309.815	10.3352
-39.1855	313.224	10.3547
-39.1837	317.776	10.3743
-39.1824	310.092	10.3938
-39.1816	313.869	10.41333
-39.1796	318.8989	10.4329
-39.1774	315.106	10.4524
-39.1769	313.1705	10.4719
-39.1746	321.581	10.4915
-39.1734	316.46	10.511
-39.1712	317.185	10.5305
-39.1706	324.433	10.55
-39.1693	319.095	10.56958
-39.1669	316.227	10.5891
-39.1646	326.206	10.6086
-39.1639	324.068	10.6282
-39.16169	319.527	10.6477
-39.1586	328.623	10.6672
-39.1592	328.126	10.6868
-39.15781	324.683	10.7063
-39.1558	327.612	10.72583
-39.1537	330.859	10.7454
-39.152	325.301	10.7649
-39.1499	331.085	10.7844
-39.1485	331.4852	10.804
-39.1464	329.7131	10.8235
-39.1457	326.654	10.843
-39.1435	336.872	10.8625
-39.14209	334.332	10.88208
-39.1407	333.187	10.9016
-39.1377	334.605	10.9211
-39.13736	338.142	10.9407
-39.1362	332.718	10.9602
-39.1347	340.391	10.9797
-39.1318	342.001	10.9993
-39.1314	335.511	11.0188
-39.1294	338.296	11.03833
-39.128	346.693	11.0579
-39.1265	337.749	11.0774
-39.1239	339.296	11.0969
-39.1233	347.237	11.1165
-39.1214	342.52	11.136
-39.119	341.571	11.1555
-39.1175	348.8595	11.175
-39.1165	345.2478	11.19458
-39.1151	342.664	11.2141
-39.1133	353.151	11.2336
-39.1117	349.663	11.2532
-39.1095	344.209	11.2727
-39.1085	351.029	11.2922
-39.1076	353.14	11.3118
-39.1047	345.414	11.3313
-39.1038	354.7959	11.35083
-39.1003	354.097	11.3704
-39.0996	352.795	11.3899
-39.0984	352.103	11.4094
-39.0968	359.6987	11.429
-39.0939	354.6571	11.4485
-39.0928	356.35	11.468
-39.0916	358.585	11.4875
-39.0915	360.936	11.50708
-39.0892	352.382	11.5266
-39.0869	362.036	11.5461
-39.0856	363.037	11.5657
-39.084	359.1106	11.5852
-39.0807	359.727	11.6047
-39.079	364.523	11.6243
-39.0786	359.778	11.6438
-39.0775	363.891	11.66333
-39.0757	368.773	11.6829
-39.0749	362.9841	11.7024
-39.071	363.891	11.7219
-39.0698	370.941	11.7415
-39.06908	365.251	11.761
-39.0675	362.917	11.7805
-39.0659	372.8049	11.8
-39.0629	367.81	11.81958
-39.0636	366.73	11.8391
-39.061	374.145	11.8586
-39.0594	372.271	11.8782
-39.0575	366.937	11.8977
-39.0565	375.194	11.9172
-39.0535	374.153	11.9368
-39.0522	372.121	11.9563
-39.0517	374.036	11.97583
-39.0494	379.086	11.9954
-39.0478	373.17	12.0149
-39.0462	377.254	12.0344
-39.0462	377.387	12.054
-39.0437	378.914	12.0735
-39.0422	376.245	12.093
-39.0406	383.481	12.1125
-39.03738	380.225	12.13208
-39.0356	379.225	12.1516
-39.0344	382.27	12.1711
-39.034	385.337	12.1907
-39.0326	376.7197	12.2102
-39.0294	383.878	12.2297
-39.0281	386.692	12.2493
-39.0274	382.635	12.2688
-39.0247	383.244	12.28833
-39.0237	388.472	12.3079
-39.0228	382.996	12.3274
-39.0195	384.849	12.3469
-39.01992	393.677	12.3665
-39.0169	386.278	12.386
-39.0154	385.663	12.4055
-39.0134	393.652	12.425
-39.0112	388.594	12.44458
-39.00988	386.445	12.4641
-39.0092	394.752	12.4836
-39.0076	391.838	12.5032
-39.00563	389.516	12.5227
-39.0036	394.144	12.5422
-39.0024	396.777	12.5618
-39.0003	391.194	12.5813
-38.9998	398.236	12.60083
-38.9979	396.327	12.6204
-38.9958	393.88	12.6399
-38.9931	394.629	12.6594
-38.9925	400.911	12.679
-38.9906	397.629	12.6985
-38.9892	397.442	12.718
-38.9871	400.106	12.7375
-38.98616	401.792	12.75708
-38.9847	395.087	12.7766
-38.9829	403.487	12.7961
-38.9814	403.318	12.8157
-38.9797	399.262	12.8352
-38.977	403.065	12.8547
-38.9771	406.634	12.8743
-38.975	398.57	12.8938
-38.9723	403.5578	12.91333
-38.9712	408.423	12.9329
-38.969	404.444	12.9524
-38.9679	403.202	12.9719
-38.9659	409.428	12.9915
-38.9644	404.135	13.011
-38.9636	403.707	13.0305
-38.9622	412.843	13.05
-38.9597	406.48	13.06958
-38.958	405.088	13.0891
-38.957	411.579	13.1086
-38.955	412.044	13.1282
-38.95253	406.398	13.1477
-38.9523	412.831	13.1672
-38.94986	413.193	13.1868
-38.9483	410.168	13.2063
-38.9472	411.387	13.22583
-38.9462	415.662	13.2454
-38.9434	412.143	13.2649
-38.9418	415.155	13.2844
-38.9412	416.61	13.304
-38.9384	416.502	13.3235
-38.9379	411.445	13.343
-38.9352	419.254	13.3625
-38.9353	416.634	13.38208
-38.9318	415.699	13.4016
-38.9304	415.604	13.4211
-38.9289	419.907	13.4407
-38.9275	413.778	13.4602
-38.927	419.534	13.4797
-38.9239	421.888	13.4993
-38.9233	417.489	13.5188
-38.9211	418.879	13.53833
-38.9199	423.8	13.5579
-38.9182	416.318	13.5774
-38.9165	417.379	13.5969
-38.9152	425.233	13.6165
-38.9115	420.4595	13.636
-38.9109	418.658	13.6555
-38.9097	424.293	13.675
-38.9071	422.206	13.69458
-38.9054	417.809	13.7141
-38.9055	426.887	13.7336
-38.9027	422.9812	13.7532
-38.9009	418.962	13.7727
-38.8993	425.689	13.7922
-38.898	427.471	13.8118
-38.8966	422.905	13.8313
-38.8951	426.6839	13.85083
-38.8923	426.768	13.8704
-38.8919	425.795	13.8899
-38.8897	424.803	13.9094
-38.8884	430.52	13.929
-38.8861	423.949	13.9485
-38.886	426.836	13.968
-38.8839	428.327	13.9875
-38.8818	429.999	14.00708
-38.8801	423.1358	14.0266
-38.8779	431.741	14.0461
-38.876	431.902	14.0657
-38.8751	427.6553	14.0852
-38.8742	427.975	14.1047
-38.8723	432.779	14.1243
-38.87	426.038	14.1438
-38.86805	430.02	14.16333
-38.8676	433.8721	14.1829
-38.8647	427.9024	14.2024
-38.8652	428.33	14.2219
-38.8629	435.398	14.2415
-38.8609	429.232	14.261
-38.8584	427.073	14.2805
-38.857	434.09	14.3
-38.8556	431.608	14.31958
-38.8539	428.124	14.3391
-38.85199	434.981	14.3586
-38.8504	431.917	14.3782
-38.8494	428.59	14.3977
-38.8475	436.0748	14.4172
-38.8465	434.33	14.4368
-38.8446	429.491	14.4563
-38.8417	433.125	14.47583
-38.8409	438.721	14.4954
-38.8396	431.589	14.5149
-38.8381	434.814	14.5344
-38.8366	434.269	14.554
-38.834	436.283	14.5735
-38.8338	431.172	14.593
-38.83147	437.636	14.6125
-38.8293	433.408	14.63208
-38.82798	431.518	14.6516
-38.8273	437.226	14.6711
-38.8247	438.042	14.6907
-38.8237	430.624	14.7102
-38.8214	436.354	14.7297
-38.8189	439.141	14.7493
-38.8179	436.601	14.7688
-38.8161	434.281	14.78833
-38.8144	437.192	14.8079
-38.8132	432.162	14.8274
-38.8124	434.464	14.8469
-38.8101	440.032	14.8665
-38.8081	433.634	14.886
-38.8072	432.758	14.9055
-38.8048	440.962	14.925
-38.8033	436.797	14.94458
-38.8024	432.324	14.9641
-38.7995	439.203	14.9836
-38.7992	437.003	15.0032
-38.79702	432.5668	15.0227
-38.7955	437.385	15.0422
-38.7941	436.962	15.0618
-38.792	433.9957	15.0813
-38.7904	438.8085	15.10083
-38.7892	439.26	15.1204
-38.7872	435.057	15.1399
-38.78463	433.98	15.1594
-38.7845	441.137	15.179
-38.7819	436.535	15.1985
-38.7811	436.526	15.218
-38.7794	438.214	15.2375
-38.7786	439.903	15.25708
-38.7771	432.794	15.2766
-38.77454	440.224	15.2961
-38.77285	439.458	15.3157
-38.7701	435.6857	15.3352
-38.7699	437.277	15.3547
-38.7671	441.762	15.3743
-38.7657	432.314	15.3938
-38.7648	436.091	15.41333
-38.7627	442.141	15.4329
-38.7617	435.295	15.4524
-38.7596	434.989	15.4719
-38.7579	439.1506	15.4915
-38.7567	434.795	15.511
-38.7552	433.733	15.5305
-38.7527	441.6774	15.55
-38.75169	434.6792	15.56958
-38.7502	433.111	15.5891
-38.74844	440.8703	15.6086
-38.748	439.75	15.6282
-38.7455	432.99	15.6477
-38.7438	439.678	15.6672
-38.7414	438.632	15.6868
-38.7397	435.719	15.7063
-38.7393	434.724	15.72583
-38.7376	440.205	15.7454
-38.7357	433.9722	15.7649
-38.734	438.261	15.7844
-38.7328	439.304	15.804
-38.72945	436.568	15.8235
-38.7285	432.773	15.843
-38.72646	441.214	15.8625
-38.7249	438.8775	15.88208
-38.7232	434.992	15.9016
-38.7226	436.039	15.9211
-38.7203	437.911	15.9407
-38.7192	432.1398	15.9602
-38.7168	438.036	15.9797
-38.7152	438.245	15.9993
-38.71381	433.544	16.0188
-38.712	434.4411	16.03833
-38.7102	440.475	16.0579
-38.7098	432.233	16.0774
-38.7082	436.282	16.0969
-38.7066	442.652	16.1165
-38.7051	434.597	16.136
-38.70269	433.08	16.1555
-38.6999	437.926	16.175
-38.7	433.394	16.19458
-38.698	431.623	16.2141
-38.6962	440.5589	16.2336
-38.6948	435.968	16.2532
-38.693	431.188	16.2727
-38.692	437.183	16.2922
-38.6899	437.576	16.3118
-38.6888	432.04	16.3313
-38.6873	436.069	16.35083
-38.6854	434.903	16.3704
-38.6825	431.9169	16.3899
-38.68177	432.632	16.4094
-38.6802	436.321	16.429
-38.6783	430.416	16.4485
-38.6776	432.214	16.468
-38.6759	435.538	16.4875
-38.6736	434.976	16.50708
-38.6729	428.83	16.5266
-38.6706	436.848	16.5461
-38.6694	437.053	16.5657
-38.6665	433.284	16.5852
-38.6653	430.945	16.6047
-38.6641	436.146	16.6243
-38.662	428.848	16.6438
-38.6596	432.7352	16.66333
-38.65868	436.467	16.6829
-38.6576	430.193	16.7024
-38.6556	430.295	16.7219
-38.6546	438.731	16.7415
-38.65276	430.534	16.761
-38.6507	427.298	16.7805
-38.6498	436.999	16.8
-38.6484	431.726	16.81958
-38.6457	429.944	16.8391
-38.6443	433.916	16.8586
-38.6425	433.105	16.8782
-38.6406	427.477	16.8977
-38.6402	436.886	16.9172
-38.638	433.616	16.9368
-38.6364	428.618	16.9563
-38.6353	431.658	16.97583
-38.6316	435.104	16.9954
-38.6305	429.986	17.0149
-38.6288	432.89	17.0344
-38.6281	433.473	17.054
-38.62711	430.971	17.0735
-38.6252	427.816	17.093
-38.6228	435.196	17.1125
-38.6213	430.385	17.13208
-38.6204	429.549	17.1516
-38.6177	430.37	17.1711
-38.6163	434.6868	17.1907
-38.6155	427.056	17.2102
-38.6121	432.5607	17.2297
-38.6105	434.992	17.2493
-38.6101	429.756	17.2688
-38.6083	429.551	17.28833
-38.607	434.064	17.3079
-38.6052	426.277	17.3274
-38.6036	429.75	17.3469
-38.6017	435.163	17.3665
-38.6013	428.066	17.386
-38.5986	427.479	17.4055
-38.5972	433.621	17.425
-38.5957	429.2623	17.44458
-38.5942	422.935	17.4641
-38.5926	432.813	17.4836
-38.5908	428.93	17.5032
-38.5886	427.202	17.5227
-38.5876	430.86	17.5422
-38.5866	430.109	17.5618
-38.584	425.883	17.5813
-38.5823	432.714	17.60083
-38.5787	430.061	17.6204
-38.5787	428.27	17.6399
-38.577	424.078	17.6594
-38.5761	432.686	17.679
-38.5749	428.608	17.6985
-38.5728	427.188	17.718
-38.5701	428.455	17.7375
-38.5703	429.8382	17.75708
-38.5679	424.954	17.7766
-38.566	429.727	17.7961
-38.5645	430.021	17.8157
-38.5615	424.888	17.8352
-38.5607	426.549	17.8547
-38.559	432.308	17.8743
-38.5585	422.251	17.8938
-38.55529	426.376	17.91333
-38.5539	432.042	17.9329
-38.5525	425.398	17.9524
-38.5513	424.0365	17.9719
-38.5495	431.1254	17.9915
-38.5486	424.116	18.011
-38.5472	424.262	18.0305
-38.5442	431.609	18.05
-38.5432	424.717	18.06958
-38.5415	422.054	18.0891
-38.5402	429.804	18.1086
-38.539	428.687	18.1282
-38.5359	422.899	18.1477
-38.5352	428.608	18.1672
-38.5331	426.279	18.1868
-38.5311	424.168	18.2063
-38.5312	425.755	18.22583
-38.5283	430.269	18.2454
-38.5271	423.606	18.2649
-38.5256	427.961	18.2844
-38.5233	427.805	18.304
-38.5222	425.112	18.3235
-38.52029	423.034	18.343
-38.5189	430.091	18.3625
-38.5161	427.54	18.38208
-38.5157	424.187	18.4016
-38.5135	424.852	18.4211
-38.5127	428.683	18.4407
-38.5105	422.392	18.4602
-38.5095	427.883	18.4797
-38.5072	428.184	18.4993
-38.506	422.266	18.5188
-38.504	423.784	18.53833
-38.50333	428.42	18.5579
-38.5013	421.333	18.5774
-38.4991	421.547	18.5969
-38.4987	429.136	18.6165
-38.4962	421.91	18.636
-38.4935	420.387	18.6555
-38.4922	427.685	18.675
-38.49194	424.319	18.69458
-38.4902	420.041	18.7141
-38.4882	428.313	18.7336
-38.4865	423.99	18.7532
-38.4847	421.103	18.7727
-38.48288	425.483	18.7922
-38.48148	427.484	18.8118
-38.4794	419.2876	18.8313
-38.4786	425.606	18.85083
-38.47662	422.333	18.8704
-38.4747	423.038	18.8899
-38.4723	423.368	18.9094
-38.47118	427.3317	18.929
-38.47073	420.627	18.9485
-38.4675	423.232	18.968
-38.4671	424.726	18.9875
-38.46492	425.885	19.00708
-38.4632	418.0199	19.0266
-38.4623	425.574	19.0461
-38.461	425.349	19.0657
-38.4586	421.247	19.0852
-38.4566	422.8421	19.1047
-38.4557	425.427	19.1243
-38.4539	419.49	19.1438
-38.4523	423.61	19.16333
-38.4505	427.174	19.1829
-38.44931	420.187	19.2024
-38.4474	420.08	19.2219
-38.4465	427.812	19.2415
-38.4439	421.762	19.261
-38.442	420.102	19.2805
-38.4409	427.318	19.3
-38.4389	421.395	19.31958
-38.438	419.515	19.3391
-38.4356	425.498	19.3586
-38.43327	422.679	19.3782
-38.4329	417.452	19.3977
-38.43153	425.48	19.4172
-38.4291	424.261	19.4368
-38.428	419.049	19.4563
-38.426	420.735	19.47583
-38.4255	424.778	19.4954
-38.4218	419.412	19.5149
-38.4209	422.721	19.5344
-38.4192	422.756	19.554
-38.4183	424.186	19.5735
-38.416	419.927	19.593
-38.4146	425.307	19.6125
-38.4129	421.306	19.63208
-38.4115	418.875	19.6516
-38.4096	421.8797	19.6711
-38.40863	424.2796	19.6907
-38.4073	416.237	19.7102
-38.405	421.502	19.7297
-38.4034	423.794	19.7493
-38.4014	419.567	19.7688
-38.3997	419.409	19.78833
-38.398	425.6315	19.8079
-38.3965	417.194	19.8274
-38.3954	420.224	19.8469
-38.3924	425.407	19.8665
-38.3921	419.8996	19.886
-38.3903	417.757	19.9055
-38.3884	425.507	19.925
-38.3865	420.922	19.94458
-38.3861	415.717	19.9641
-38.38393	424.9252	19.9836
-38.381	419.684	20.0032
-38.3814	417.681	20.0129

Data Header:			0.254_solid_uprint_typeiv_090_r0			Time:	23.6814	s	4/14/2019 1:09:24 AM
Data Acquisition:	Timed
Station Name:	ft40.cfg
Test File Name:	monotonic_0.2540_typeiv_solid_090_uprint.tst
Displacement	Force	Running Time
mm	N	s
-38.3809	417.746	20.0227
-38.3799	420.017	20.0325
-38.3789	421.401	20.0422
-38.3783	425.346	20.052
-38.378	421.938	20.0618
-38.3762	418.1572	20.0715
-38.3752	415.97	20.0813
-38.3747	418.73	20.0911
-38.3737	422.256	20.10083
-38.3729	420.942	20.1106
-38.3729	423.1506	20.1204
-38.3722	419.362	20.1301
-38.3708	418.59	20.1399
-38.3698	418.662	20.1497
-38.3695	416.2551	20.1594
-38.3694	423.577	20.1692
-38.3675	423.346	20.179
-38.366	419.533	20.1887
-38.36565	420.869	20.1985
-38.3652	417.341	20.2083
-38.36446	418.617	20.218
-38.3632	419.8476	20.2278
-38.3613	419.504	20.2375
-38.3619	422.321	20.2473
-38.361	421.418	20.25708
-38.3599	419.284	20.2668
-38.3601	416.554	20.2766
-38.35907	417.163	20.2864
-38.3586	423.479	20.2961
-38.3577	423.706	20.3059
-38.355	421.477	20.3157
-38.3547	418.037	20.3254
-38.3548	416.916	20.3352
-38.3534	416.877	20.345
-38.3528	419.434	20.3547
-38.3531	422.607	20.3645
-38.3512	425.465	20.3743
-38.3499	420.58	20.384
-38.3495	415.258	20.3938
-38.3485	416.911	20.4036
-38.3487	417.689	20.41333
-38.3476	423.599	20.4231
-38.3474	423.228	20.4329
-38.346	416.731	20.4426
-38.3451	418.054	20.4524
-38.3449	417.284	20.4622
-38.3434	415.797	20.4719
-38.3422	422.752	20.4817
-38.3406	421.893	20.4915
-38.341	423.333	20.5012
-38.3405	414.499	20.511
-38.3393	413.688	20.5208
-38.3385	415.781	20.5305
-38.3383	419.649	20.5403
-38.3372	422.879	20.55
-38.3361	420.691	20.5598
-38.3347	416.617	20.56958
-38.3344	415.388	20.5793
-38.3327	413.313	20.5891
-38.33128	419.1	20.5989
-38.33176	421.363	20.6086
-38.3308	420.881	20.6184
-38.33	420.949	20.6282
-38.3297	413.296	20.6379
-38.3292	412.1601	20.6477
-38.3282	418	20.6575
-38.3266	420.691	20.6672
-38.3264	421.425	20.677
-38.3249	417.943	20.6868
-38.3236	417.242	20.6965
-38.3228	414.832	20.7063
-38.3222	415.453	20.7161
-38.3222	417.104	20.72583
-38.3207	422.859	20.7356
-38.3203	420.901	20.7454
-38.3196	416.258	20.7551
-38.3187	413.908	20.7649
-38.3177	414.658	20.7747
-38.3164	418.044	20.7844
-38.31604	418.535	20.7942
-38.3158	419.195	20.804
-38.3151	416.3074	20.8137
-38.3141	417.2753	20.8235
-38.3126	415.012	20.8333
-38.3132	413.74	20.843
-38.31039	418.504	20.8528
-38.3103	419.339	20.8625
-38.3098	419.823	20.8723
-38.3092	417.038	20.88208
-38.3082	413.4577	20.8918
-38.3079	415.411	20.9016
-38.3061	417.554	20.9114
-38.306	416.08	20.9211
-38.3042	420.408	20.9309
-38.3045	419.222	20.9407
-38.3033	415.413	20.9504
-38.3031	413.2468	20.9602
-38.30204	413.197	20.97
-38.3002	418.375	20.9797
-38.3004	418.769	20.9895
-38.2991	418.379	20.9993
-38.2994	414.791	21.009
-38.298	411.579	21.0188
-38.2964	412.535	21.0286
-38.2953	413.462	21.03833
-38.295	418.038	21.0481
-38.2935	419.506	21.0579
-38.2934	417.571	21.0676
-38.2933	411.517	21.0774
-38.2916	409.5314	21.0872
-38.2903	411.233	21.0969
-38.2909	419.937	21.1067
-38.2892	419.833	21.1165
-38.2871	416.641	21.1262
-38.2877	413.697	21.136
-38.2867	412.131	21.1458
-38.2869	412.585	21.1555
-38.2857	414.564	21.1653
-38.28437	418.328	21.175
-38.2843	418.454	21.1848
-38.2828	412.693	21.19458
-38.2819	406.787	21.2043
-38.2815	406.7	21.2141
-38.2798	414.659	21.2239
-38.2792	417.118	21.2336
-38.2791	414.389	21.2434
-38.278	412.5546	21.2532
-38.2768	410.303	21.2629
-38.2768	406.3316	21.2727
-38.2756	409.995	21.2825
-38.2753	411.707	21.2922
-38.2743	414.2095	21.302
-38.27351	413.454	21.3118
-38.2727	406.272	21.3215
-38.2713	405.932	21.3313
-38.2705	407.227	21.3411
-38.2696	408.437	21.35083
-38.2693	409.727	21.3606
-38.2679	406.51	21.3704
-38.2668	403.324	21.3801
-38.2671	401.056	21.3899
-38.2656	397.883	21.3997
-38.2649	398.165	21.4094
-38.26416	398.952	21.4192
-38.2611	-83.8032	21.429
-38.2598	-60.6575	21.4387
-38.2589	-32.46616	21.4485
-38.2596	-31.0033	21.4583
-38.2576	-40.3459	21.468
-38.259	-46.1586	21.4778
-38.2589	-39.3065	21.4875
-38.25631	-40.6153	21.4973
-38.255	-39.0131	21.50708
-38.2556	-43.6268	21.5168
-38.2544	-46.6875	21.5266
-38.2541	-43.7072	21.5364
-38.2531	-38.8124	21.5461
-38.252	-38.5979	21.5559
-38.2509	-40.38755	21.5657
-38.2509	-44.4926	21.5754
-38.2494	-43.2828	21.5852
-38.2494	-44.4829	21.595
-38.2482	-41.9208	21.6047
-38.2467	-38.2445	21.6145
-38.2475	-39.6103	21.6243
-38.2459	-40.4625	21.634
-38.2447	-46.4235	21.6438
-38.2441	-46.8284	21.6536
-38.2434	-43.0706	21.66333
-38.2421	-39.3682	21.6731
-38.24194	-36.7241	21.6829
-38.2411	-42.9881	21.6926
-38.24081	-45.5137	21.7024
-38.2391	-45.0564	21.7122
-38.2389	-45.7271	21.7219
-38.2388	-40.55061	21.7317
-38.2356	-38.0128	21.7415
-38.2371	-39.6172	21.7512
-38.2356	-43.8887	21.761
-38.2346	-47.5933	21.7708
-38.2339	-46.9025	21.7805
-38.2327	-39.1971	21.7903
-38.23167	-38.5916	21.8
-38.2312	-41.1356	21.8098
-38.2306	-43.0024	21.81958
-38.2308	-45.17728	21.8293
-38.2284	-46.7266	21.8391
-38.2278	-41.9838	21.8489
-38.2271	-39.1077	21.8586
-38.2259	-37.7866	21.8684
-38.22525	-41.7798	21.8782
-38.2247	-44.6619	21.8879
-38.2239	-46.6352	21.8977
-38.2239	-44.2658	21.9075
-38.2224	-38.0527	21.9172
-38.2202	-40.9411	21.927
-38.22	-41.334	21.9368
-38.219	-42.3041	21.9465
-38.2188	-44.908	21.9563
-38.218	-43.2985	21.9661
-38.2178	-43.7911	21.97583
-38.2162	-37.8139	21.9856
-38.2152	-39.7946	21.9954
-38.2155	-44.513	22.0051
-38.2149	-44.2184	22.0149
-38.2127	-46.0998	22.0247
-38.2127	-41.3173	22.0344
-38.2117	-41.1086	22.0442
-38.211	-42.4328	22.054
-38.2108	-40.4312	22.0637
-38.2089	-42.2207	22.0735
-38.2091	-44.569	22.0833
-38.2076	-45.436	22.093
-38.2067	-44.1429	22.1028
-38.2057	-39.161	22.1125
-38.205	-40.6979	22.1223
-38.2047	-43.3314	22.13208
-38.204	-45.6784	22.1418
-38.2025	-45.5763	22.1516
-38.202	-43.10746	22.1614
-38.2015	-41.8514	22.1711
-38.19989	-40.6342	22.1809
-38.1998	-40.145	22.1907
-38.1978	-41.4811	22.2004
-38.1975	-48.4818	22.2102
-38.19677	-45.6266	22.22
-38.1971	-42.6183	22.2297
-38.1945	-38.8883	22.2395
-38.19508	-39.1161	22.2493
-38.1941	-45.575	22.259
-38.1936	-43.8551	22.2688
-38.1919	-45.5824	22.2786
-38.1916	-45.0454	22.28833
-38.1903	-40.0358	22.2981
-38.191	-39.04	22.3079
-38.1889	-39.0145	22.3176
-38.1888	-46.38932	22.3274
-38.18692	-49.4841	22.3372
-38.1873	-44.392	22.3469
-38.18486	-40.5951	22.3567
-38.1852	-38.1821	22.3665
-38.1842	-41.8035	22.3762
-38.1837	-44.3308	22.386
-38.1842	-44.5606	22.3958
-38.1824	-47.7287	22.4055
-38.1812	-41.6275	22.4153
-38.18	-39.0645	22.425
-38.1788	-39.7877	22.4348
-38.1781	-42.4433	22.44458
-38.1789	-49.0822	22.4543
-38.1766	-47.82375	22.4641
-38.1757	-40.1442	22.4739
-38.17514	-39.2345	22.4836
-38.1741	-40.2582	22.4934
-38.1738	-42.2877	22.5032
-38.1725	-44.6299	22.5129
-38.1719	-45.4653	22.5227
-38.1709	-45.0401	22.5325
-38.1704	-42.3612	22.5422
-38.16972	-37.795	22.552
-38.1684	-40.91486	22.5618
-38.1682	-44.1735	22.5715
-38.1681	-47.2233	22.5813
-38.167	-44.3436	22.5911
-38.1651	-41.3871	22.60083
-38.1647	-41.0823	22.6106
-38.16325	-40.1339	22.6204
-38.1624	-43.6133	22.6301
-38.1617	-44.2286	22.6399
-38.16106	-44.91478	22.6497
-38.1607	-45.3153	22.6594
-38.15958	-40.3068	22.6692
-38.1603	-38.3657	22.679
-38.1574	-42.578	22.6887
-38.1567	-44.0535	22.6985
-38.1561	-46.839	22.7083
-38.155	-43.4167	22.718
-38.1545	-42.0364	22.7278
-38.1548	-42.8057	22.7375
-38.1532	-40.3458	22.7473
-38.1535	-41.065	22.75708
-38.1524	-44.6395	22.7668
-38.1515	-46.5066	22.7766
-38.1504	-43.0235	22.7864
-38.1486	-39.6381	22.7961
-38.15	-39.8932	22.8059
-38.1471	-40.3693	22.8157
-38.147	-43.727	22.8254
-38.1457	-44.8074	22.8352
-38.1451	-44.7354	22.845
-38.144	-43.8742	22.8547
-38.144	-41.321	22.8645
-38.1429	-38.9721	22.8743
-38.1434	-42.4358	22.884
-38.1413	-47.1814	22.8938
-38.1405	-46.147	22.9036
-38.13932	-43.2644	22.91333
-38.1387	-39.128	22.9231
-38.1375	-40.5493	22.9329
-38.1367	-43.8777	22.9426
-38.1362	-44.7705	22.9524
-38.1355	-45.7569	22.9622
-38.1342	-44.4356	22.9719
-38.13464	-40.4245	22.9817
-38.1336	-39.5636	22.9915
-38.1318	-39.3095	23.0012
-38.1316	-46.0481	23.011
-38.1304	-47.7647	23.0208
-38.12991	-45.8128	23.0305
-38.1294	-40.8643	23.0403
-38.12775	-37.5232	23.05
-38.1273	-40.8047	23.0598
-38.126	-43.3872	23.06958
-38.1278	-43.791	23.0793
-38.1251	-48.042	23.0891
-38.1248	-40.7238	23.0989
-38.1231	-40.9515	23.1086
-38.1225	-37.4869	23.1184
-38.1225	-39.8448	23.1282
-38.1214	-48.3406	23.1379
-38.1212	-45.7306	23.1477
-38.11911	-42.874	23.1575
-38.1178	-39.0128	23.1672
-38.1185	-39.42	23.177
-38.1171	-41.5563	23.1868
-38.1164	-42.0583	23.1965
-38.1138	-45.4954	23.2063
-38.1152	-45.5324	23.2161
-38.1131	-43.967	23.22583
-38.1121	-38.8292	23.2356
-38.1121	-38.6327	23.2454
-38.1092	-43.7074	23.2551
-38.1105	-45.8639	23.2649
-38.10899	-44.7324	23.2747
-38.1088	-42.0817	23.2844
-38.1083	-41.5983	23.2942
-38.1073	-39.6706	23.304
-38.10688	-40.8565	23.3137
-38.1049	-42.40757	23.3235
-38.10434	-44.0344	23.3333
-38.1036	-45.34589	23.343
-38.10146	-40.5728	23.3528
-38.1017	-40.0164	23.3625
-38.1016	-40.6449	23.3723
-38.1011	-41.3826	23.38208
-38.1002	-45.9372	23.3918
-38.0993	-43.9554	23.4016
-38.0983	-42.447	23.4114
-38.0976	-44.324	23.4211
-38.0959	-38.8785	23.4309
-38.095	-40.458	23.4407
-38.0941	-42.1835	23.4504
-38.0943	-46.8802	23.4602
-38.0933	-48.386	23.47
-38.0916	-40.567	23.4797
-38.0914	-40.0436	23.4895
-38.091	-39.5985	23.4993
-38.0883	-44.093	23.509
-38.09	-46.1242	23.5188
-38.0895	-44.7519	23.5286
-38.0864	-45.7119	23.53833
-38.08712	-40.5126	23.5481
-38.08569	-39.0558	23.5579
-38.0844	-39.8572	23.5676
-38.0845	-45.899	23.5774
-38.08308	-47.4243	23.5872
-38.0823	-45.218	23.5969
-38.0822	-38.59584	23.6067
-38.0803	-39.73204	23.6165
-38.0802	-42.3714	23.6262
-38.0796	-43.7462	23.636
-38.0794	-46.1781	23.6458
-38.0786	-46.0606	23.6555
-38.0777	-41.5387	23.6653
-38.076	-38.08321	23.675