File: data/processed_data_files/tensile/0.254_solid_dimension_typeiv_090_r(7).dat
MTS793|BTW|ENU|1|2|.|/|:|1|0|0|A

Data Header:			0.254_solid_dimension_typeiv_090_r0			Time:	20.0225	s	4/14/2019 1:53:41 AM
Data Acquisition:	Timed
Station Name:	ft40.cfg
Test File Name:	monotonic_0.2540_typeiv_solid_090_dimension.tst
Displacement	Force	Running Time
mm	N	s
-40.0416	-121.583	0.02734375
-40.0411	-126.9455	0.046875
-40.0412	-123.3342	0.06640625
-40.0395	-121.579	0.0859375
-40.03746	-122.612	0.105469
-40.0357	-122.4	0.125
-40.0354	-116.848	0.144531
-40.0338	-119.535	0.1640625
-40.0309	-121.3112	0.183594
-40.0307	-115.31	0.203125
-40.02824	-113.352	0.222656
-40.027	-115.282	0.2421875
-40.0247	-116.97	0.261719
-40.023	-110.274	0.28125
-40.021	-114.272	0.300781
-40.0206	-112.514	0.3203125
-40.0176	-108.0173	0.339844
-40.016	-107.082	0.359375
-40.0145	-112.397	0.378906
-40.0134	-103.412	0.3984375
-40.0121	-105.7224	0.417969
-40.0104	-107.282	0.4375
-40.0088	-101.607	0.457031
-40.0065	-98.9513	0.4765625
-40.0054	-106.152	0.496094
-40.0033	-98.3161	0.515625
-40.0021	-98.0549	0.535156
-39.9993	-98.8535	0.5546875
-39.9992	-95.8556	0.574219
-39.9977	-91.3266	0.59375
-39.9956	-99.48848	0.613281
-39.9948	-94.4996	0.6328125
-39.993	-90.2833	0.652344
-39.9907	-91.5189	0.671875
-39.9886	-92.4546	0.691406
-39.9874	-86.6414	0.7109375
-39.9862	-88.2771	0.730469
-39.9843	-87.7996	0.75
-39.9813	-85.6005	0.769531
-39.9813	-84.72187	0.7890625
-39.9796	-86.1874	0.808594
-39.9774	-83.0503	0.828125
-39.9767	-80.0774	0.847656
-39.9745	-84.7734	0.8671875
-39.9742	-82.1143	0.886719
-39.9714	-76.4309	0.90625
-39.9691	-77.2385	0.925781
-39.9682	-79.0945	0.9453125
-39.9674	-72.8632	0.964844
-39.9647	-75.4461	0.984375
-39.9627	-75.643	1.00391
-39.9599	-70.6666	1.02344
-39.9595	-69.5983	1.04297
-39.9585	-75.7374	1.0625
-39.9559	-65.7067	1.08203
-39.95385	-67.193	1.10156
-39.9545	-69.961	1.12109
-39.952	-66.5652	1.140625
-39.9496	-60.769	1.16016
-39.9484	-69.56517	1.17969
-39.9465	-62.3831	1.19922
-39.9444	-61.2289	1.21875
-39.9435	-61.8655	1.23828
-39.9418	-60.4506	1.25781
-39.9412	-54.8926	1.27734
-39.9382	-61.0501	1.296875
-39.9362	-58.5614	1.31641
-39.9345	-55.2068	1.33594
-39.933	-54.2988	1.35547
-39.9337	-56.06221	1.375
-39.9301	-50.3624	1.39453
-39.9293	-52.339	1.41406
-39.9275	-53.0083	1.43359
-39.92646	-50.28791	1.453125
-39.9232	-47.9763	1.47266
-39.9219	-49.916	1.49219
-39.9202	-48.7945	1.51172
-39.9188	-43.5003	1.53125
-39.9172	-46.1112	1.55078
-39.9162	-46.3009	1.57031
-39.9136	-40.6709	1.58984
-39.9134	-39.7013	1.609375
-39.9103	-45.255	1.62891
-39.9098	-36.36	1.64844
-39.9087	-38.2606	1.66797
-39.9062	-39.7166	1.6875
-39.9049	-35.111	1.70703
-39.9028	-31.52379	1.72656
-39.901	-40.9582	1.74609
-39.8996	-32.3077	1.765625
-39.8978	-31.86075	1.78516
-39.8956	-33.1915	1.80469
-39.8946	-30.9886	1.82422
-39.8927	-25.307	1.84375
-39.8909	-30.1508	1.86328
-39.8898	-26.7894	1.88281
-39.8879	-24.5957	1.90234
-39.8861	-25.0415	1.921875
-39.8849	-24.5131	1.94141
-39.8836	-18.3041	1.96094
-39.8816	-24.2623	1.98047
-39.8803	-21.9894	2
-39.8785	-17.99403	2.01953
-39.8765	-17.3682	2.03906
-39.8759	-20.1622	2.05859
-39.8735	-16.5998	2.078125
-39.8721	-15.4455	2.09766
-39.8696	-16.4383	2.11719
-39.8697	-15.48077	2.13672
-39.8687	-10.1946	2.15625
-39.8649	-12.436	2.17578
-39.8644	-13.3894	2.19531
-39.86272	-7.47987	2.21484
-39.8605	-9.98059	2.234375
-39.8595	-10.2506	2.25391
-39.8571	-4.27078	2.27344
-39.85585	-3.57269	2.29297
-39.8556	-8.93986	2.3125
-39.8529	-0.805307	2.33203
-39.8506	-2.447278	2.35156
-39.8496	-5.90763	2.37109
-39.8481	0.155153	2.390625
-39.8458	2.91983	2.41016
-39.845	-5.05487	2.42969
-39.8431	2.27654	2.44922
-39.8415	3.59856	2.46875
-39.8389	4.36597	2.48828
-39.8371	3.05955	2.50781
-39.83672	10.1151	2.52734
-39.8338	3.69595	2.546875
-39.8328	5.46326	2.56641
-39.8319	9.09785	2.58594
-39.83	10.49755	2.60547
-39.8283	6.97626	2.625
-39.8255	16.6832	2.64453
-39.82547	12.7473	2.66406
-39.8236	11.38603	2.68359
-39.8206	13.45029	2.703125
-39.8209	17.9533	2.72266
-39.8186	15.7707	2.74219
-39.817	17.7492	2.76172
-39.8152	19.7568	2.78125
-39.8139	18.7629	2.80078
-39.8114	18.9477	2.82031
-39.8089	22.5577	2.83984
-39.8084	23.7449	2.859375
-39.8073	20.5052	2.87891
-39.8051	26.1011	2.89844
-39.8038	27.5306	2.91797
-39.8027	24.035	2.9375
-39.8004	27.9845	2.95703
-39.7986	32.4726	2.97656
-39.79707	25.4824	2.99609
-39.79549	33.4314	3.015625
-39.79451	34.4328	3.03516
-39.794	31.0042	3.05469
-39.7903	35.5961	3.07422
-39.7891	41.0892	3.09375
-39.7874	32.328	3.11328
-39.7866	37.5496	3.13281
-39.7844	41.35408	3.15234
-39.7826	40.8672	3.171875
-39.7815	39.3575	3.19141
-39.7792	45.1187	3.21094
-39.7789	40.5673	3.23047
-39.7768	42.8855	3.25
-39.7751	46.84771	3.26953
-39.7721	48.291	3.28906
-39.7709	44.7408	3.30859
-39.7704	49.3336	3.328125
-39.7677	49.508	3.34766
-39.7668	49.4533	3.36719
-39.7651	47.9362	3.38672
-39.7641	53.8039	3.40625
-39.7617	53.5276	3.42578
-39.759	52.9603	3.44531
-39.7576	56.2484	3.46484
-39.7567	55.6353	3.484375
-39.7555	54.8634	3.50391
-39.7538	61.05545	3.52344
-39.7519	61.7066	3.54297
-39.7498	54.4954	3.5625
-39.7486	63.2956	3.58203
-39.7462	63.9032	3.60156
-39.7439	60.2642	3.62109
-39.7438	62.9141	3.640625
-39.7424	68.57505	3.66016
-39.7408	62.0398	3.67969
-39.7387	68.0328	3.69922
-39.7365	69.0194	3.71875
-39.7354	67.5307	3.73828
-39.7333	67.9864	3.75781
-39.7328	77.9379	3.77734
-39.73	68.5793	3.796875
-39.7283	72.5805	3.81641
-39.7271	75.2516	3.83594
-39.7249	76.7136	3.85547
-39.7231	74.4717	3.875
-39.7227	81.5489	3.89453
-39.7212	76.781	3.91406
-39.7184	77.9416	3.93359
-39.7174	80.3601	3.953125
-39.716	86.1251	3.97266
-39.71463	79.3664	3.99219
-39.7123	83.0942	4.01172
-39.711	86.1899	4.03125
-39.7101	84.9156	4.05078
-39.7074	83.41481	4.07031
-39.7049	89.1729	4.08984
-39.705	89.5085	4.109375
-39.703	86.6578	4.12891
-39.7024	92.1274	4.14844
-39.6992	91.5594	4.16797
-39.6988	88.2828	4.1875
-39.6965	94.0192	4.20703
-39.6943	98.023	4.22656
-39.6939	89.7282	4.24609
-39.6916	96.6154	4.265625
-39.6899	100.065	4.28516
-39.6887	95.9076	4.30469
-39.6862	99.2012	4.32422
-39.6852	104.079	4.34375
-39.6836	96.7157	4.36328
-39.6817	102.49	4.38281
-39.6803	104.898	4.40234
-39.6788	104.002	4.421875
-39.6779	102.823	4.44141
-39.6756	111.258	4.46094
-39.6738	106.05	4.48047
-39.6725	107.066	4.5
-39.6703	109.502	4.51953
-39.6684	112.8614	4.53906
-39.667	109.523	4.55859
-39.66544	113.576	4.578125
-39.6634	112.811	4.59766
-39.6629	113.299	4.61719
-39.6608	116.103	4.63672
-39.6594	119.822	4.65625
-39.6571	115.865	4.67578
-39.6564	116.211	4.69531
-39.6552	119.427	4.71484
-39.6525	122.848	4.734375
-39.6509	119.3	4.75391
-39.6491	124.246	4.77344
-39.6477	126.856	4.79297
-39.64613	122.883	4.8125
-39.6441	125.477	4.83203
-39.6423	127.285	4.85156
-39.6424	124.1	4.87109
-39.6386	128.3287	4.890625
-39.6389	135.325	4.91016
-39.6363	126.638	4.92969
-39.6347	129.666	4.94922
-39.633	135.043	4.96875
-39.6312	133.9079	4.98828
-39.6296	131.6853	5.00781
-39.62764	139.551	5.02734
-39.6274	133.438	5.046875
-39.6247	136.198	5.06641
-39.6244	140.613	5.08594
-39.6226	141.934	5.10547
-39.61911	137.427	5.125
-39.6176	145.254	5.14453
-39.6169	141.09	5.16406
-39.6162	143.3969	5.18359
-39.6148	143.146	5.203125
-39.6128	148.624	5.22266
-39.6098	145.08	5.24219
-39.6077	148.736	5.26172
-39.6068	148.429	5.28125
-39.6056	149.917	5.30078
-39.6046	147.398	5.32031
-39.6026	154.1749	5.33984
-39.6009	152.408	5.359375
-39.5986	149.325	5.37891
-39.5968	154.749	5.39844
-39.595	157.495	5.41797
-39.5943	153.359	5.4375
-39.5932	157.72	5.45703
-39.5915	161.025	5.47656
-39.58905	156.541	5.49609
-39.5868	160.386	5.515625
-39.5859	163.749	5.53516
-39.5847	159.814	5.55469
-39.5828	160.814	5.57422
-39.5808	169.265	5.59375
-39.5795	162.866	5.61328
-39.5782	164.329	5.63281
-39.5758	169.19	5.65234
-39.5742	167.417	5.671875
-39.57233	166.991	5.69141
-39.57077	173.582	5.71094
-39.5704	168.9257	5.73047
-39.5677	171.641	5.75
-39.5667	173.764	5.76953
-39.5646	176.496	5.78906
-39.563	172.25	5.80859
-39.5611	177.653	5.828125
-39.5598	177.866	5.84766
-39.5585	177.5468	5.86719
-39.5572	175.133	5.88672
-39.5541	182.641	5.90625
-39.5541	181.3723	5.92578
-39.5518	181.916	5.94531
-39.5506	183.491	5.96484
-39.5498	184.341	5.984375
-39.546	180.483	6.00391
-39.5454	186.983	6.02344
-39.5438	187.994	6.04297
-39.5427	184.247	6.0625
-39.5402	187.3884	6.08203
-39.5386	191.7	6.10156
-39.5378	187.373	6.12109
-39.5364	190.619	6.140625
-39.5344	196.749	6.16016
-39.5322	190.291	6.17969
-39.5314	194.068	6.19922
-39.5294	198.944	6.21875
-39.52758	194.171	6.23828
-39.5259	194.609	6.25781
-39.5243	203.707	6.27734
-39.5225	198.317	6.296875
-39.5214	197.433	6.31641
-39.5181	200.763	6.33594
-39.5179	203.214	6.35547
-39.516	201.761	6.375
-39.5144	206.944	6.39453
-39.5129	204.728	6.41406
-39.5113	206.054	6.43359
-39.5095	206.649	6.453125
-39.5068	210.962	6.47266
-39.50724	205.851	6.49219
-39.5039	210.158	6.51172
-39.5039	210.768	6.53125
-39.5013	212.536	6.55078
-39.4995	209.198	6.57031
-39.4979	216.2	6.58984
-39.4966	215.445	6.609375
-39.49538	214.429	6.62891
-39.4936	216.973	6.64844
-39.49	217.95	6.66797
-39.4895	214.946	6.6875
-39.4879	220.231	6.70703
-39.4875	222.027	6.72656
-39.4854	216.633	6.74609
-39.483	220.029	6.765625
-39.4817	225.567	6.78516
-39.4812	220.636	6.80469
-39.4795	222.339	6.82422
-39.4768	230.208	6.84375
-39.4753	224.081	6.86328
-39.4742	226.398	6.88281
-39.4722	231.199	6.90234
-39.4714	229.736	6.921875
-39.4692	226.1	6.94141
-39.4665	235.583	6.96094
-39.4651	232.057	6.98047
-39.4641	231.06	7
-39.4618	233.606	7.01953
-39.46	237.97	7.03906
-39.4592	234.286	7.05859
-39.458	240.492	7.078125
-39.4553	239.195	7.09766
-39.454	238.345	7.11719
-39.4522	238.736	7.13672
-39.451	245.453	7.15625
-39.45	242.504	7.17578
-39.4482	242.189	7.19531
-39.4469	245.756	7.21484
-39.4443	246.297	7.234375
-39.4426	241.921	7.25391
-39.4414	250.105	7.27344
-39.4395	248.928	7.29297
-39.4377	246.017	7.3125
-39.4366	250.376	7.33203
-39.4342	254.115	7.35156
-39.4323	246.756	7.37109
-39.4314	251.711	7.390625
-39.4299	258.222	7.41016
-39.4294	251.7083	7.42969
-39.4265	254.03	7.44922
-39.4251	259.113	7.46875
-39.4226	255.57	7.48828
-39.4215	255.103	7.50781
-39.4201	264.3432	7.52734
-39.4185	257.453	7.546875
-39.4173	259.4776	7.56641
-39.4148	264.042	7.58594
-39.4132	263.739	7.60547
-39.4112	258.305	7.625
-39.4107	268.482	7.64453
-39.4083	266.404	7.66406
-39.4065	266.203	7.68359
-39.405	266.319	7.703125
-39.4033	269.519	7.72266
-39.4021	268.072	7.74219
-39.40089	270.886	7.76172
-39.3996	271.761	7.78125
-39.3976	271.11	7.80078
-39.3951	269.705	7.82031
-39.3949	277.87	7.83984
-39.3915	275.0506	7.859375
-39.3902	273.772	7.87891
-39.38961	276.1123	7.89844
-39.3865	281.024	7.91797
-39.3855	275.982	7.9375
-39.3844	279.142	7.95703
-39.3829	282.29	7.97656
-39.3803	278.844	7.99609
-39.3794	281.475	8.015625
-39.3779	286.684	8.03516
-39.37595	280.432	8.05469
-39.3751	281.552	8.07422
-39.3728	289.7413	8.09375
-39.3706	286.039	8.11328
-39.37	285.46	8.13281
-39.3674	291.54	8.15234
-39.3675	289.294	8.171875
-39.3654	287.763	8.19141
-39.3636	294.971	8.21094
-39.3616	291.031	8.23047
-39.3597	290.256	8.25
-39.3576	294.619	8.26953
-39.3567	296.219	8.28906
-39.3554	292.667	8.30859
-39.3544	296.578	8.328125
-39.3509	297.5611	8.34766
-39.3498	298.115	8.36719
-39.3495	296.252	8.38672
-39.3468	302.487	8.40625
-39.345	297.97	8.42578
-39.3442	303.137	8.44531
-39.3417	302.923	8.46484
-39.3403	304.657	8.484375
-39.3393	299.428	8.50391
-39.33704	307.936	8.52344
-39.3358	308.128	8.54297
-39.3336	303.918	8.5625
-39.3327	306.4249	8.58203
-39.3307	311.008	8.60156
-39.3287	306.938	8.62109
-39.3285	310.205	8.640625
-39.3258	314.226	8.66016
-39.3243	308.843	8.67969
-39.3224	311.016	8.69922
-39.3207	318.717	8.71875
-39.3183	312.011	8.73828
-39.3174	313.235	8.75781
-39.3158	323.316	8.77734
-39.315	317.024	8.796875
-39.3124	316.752	8.81641
-39.3107	321.121	8.83594
-39.308	320.8046	8.85547
-39.3085	318.334	8.875
-39.3065	327.042	8.89453
-39.3047	322.703	8.91406
-39.3022	320.827	8.93359
-39.3014	322.478	8.953125
-39.3009	331.282	8.97266
-39.2973	324.529	8.99219
-39.2972	326.794	9.01172
-39.2943	329.258	9.03125
-39.2934	329.557	9.05078
-39.2917	326.147	9.07031
-39.2898	334.679	9.08984
-39.28952	330.537	9.109375
-39.2872	331.953	9.12891
-39.2849	333.3219	9.14844
-39.2837	335.996	9.16797
-39.2821	330.633	9.1875
-39.279	336.446	9.20703
-39.2782	339.075	9.22656
-39.2766	334.936	9.24609
-39.2745	335.792	9.265625
-39.2739	342.622	9.28516
-39.2723	336.374	9.30469
-39.2703	339.434	9.32422
-39.2688	345.414	9.34375
-39.2669	339.482	9.36328
-39.2658	340.394	9.38281
-39.2635	350.565	9.40234
-39.2616	344.212	9.421875
-39.2589	342.256	9.44141
-39.2584	352.15	9.46094
-39.2573	347.664	9.48047
-39.2551	346.084	9.5
-39.2539	348.326	9.51953
-39.2523	351.906	9.53906
-39.2506	348.27	9.55859
-39.2491	353.893	9.578125
-39.2478	353.417	9.59766
-39.2465	350.496	9.61719
-39.2437	351.056	9.63672
-39.2439	357.979	9.65625
-39.24152	353.37	9.67578
-39.2392	354.654	9.69531
-39.23867	356.51	9.71484
-39.2352	358.204	9.734375
-39.2349	353.955	9.75391
-39.2327	361.592	9.77344
-39.231	361.733	9.79297
-39.2298	359.906	9.8125
-39.2281	362.384	9.83203
-39.2272	366.788	9.85156
-39.2253	358.35	9.87109
-39.22197	365.037	9.890625
-39.2219	369.919	9.91016
-39.2203	364.76	9.92969
-39.2182	363.5575	9.94922
-39.217	372.824	9.96875
-39.2147	367.196	9.98828
-39.2129	367.098	10.0078
-39.2126	374.464	10.0273
-39.2103	369.384	10.0469
-39.2083	369.44	10.0664
-39.2076	375.5105	10.0859
-39.2058	374.213	10.1055
-39.2041	369.9003	10.125
-39.2027	376.824	10.1445
-39.2004	376.8129	10.1641
-39.1982	375.346	10.1836
-39.1974	377.3924	10.2031
-39.1958	381.168	10.2227
-39.19495	375.927	10.2422
-39.1927	382.514	10.2617
-39.19	383.165	10.28125
-39.1884	381.359	10.3008
-39.1875	379.604	10.3203
-39.1866	386.482	10.3398
-39.1848	385.244	10.3594
-39.1827	383.271	10.3789
-39.1801	385.723	10.3984
-39.1784	389.394	10.418
-39.1786	382.655	10.4375
-39.1764	389.176	10.457
-39.1741	391.5397	10.4766
-39.1729	386.825	10.4961
-39.1704	390.177	10.5156
-39.1685	395.219	10.5352
-39.1678	388.416	10.5547
-39.16642	390.7251	10.5742
-39.1634	398.856	10.59375
-39.16264	392.219	10.6133
-39.1609	392.221	10.6328
-39.1598	398.793	10.6523
-39.1589	396.625	10.6719
-39.157	392.381	10.6914
-39.1548	401.916	10.7109
-39.15295	399.396	10.7305
-39.1517	394.11	10.75
-39.1501	401.954	10.7695
-39.1478	404.6564	10.7891
-39.1463	396.934	10.8086
-39.1452	402.384	10.8281
-39.143	404.002	10.8477
-39.1414	403.026	10.8672
-39.1406	402.1395	10.8867
-39.1391	407.799	10.90625
-39.1364	403.459	10.9258
-39.1365	406.46	10.9453
-39.1333	408.585	10.9648
-39.1322	408.736	10.9844
-39.1304	403.979	11.0039
-39.1289	412.438	11.0234
-39.1264	413.002	11.043
-39.1262	407.969	11.0625
-39.1244	409.489	11.082
-39.1221	416.592	11.1016
-39.1213	408.219	11.1211
-39.1181	414.04	11.1406
-39.1182	417.655	11.1602
-39.1149	411.911	11.1797
-39.1143	412.617	11.1992
-39.11256	422.142	11.21875
-39.111	414.022	11.2383
-39.1097	412.265	11.2578
-39.1069	422.529	11.2773
-39.1056	417.88	11.2969
-39.1032	414.503	11.3164
-39.1031	422.5058	11.3359
-39.1023	421.133	11.3555
-39.101	417.1839	11.375
-39.0975	424.22	11.3945
-39.0955	423.373	11.4141
-39.095	420.315	11.4336
-39.0937	424.85	11.4531
-39.0915	427.92	11.4727
-39.0906	421.5379	11.4922
-39.0875	425.912	11.5117
-39.0866	427.37	11.53125
-39.0846	426.705	11.5508
-39.083	425.329	11.5703
-39.0819	431.346	11.5898
-39.0793	427.254	11.6094
-39.0788	428.158	11.6289
-39.0764	431.989	11.6484
-39.0753	432.928	11.668
-39.07328	427.116	11.6875
-39.0722	433.892	11.707
-39.0707	435.704	11.7266
-39.0691	431.941	11.7461
-39.06691	431.7735	11.7656
-39.0643	438.358	11.7852
-39.0646	431.42	11.8047
-39.0616	434.958	11.8242
-39.0611	440.739	11.84375
-39.0591	435.003	11.8633
-39.0567	434.055	11.8828
-39.0558	443.099	11.9023
-39.053	438.165	11.9219
-39.0533	433.771	11.9414
-39.0517	443.088	11.9609
-39.04855	442.147	11.9805
-39.0469	437.57	12
-39.046	443.396	12.0195
-39.0445	444.421	12.0391
-39.0425	438.315	12.0586
-39.041	445.053	12.0781
-39.0398	445.567	12.0977
-39.0362	440.83	12.1172
-39.0361	443.431	12.1367
-39.0346	448.552	12.15625
-39.0333	443.337	12.1758
-39.0317	445.807	12.1953
-39.03014	446.579	12.2148
-39.0276	449.522	12.2344
-39.026	443.819	12.2539
-39.0243	450.006	12.2734
-39.0237	449.9516	12.293
-39.0222	446.196	12.3125
-39.0198	450.139	12.332
-39.01762	454.813	12.3516
-39.01606	445.57	12.3711
-39.0147	450.343	12.3906
-39.0132	453.693	12.4102
-39.012	450.294	12.4297
-39.01	449.982	12.4492
-39.0083	456.132	12.46875
-39.0069	450.447	12.4883
-39.0038	451.316	12.5078
-39.0031	457.418	12.5273
-39.0022	452.051	12.5469
-39.0006	451.246	12.5664
-38.9991	457.987	12.5859
-38.9975	456.044	12.6055
-38.9953	451.178	12.625
-38.9936	459.136	12.6445
-38.9927	457.001	12.6641
-38.9893	454.016	12.6836
-38.989	456.782	12.7031
-38.9872	461.558	12.7227
-38.9851	453.756	12.7422
-38.9845	458.156	12.7617
-38.9823	459.893	12.78125
-38.9803	457.645	12.8008
-38.9794	454.814	12.8203
-38.9771	464.281	12.8398
-38.9757	459.957	12.8594
-38.9744	458.3428	12.8789
-38.9719	460.65	12.8984
-38.9707	460.964	12.918
-38.9695	456.104	12.9375
-38.96685	463.874	12.957
-38.9668	463.4967	12.9766
-38.9635	459.239	12.9961
-38.9616	459.512	13.0156
-38.96077	467.987	13.0352
-38.95966	458.765	13.0547
-38.9577	460.229	13.0742
-38.9568	467.8302	13.09375
-38.9534	463	13.1133
-38.9527	458.8642	13.1328
-38.9512	467.667	13.1523
-38.9501	463.672	13.1719
-38.9484	459.123	13.1914
-38.9456	469.572	13.2109
-38.9445	465.966	13.2305
-38.9438	461.598	13.25
-38.9422	467.377	13.2695
-38.9398	467.896	13.2891
-38.9381	460.787	13.3086
-38.9374	466.545	13.3281
-38.9358	467.971	13.3477
-38.9328	464.353	13.3672
-38.9318	464.974	13.3867
-38.9296	470.0405	13.40625
-38.9291	464.666	13.4258
-38.9271	467.763	13.4453
-38.9263	469.532	13.4648
-38.9236	468.8855	13.4844
-38.9215	461.794	13.5039
-38.9205	469.712	13.5234
-38.9186	470.047	13.543
-38.91753	464.739	13.5625
-38.9157	465.946	13.582
-38.9131	471.669	13.6016
-38.9131	462.782	13.6211
-38.90995	469.3736	13.6406
-38.91	471.411	13.6602
-38.9085	466.602	13.6797
-38.9073	465.265	13.6992
-38.9045	472.255	13.71875
-38.9022	465.806	13.7383
-38.9017	464.9711	13.7578
-38.8993	471.639	13.7773
-38.8973	468.2139	13.7969
-38.8956	462.955	13.8164
-38.8946	470.028	13.8359
-38.8926	467.3374	13.8555
-38.891	464.2301	13.875
-38.8901	471.019	13.8945
-38.8891	468.8541	13.9141
-38.8862	465.003	13.9336
-38.8839	468.047	13.9531
-38.88295	471.043	13.9727
-38.8811	465.296	13.9922
-38.8806	468.116	14.0117
-38.87867	469.135	14.03125
-38.8764	466.762	14.0508
-38.8763	464.056	14.0703
-38.8722	471.505	14.0898
-38.8724	467.213	14.1094
-38.8701	465.095	14.1289
-38.8678	468.7941	14.1484
-38.8663	470.786	14.168
-38.8657	462.958	14.1875
-38.8637	469.117	14.207
-38.8624	470.807	14.2266
-38.8602	466.926	14.2461
-38.8599	466.468	14.2656
-38.8571	471.674	14.2852
-38.8559	464.488	14.3047
-38.8543	467.853	14.3242
-38.8517	472.063	14.34375
-38.8503	466.67	14.3633
-38.8488	463.653	14.3828
-38.8466	472.438	14.4023
-38.8457	466.386	14.4219
-38.8449	462.502	14.4414
-38.8431	470.672	14.4609
-38.84111	467.422	14.4805
-38.8399	463.504	14.5
-38.838	468.068	14.5195
-38.8359	468.818	14.5391
-38.834	460.506	14.5586
-38.833	469.008	14.5781
-38.8306	467.031	14.5977
-38.8292	464.449	14.6172
-38.8276	463.804	14.6367
-38.8258	470.974	14.65625
-38.82391	466.382	14.6758
-38.8235	465.989	14.6953
-38.8214	467.3	14.7148
-38.8202	468.117	14.7344
-38.8175	463.4473	14.7539
-38.8156	470.012	14.7734
-38.8152	466.471	14.793
-38.8127	463.872	14.8125
-38.81094	464.523	14.832
-38.8104	468.799	14.8516
-38.8089	461.7117	14.8711
-38.8059	465.238	14.8906
-38.8047	468.749	14.9102
-38.804	463.18	14.9297
-38.8006	460.327	14.9492
-38.7996	469.793	14.96875
-38.7993	461.245	14.9883
-38.7963	462.8967	15.0078
-38.7943	466.802	15.0273
-38.7935	462.234	15.0469
-38.7917	459.503	15.0664
-38.7913	466.504	15.0859
-38.7897	463.504	15.1055
-38.787	459.204	15.125
-38.7849	467.397	15.1445
-38.783	464.772	15.1641
-38.7827	458.987	15.1836
-38.7811	462.121	15.2031
-38.7789	465.113	15.2227
-38.7759	457.511	15.2422
-38.776	463.691	15.2617
-38.7745	463.864	15.28125
-38.7723	461.362	15.3008
-38.7718	457.2746	15.3203
-38.7695	466.078	15.3398
-38.7675	462.757	15.3594
-38.766	460.908	15.3789
-38.7643	460.7359	15.3984
-38.7626	464.235	15.418
-38.7611	456.54	15.4375
-38.759	462.669	15.457
-38.7573	463.144	15.4766
-38.7561	457.918	15.4961
-38.7539	458.707	15.5156
-38.7529	464.786	15.5352
-38.7513	458.1507	15.5547
-38.7499	458.0849	15.5742
-38.7484	464.053	15.59375
-38.746	458.971	15.6133
-38.7458	455.577	15.6328
-38.7421	461.988	15.6523
-38.7419	457.311	15.6719
-38.7393	454.478	15.6914
-38.738	462.893	15.7109
-38.7369	457.295	15.7305
-38.7343	451.235	15.75
-38.7328	458.723	15.7695
-38.7316	461.304	15.7891
-38.7306	453.738	15.8086
-38.7289	460.08	15.8281
-38.7268	459.101	15.8477
-38.7259	455.477	15.8672
-38.7235	456.05	15.8867
-38.7224	460.373	15.90625
-38.7207	454.068	15.9258
-38.7187	457.698	15.9453
-38.7169	457.945	15.9648
-38.7158	457.87	15.9844
-38.7135	451.35	16.0039
-38.7123	459.911	16.0234
-38.7102	457.733	16.043
-38.7089	455.201	16.0625
-38.7074	454.572	16.082
-38.7053	459.3342	16.1016
-38.7049	451.045	16.1211
-38.703	455.777	16.1406
-38.6996	458.872	16.1602
-38.69931	454.499	16.1797
-38.6979	451.559	16.1992
-38.6962	460.4646	16.21875
-38.6944	453.093	16.2383
-38.6929	452.04	16.2578
-38.6903	458.07	16.2773
-38.6895	454.952	16.2969
-38.6873	451.804	16.3164
-38.6862	456.985	16.3359
-38.6852	454.488	16.3555
-38.6822	449.8895	16.375
-38.6814	457.225	16.3945
-38.68	455.822	16.4141
-38.6786	450.498	16.4336
-38.6774	453.834	16.4531
-38.6741	458.261	16.4727
-38.6732	450.32	16.4922
-38.6716	454.561	16.5117
-38.6694	454.182	16.53125
-38.6677	453.1235	16.5508
-38.6661	450.536	16.5703
-38.6656	456.618	16.5898
-38.66415	451.833	16.6094
-38.6616	451.9324	16.6289
-38.6596	454.3511	16.6484
-38.6586	455.81	16.668
-38.6574	445.284	16.6875
-38.6557	454.327	16.707
-38.6545	457.721	16.7266
-38.6519	451.5835	16.7461
-38.6501	450.319	16.7656
-38.6471	456.876	16.7852
-38.6474	450	16.8047
-38.6451	453.514	16.8242
-38.644	455.612	16.84375
-38.64225	450.726	16.8633
-38.6404	446.056	16.8828
-38.6376	457.6969	16.9023
-38.6378	451.174	16.9219
-38.6353	447.53	16.9414
-38.6333	455.0488	16.9609
-38.6316	452.608	16.9805
-38.6309	447.349	17
-38.6297	452.52	17.0195
-38.6276	452.506	17.0391
-38.6256	447.885	17.0586
-38.624	453.668	17.0781
-38.6219	453.01	17.0977
-38.6208	447.685	17.1172
-38.6195	450.236	17.1367
-38.6183	455.359	17.15625
-38.616	447.752	17.1758
-38.6153	448.573	17.1953
-38.6138	452.245	17.2148
-38.6118	451.797	17.2344
-38.6094	446.144	17.2539
-38.6087	452.669	17.2734
-38.6066	450.403	17.293
-38.6039	448.371	17.3125
-38.6034	449.582	17.332
-38.6012	454.069	17.3516
-38.5996	446.588	17.3711
-38.5995	451.2334	17.3906
-38.5969	454.633	17.4102
-38.5951	448.091	17.4297
-38.5937	447.083	17.4492
-38.5914	453.591	17.46875
-38.5901	447.786	17.4883
-38.589	446.44	17.5078
-38.5871	453.24	17.5273
-38.5853	449.759	17.5469
-38.5832	444.579	17.5664
-38.5822	453.419	17.5859
-38.5801	450.616	17.6055
-38.5788	446.481	17.625
-38.577	451.522	17.6445
-38.5752	450.821	17.6641
-38.57468	446.243	17.6836
-38.5731	448.687	17.7031
-38.5702	450.966	17.7227
-38.5696	445.118	17.7422
-38.5675	449.707	17.7617
-38.5656	450.684	17.78125
-38.5641	446.979	17.8008
-38.5623	445.1467	17.8203
-38.5597	453.492	17.8398
-38.559	447.884	17.8594
-38.5572	448.222	17.8789
-38.5557	447.704	17.8984
-38.5537	449.787	17.918
-38.5532	444.632	17.9375
-38.5515	450.24	17.957
-38.5493	450.651	17.9766
-38.5472	445.471	17.9961
-38.5453	446.396	18.0156
-38.5436	452.968	18.0352
-38.5415	443.722	18.0547
-38.5405	444.587	18.0742
-38.5398	452.529	18.09375
-38.5378	447	18.1133
-38.536	443.604	18.1328
-38.5348	452.626	18.1523
-38.5326	446.781	18.1719
-38.53101	444.819	18.1914
-38.5305	452.46	18.2109
-38.5292	447.661	18.2305
-38.5264	443.454	18.25
-38.5243	450.68	18.2695
-38.5226	450.36	18.2891
-38.5227	443.504	18.3086
-38.5195	448.479	18.3281
-38.51897	448.702	18.3477
-38.5172	447.452	18.3672
-38.5146	445.397	18.3867
-38.5123	451.891	18.40625
-38.51252	444.34	18.4258
-38.5094	447.48	18.4453
-38.5089	447.672	18.4648
-38.507	447.793	18.4844
-38.50473	441.511	18.5039
-38.5034	451.446	18.5234
-38.5012	449.648	18.543
-38.501	444.914	18.5625
-38.4992	446.255	18.582
-38.4977	450.327	18.6016
-38.49538	444.378	18.6211
-38.4929	449.362	18.6406
-38.4919	450.784	18.6602
-38.4913	445.554	18.6797
-38.4892	443.633	18.6992
-38.4881	453.001	18.71875
-38.4851	443.492	18.7383
-38.4833	444.072	18.7578
-38.482	451.269	18.7773
-38.4812	448.153	18.7969
-38.4801	442.76	18.8164
-38.478	449.779	18.8359
-38.4757	447.602	18.8555
-38.474	442.3092	18.875
-38.4734	450.909	18.8945
-38.4715	448.146	18.9141
-38.47	442.022	18.9336
-38.467	447.559	18.9531
-38.468	450.9743	18.9727
-38.465	444.701	18.9922
-38.46352	447.296	19.0117
-38.4619	448.072	19.03125
-38.4596	448.08	19.0508
-38.4579	444.373	19.0703
-38.4576	451.0506	19.0898
-38.4549	446.145	19.1094
-38.4537	445.798	19.1289
-38.453	448.623	19.1484
-38.45	450.919	19.168
-38.4485	441.144	19.1875
-38.4476	448.248	19.207
-38.4445	452.088	19.2266
-38.4437	446.1564	19.2461
-38.4421	445.012	19.2656
-38.44062	450.617	19.2852
-38.4393	442.353	19.3047
-38.4371	446.546	19.3242
-38.4343	451.08	19.34375
-38.4336	445.289	19.3633
-38.4313	441.838	19.3828
-38.4308	452.164	19.4023
-38.4285	446.027	19.4219
-38.4268	441.22	19.4414
-38.4256	449.404	19.4609
-38.4247	447.4873	19.4805
-38.4223	442.698	19.5
-38.4213	446.104	19.5195
-38.4196	446.641	19.5391
-38.41737	442.193	19.5586
-38.41552	447.393	19.5781
-38.4135	448.452	19.5977
-38.4122	442.464	19.6172
-38.4114	447.034	19.6367
-38.4103	450.898	19.65625
-38.4076	443.799	19.6758
-38.406	446.77	19.6953
-38.4045	446.3624	19.7148
-38.4025	448.676	19.7344
-38.40202	441.551	19.7539
-38.4002	448.993	19.7734
-38.3983	447.384	19.793
-38.3979	443.117	19.8125
-38.3946	445.455	19.832
-38.393	450.133	19.8516
-38.3917	441.464	19.8711
-38.3905	444.534	19.8906
-38.3885	449.985	19.9102
-38.3859	445.273	19.9297
-38.3858	441.827	19.9492
-38.383	449.702	19.96875
-38.3812	443.471	19.9883
-38.3794	441.238	20.0078
-38.3794	447.478	20.0176

Data Header:			0.254_solid_dimension_typeiv_090_r0			Time:	35.04248	s	4/14/2019 1:53:56 AM
Data Acquisition:	Timed
Station Name:	ft40.cfg
Test File Name:	monotonic_0.2540_typeiv_solid_090_dimension.tst
Displacement	Force	Running Time
mm	N	s
-38.3788	448.854	20.0273
-38.3768	444.938	20.0469
-38.3745	439.455	20.0664
-38.374	449.14	20.0859
-38.3729	444.774	20.1055
-38.3709	440.936	20.125
-38.3697	447.453	20.1445
-38.3664	445.942	20.1641
-38.365	442.309	20.1836
-38.3639	444.466	20.2031
-38.3611	446.58	20.2227
-38.36121	441.094	20.2422
-38.3583	443.901	20.2617
-38.3575	448.507	20.28125
-38.3558	443.236	20.3008
-38.3542	441.785	20.3203
-38.3518	449.571	20.3398
-38.3501	444.832	20.3594
-38.34956	443.984	20.3789
-38.3467	443.834	20.3984
-38.3466	448.1748	20.418
-38.34375	440.3642	20.4375
-38.3425	447.892	20.457
-38.3418	447.384	20.4766
-38.3406	442.68	20.4961
-38.3384	443.207	20.5156
-38.3358	450.454	20.5352
-38.3352	442.128	20.5547
-38.3323	443.388	20.5742
-38.33139	449.528	20.59375
-38.3302	444.525	20.6133
-38.3292	441.564	20.6328
-38.3269	448.993	20.6523
-38.325	445.107	20.6719
-38.32238	441.789	20.6914
-38.3216	448.983	20.7109
-38.3196	444.851	20.7305
-38.3189	440.007	20.75
-38.3166	447.983	20.7695
-38.3155	447.382	20.7891
-38.3128	439.273	20.8086
-38.3117	446.246	20.8281
-38.3107	446.613	20.8477
-38.3083	443.322	20.8672
-38.3072	443.37	20.8867
-38.3062	447.618	20.90625
-38.3039	443.1102	20.9258
-38.3023	444.605	20.9453
-38.3002	447.177	20.9648
-38.2995	446.871	20.9844
-38.2972	438.101	21.0039
-38.2952	447.753	21.0234
-38.29398	446.884	21.043
-38.2929	442.242	21.0625
-38.2898	443.981	21.082
-38.2897	448.4837	21.1016
-38.28685	439.7713	21.1211
-38.286	446.107	21.1406
-38.2841	447.593	21.1602
-38.2831	443.698	21.1797
-38.2808	442.4884	21.1992
-38.2789	449.388	21.21875
-38.2785	442.178	21.2383
-38.2766	440.932	21.2578
-38.2747	448.456	21.2773
-38.2728	444.4278	21.2969
-38.2708	438.226	21.3164
-38.2699	447.06	21.3359
-38.2682	444.383	21.3555
-38.2669	440.231	21.375
-38.2648	449.5824	21.3945
-38.2635	445.058	21.4141
-38.26207	440.449	21.4336
-38.2603	443.549	21.4531
-38.2577	447.806	21.4727
-38.2575	440.6351	21.4922
-38.2547	445.214	21.5117
-38.253	445.183	21.53125
-38.252	443.884	21.5508
-38.2496	442.071	21.5703
-38.2484	447.239	21.5898
-38.24678	443.919	21.6094
-38.2457	442.244	21.6289
-38.2427	445.918	21.6484
-38.2424	446.902	21.668
-38.2407	438.738	21.6875
-38.2396	446.269	21.707
-38.2374	447.886	21.7266
-38.235	443.887	21.7461
-38.2332	441.313	21.7656
-38.2314	447.369	21.7852
-38.2301	438.911	21.8047
-38.2289	444.095	21.8242
-38.2281	449.081	21.84375
-38.2252	441.977	21.8633
-38.2236	438.349	21.8828
-38.2222	447.9841	21.9023
-38.2212	441.533	21.9219
-38.21822	439.438	21.9414
-38.2173	446.759	21.9609
-38.2158	446	21.9805
-38.2132	437.8027	22
-38.2128	445.151	22.0195
-38.2109	444.751	22.0391
-38.2089	440.021	22.0586
-38.2081	446.11	22.0781
-38.2069	445.483	22.0977
-38.2046	440.675	22.1172
-38.2029	442.498	22.1367
-38.2002	448.55	22.15625
-38.20026	442.54	22.1758
-38.199	442.0437	22.1953
-38.1963	445.486	22.2148
-38.1946	445.785	22.2344
-38.194	440.082	22.2539
-38.191	446.296	22.2734
-38.19001	443.132	22.293
-38.1876	440.888	22.3125
-38.1867	444.2301	22.332
-38.1843	451.12	22.3516
-38.1828	438.928	22.3711
-38.1813	443.461	22.3906
-38.1807	448.014	22.4102
-38.178	443.497	22.4297
-38.1769	441.361	22.4492
-38.1751	450.032	22.46875
-38.1739	441.36	22.4883
-38.17189	442.788	22.5078
-38.17	448.047	22.5273
-38.1695	443.5123	22.5469
-38.1673	440.1853	22.5664
-38.1648	448.339	22.5859
-38.1632	444.0737	22.6055
-38.1626	439.17	22.625
-38.1595	446.175	22.6445
-38.1588	445.475	22.6641
-38.1574	440.8	22.6836
-38.1554	443.292	22.7031
-38.1535	445.495	22.7227
-38.1526	439.715	22.7422
-38.1505	445.701	22.7617
-38.1498	445.402	22.78125
-38.1471	442.337	22.8008
-38.14703	440.53	22.8203
-38.1444	446.789	22.8398
-38.14233	443.036	22.8594
-38.1413	441.389	22.8789
-38.1386	443.348	22.8984
-38.1382	445.524	22.918
-38.1361	439.594	22.9375
-38.1337	445.52	22.957
-38.13237	447.401	22.9766
-38.1321	441.57	22.9961
-38.13018	443.283	23.0156
-38.1285	448.771	23.0352
-38.1264	440.285	23.0547
-38.1251	441.34	23.0742
-38.1226	448.297	23.09375
-38.1208	444.991	23.1133
-38.1188	439.098	23.1328
-38.11739	447.154	23.1523
-38.1169	441.726	23.1719
-38.114	440.282	23.1914
-38.1127	448.121	23.2109
-38.1121	444.121	23.2305
-38.1102	439.1131	23.25
-38.1074	446.185	23.2695
-38.10733	447.112	23.2891
-38.1054	439.269	23.3086
-38.1031	443.645	23.3281
-38.1014	444.162	23.3477
-38.09972	441.703	23.3672
-38.0981	442.676	23.3867
-38.0962	446.417	23.40625
-38.09428	441.258	23.4258
-38.0949	443.332	23.4453
-38.0927	445.32	23.4648
-38.0898	444.195	23.4844
-38.08873	439.044	23.5039
-38.0871	446.664	23.5234
-38.0848	445.987	23.543
-38.0832	441.3902	23.5625
-38.0832	441.336	23.582
-38.0804	448.4	23.6016
-38.0802	439.821	23.6211
-38.0778	445.9668	23.6406
-38.0755	444.935	23.6602
-38.0739	441.975	23.6797
-38.0723	439.389	23.6992
-38.0712	448.765	23.71875
-38.0679	439.294	23.7383
-38.0681	440.06	23.7578
-38.0664	447.373	23.7773
-38.0644	442.938	23.7969
-38.06258	437.977	23.8164
-38.0606	446.209	23.8359
-38.0597	443.287	23.8555
-38.0592	438.749	23.875
-38.0569	446.739	23.8945
-38.0548	444.536	23.9141
-38.0527	438.626	23.9336
-38.051	442.8605	23.9531
-38.0492	447.683	23.9727
-38.0483	438.1431	23.9922
-38.0466	441.688	24.0117
-38.0449	444.825	24.03125
-38.0436	442.756	24.0508
-38.0421	441.116	24.0703
-38.03978	446.346	24.0898
-38.0384	441.318	24.1094
-38.0374	441.763	24.1289
-38.0355	443.1731	24.1484
-38.034	445.462	24.168
-38.0317	437.995	24.1875
-38.0302	445.737	24.207
-38.0287	446.544	24.2266
-38.0268	440.682	24.2461
-38.0248	440.6655	24.2656
-38.022	447.219	24.2852
-38.0218	438.623	24.3047
-38.0201	441.816	24.3242
-38.0181	444.961	24.34375
-38.0165	441.043	24.3633
-38.0156	438.999	24.3828
-38.0144	447.544	24.4023
-38.0124	442.156	24.4219
-38.0112	437.81	24.4414
-38.0082	445.634	24.4609
-38.0076	445.075	24.4805
-38.006	437.654	24.5
-38.0042	444.121	24.5195
-38.0029	443.485	24.5391
-38.0008	437.893	24.5586
-37.9991	445.4848	24.5781
-37.9964	445.216	24.5977
-37.99725	440.199	24.6172
-37.9949	442.029	24.6367
-37.993	447.466	24.65625
-37.9904	442.56	24.6758
-37.9895	443.525	24.6953
-37.9877	444.156	24.7148
-37.9859	444.416	24.7344
-37.9858	439.612	24.7539
-37.9834	444.9993	24.7734
-37.9814	443.31	24.793
-37.97916	438.694	24.8125
-37.978	441.802	24.832
-37.9763	446.7897	24.8516
-37.9755	436.533	24.8711
-37.9725	442.959	24.8906
-37.971	446.251	24.9102
-37.9701	442.0097	24.9297
-37.9682	438.993	24.9492
-37.9665	448.877	24.96875
-37.9658	439.68	24.9883
-37.9628	440.331	25.0078
-37.96233	447.419	25.0273
-37.9606	441.175	25.0469
-37.9585	438.232	25.0664
-37.95726	447.079	25.0859
-37.9547	444.158	25.1055
-37.953	437.143	25.125
-37.9515	445.172	25.1445
-37.95108	445.213	25.1641
-37.9485	439.578	25.1836
-37.94706	443.007	25.2031
-37.9454	445.29	25.2227
-37.9442	437.875	25.2422
-37.9425	443.601	25.2617
-37.9408	445.024	25.28125
-37.9395	441.543	25.3008
-37.9378	438.752	25.3203
-37.936	445.826	25.3398
-37.935	441.018	25.3594
-37.9322	441.955	25.3789
-37.9315	443.05	25.3984
-37.9289	446.07	25.418
-37.9277	437.513	25.4375
-37.9269	444.7822	25.457
-37.9244	444.063	25.4766
-37.9226	440.658	25.4961
-37.9205	440.09	25.5156
-37.9204	448.481	25.5352
-37.9181	438.719	25.5547
-37.9158	440.469	25.5742
-37.9144	447.691	25.59375
-37.9132	442.522	25.6133
-37.9121	437.733	25.6328
-37.90897	445.715	25.6523
-37.909	441.062	25.6719
-37.9069	438.289	25.6914
-37.9051	446.14	25.7109
-37.9037	442.198	25.7305
-37.9018	437.3269	25.75
-37.8995	445.299	25.7695
-37.8992	445.264	25.7891
-37.8956	436.059	25.8086
-37.895	443.212	25.8281
-37.8935	444.578	25.8477
-37.89193	441.111	25.8672
-37.8903	440.871	25.8867
-37.8882	447.611	25.90625
-37.8857	439.135	25.9258
-37.8855	440.281	25.9453
-37.8837	442.625	25.9648
-37.8819	441.885	25.9844
-37.88113	436.194	26.0039
-37.8793	443.5199	26.0234
-37.8784	444.388	26.043
-37.8762	440.701	26.0625
-37.8744	440.432	26.082
-37.87318	443.839	26.1016
-37.8709	438.37	26.1211
-37.8684	443.745	26.1406
-37.8669	444.956	26.1602
-37.8658	439.9816	26.1797
-37.8649	438.6564	26.1992
-37.8619	447.92	26.21875
-37.8608	438.67	26.2383
-37.8587	438.5192	26.2578
-37.8583	444.893	26.2773
-37.8561	442.913	26.2969
-37.8535	438.435	26.3164
-37.8535	444.498	26.3359
-37.8513	442.337	26.3555
-37.8503	438.009	26.375
-37.8484	445.7294	26.3945
-37.84655	442.552	26.4141
-37.8447	437.264	26.4336
-37.843	441.91	26.4531
-37.8418	444.675	26.4727
-37.8406	438.917	26.4922
-37.83812	440.944	26.5117
-37.8364	443.1489	26.53125
-37.8349	441.301	26.5508
-37.834	438.271	26.5703
-37.8314	444.682	26.5898
-37.8306	441.847	26.6094
-37.8291	440.499	26.6289
-37.8269	441.438	26.6484
-37.8249	444.986	26.668
-37.8228	434.89	26.6875
-37.82214	443.395	26.707
-37.8209	444.543	26.7266
-37.8184	439.931	26.7461
-37.8177	439.481	26.7656
-37.81599	445.689	26.7852
-37.8129	437.041	26.8047
-37.8126	439.985	26.8242
-37.81	445.738	26.84375
-37.8095	439.5914	26.8633
-37.8068	435.558	26.8828
-37.8051	446.799	26.9023
-37.8034	439.936	26.9219
-37.8019	435.8551	26.9414
-37.80093	444.418	26.9609
-37.7983	443.885	26.9805
-37.7985	435.346	27
-37.7961	443.649	27.0195
-37.7943	442.374	27.0391
-37.7914	435.62	27.0586
-37.7914	443.138	27.0781
-37.7901	443.608	27.0977
-37.7869	437.344	27.1172
-37.7862	439.198	27.1367
-37.785	445.411	27.15625
-37.783	437.435	27.1758
-37.7812	439.139	27.1953
-37.7795	441.141	27.2148
-37.7777	441.279	27.2344
-37.77718	436.238	27.2539
-37.7742	443.356	27.2734
-37.7719	439.834	27.293
-37.7708	439.049	27.3125
-37.7692	441.34	27.332
-37.7679	444.966	27.3516
-37.7667	435.393	27.3711
-37.7654	440.872	27.3906
-37.76265	445.18	27.4102
-37.7631	439.732	27.4297
-37.7588	437.493	27.4492
-37.7577	445.3548	27.46875
-37.7572	438.27	27.4883
-37.7551	439.032	27.5078
-37.7533	445.549	27.5273
-37.7514	442.049	27.5469
-37.7502	435.548	27.5664
-37.749	446.593	27.5859
-37.74688	441.574	27.6055
-37.7454	435.77	27.625
-37.7443	443.746	27.6445
-37.74136	443.455	27.6641
-37.7411	436.919	27.6836
-37.7392	440.439	27.7031
-37.7377	442.863	27.7227
-37.7352	435.77	27.7422
-37.7345	442.059	27.7617
-37.7322	443.571	27.78125
-37.7318	439.907	27.8008
-37.7286	438.854	27.8203
-37.7278	444.305	27.8398
-37.72551	438.666	27.8594
-37.7232	439.334	27.8789
-37.7233	440.936	27.8984
-37.7214	444.276	27.918
-37.7189	436.582	27.9375
-37.7177	442.247	27.957
-37.7162	442.327	27.9766
-37.7144	438.383	27.9961
-37.714	439.474	28.0156
-37.7112	447.773	28.0352
-37.7093	437.109	28.0547
-37.7079	439.1011	28.0742
-37.7057	444.118	28.09375
-37.7044	440.208	28.1133
-37.7026	436.214	28.1328
-37.7013	445.629	28.1523
-37.6996	440.4346	28.1719
-37.6983	437.771	28.1914
-37.6962	444.579	28.2109
-37.6953	441.112	28.2305
-37.6925	434.023	28.25
-37.6924	442.453	28.2695
-37.6899	443.9	28.2891
-37.6881	436.362	28.3086
-37.6874	441.27	28.3281
-37.6842	442.233	28.3477
-37.6838	435.74	28.3672
-37.6821	441.017	28.3867
-37.6805	442.7099	28.40625
-37.6789	437.072	28.4258
-37.6773	438.498	28.4453
-37.676	439.83	28.4648
-37.6737	437.879	28.4844
-37.6726	433.172	28.5039
-37.6707	442.325	28.5234
-37.669	440.504	28.543
-37.66713	436.45	28.5625
-37.6665	436.8382	28.582
-37.6638	440.996	28.6016
-37.6625	433.2962	28.6211
-37.6613	439.475	28.6406
-37.6598	440.769	28.6602
-37.658	436.038	28.6797
-37.6571	435.573	28.6992
-37.6535	443.507	28.71875
-37.653	434.9173	28.7383
-37.6523	434.7215	28.7578
-37.6498	442.506	28.7773
-37.6472	438.741	28.7969
-37.6465	433.056	28.8164
-37.6448	441.334	28.8359
-37.64323	438.572	28.8555
-37.6421	433.556	28.875
-37.6403	440.559	28.8945
-37.6387	439.836	28.9141
-37.6365	432.293	28.9336
-37.6354	439.44	28.9531
-37.6347	441.517	28.9727
-37.6313	433.904	28.9922
-37.6298	438.07	29.0117
-37.6271	441.591	29.03125
-37.6265	436.47	29.0508
-37.6254	436.889	29.0703
-37.6231	441.834	29.0898
-37.6215	436.374	29.1094
-37.6205	435.849	29.1289
-37.61861	439.03	29.1484
-37.6163	441.052	29.168
-37.6157	432.62	29.1875
-37.6131	440.6777	29.207
-37.6123	441.979	29.2266
-37.611	437.886	29.2461
-37.6073	435.501	29.2656
-37.60717	441.254	29.2852
-37.606	432.699	29.3047
-37.6037	436.389	29.3242
-37.6012	442.142	29.34375
-37.6009	436.4408	29.3633
-37.5978	432.304	29.3828
-37.5986	443.024	29.4023
-37.5953	436.841	29.4219
-37.5931	434.2327	29.4414
-37.5918	442.249	29.4609
-37.5905	440.532	29.4805
-37.58884	432.405	29.5
-37.5881	440.342	29.5195
-37.5862	440.981	29.5391
-37.58345	433.275	29.5586
-37.5826	439.587	29.5781
-37.5811	439.985	29.5977
-37.5797	434.219	29.6172
-37.5765	435.124	29.6367
-37.5763	442.215	29.65625
-37.5754	435.834	29.6758
-37.5742	436.851	29.6953
-37.5699	438.216	29.7148
-37.5687	438.36	29.7344
-37.5672	433.9758	29.7539
-37.5663	439.37	29.7734
-37.5648	436.012	29.793
-37.5637	435.246	29.8125
-37.5617	437.225	29.832
-37.5596	441.157	29.8516
-37.5585	432.048	29.8711
-37.5562	437.4	29.8906
-37.5553	439.917	29.9102
-37.5541	435.96	29.9297
-37.5519	432.953	29.9492
-37.5501	441.324	29.96875
-37.54821	433.166	29.9883
-37.54784	435.018	30.0078
-37.5455	442.2533	30.0273
-37.54343	434.67	30.0469
-37.543	430.597	30.0664
-37.5392	440.528	30.0859
-37.5382	437.234	30.1055
-37.5368	431.456	30.125
-37.5352	437.808	30.1445
-37.5338	438.859	30.1641
-37.5319	431.722	30.1836
-37.53146	435.429	30.2031
-37.529	437.233	30.2227
-37.5276	429.1922	30.2422
-37.5266	435.5509	30.2617
-37.5233	437.756	30.28125
-37.5218	432.459	30.3008
-37.5205	431.41	30.3203
-37.5192	436.9198	30.3398
-37.5189	433.777	30.3594
-37.5161	432.52	30.3789
-37.5146	433.274	30.3984
-37.5122	435.9874	30.418
-37.51133	429.344	30.4375
-37.5099	435.568	30.457
-37.507	434.59	30.4766
-37.50618	430.083	30.4961
-37.5054	430.7753	30.5156
-37.5031	436.721	30.5352
-37.5012	427.48	30.5547
-37.4988	429.699	30.5742
-37.4989	434.752	30.59375
-37.4959	430.986	30.6133
-37.4949	427.118	30.6328
-37.4924	434.632	30.6523
-37.4909	428.301	30.6719
-37.4891	424.737	30.6914
-37.4877	430.416	30.7109
-37.4862	427.23	30.7305
-37.4856	417.943	30.75
-37.4829	423.071	30.7695
-37.4783	-41.5348	30.7891
-37.4776	-43.5231	30.8086
-37.4783	-47.1172	30.8281
-37.4764	-40.9057	30.8477
-37.47604	-47.92062	30.8672
-37.4723	-43.5844	30.8867
-37.4714	-39.4785	30.90625
-37.4691	-45.6165	30.9258
-37.467	-43.86356	30.9453
-37.4655	-41.3562	30.9648
-37.4654	-42.6697	30.9844
-37.4629	-47.8785	31.0039
-37.462	-39.851	31.0234
-37.4597	-43.51881	31.043
-37.459	-44.7169	31.0625
-37.4563	-44.4026	31.082
-37.4557	-39.8829	31.1016
-37.4544	-48.5369	31.1211
-37.4524	-42.8911	31.1406
-37.4495	-38.8666	31.1602
-37.4488	-43.7168	31.1797
-37.4472	-47.0566	31.1992
-37.445	-36.4656	31.21875
-37.4435	-44.9676	31.2383
-37.4429	-45.3159	31.2578
-37.4408	-40.0006	31.2773
-37.4397	-42.5205	31.2969
-37.4384	-47.7329	31.3164
-37.4354	-38.7425	31.3359
-37.4338	-42.4333	31.3555
-37.4324	-47.194	31.375
-37.4313	-40.6476	31.3945
-37.4297	-40.7612	31.4141
-37.4273	-49.5953	31.4336
-37.4261	-43.5495	31.4531
-37.4249	-41.1203	31.4727
-37.4234	-45.9642	31.4922
-37.421	-42.99136	31.5117
-37.42	-41.4525	31.53125
-37.4177	-45.3926	31.5508
-37.4169	-45.2817	31.5703
-37.4142	-39.3932	31.5898
-37.4116	-45.4851	31.6094
-37.4116	-45.884	31.6289
-37.4103	-41.8553	31.6484
-37.40818	-39.0903	31.668
-37.4063	-46.4022	31.6875
-37.4052	-41.0658	31.707
-37.4038	-39.61919	31.7266
-37.4012	-44.5946	31.7461
-37.4004	-45.4707	31.7656
-37.39851	-40.1746	31.7852
-37.3969	-46.03841	31.8047
-37.3959	-42.9274	31.8242
-37.39397	-38.8877	31.84375
-37.39204	-42.2748	31.8633
-37.39043	-47.9348	31.8828
-37.388	-37.1357	31.9023
-37.3866	-44.0385	31.9219
-37.3851	-46.21455	31.9414
-37.3846	-40.1175	31.9609
-37.3826	-40.2536	31.9805
-37.3805	-47.9437	32
-37.378	-40.3683	32.0195
-37.3767	-41.5494	32.0391
-37.3759	-47.8399	32.0586
-37.3738	-42.2261	32.0781
-37.3729	-39.3554	32.0977
-37.3711	-47.3411	32.1172
-37.3698	-44.2071	32.1367
-37.3672	-39.714	32.15625
-37.366	-44.37611	32.1758
-37.3651	-43.6743	32.1953
-37.3632	-41.5087	32.2148
-37.3615	-43.1319	32.2344
-37.3588	-46.01228	32.2539
-37.3576	-40.2966	32.2734
-37.3571	-43.908	32.293
-37.3557	-46.2196	32.3125
-37.35228	-42.85754	32.332
-37.3508	-38.661	32.3516
-37.3498	-47.7512	32.3711
-37.3472	-43.1377	32.3906
-37.34618	-39.8928	32.4102
-37.3449	-43.4488	32.4297
-37.34343	-48.2632	32.4492
-37.3415	-38.9138	32.46875
-37.3403	-46.424	32.4883
-37.3391	-45.0261	32.5078
-37.3365	-40.4744	32.5273
-37.3362	-42.5911	32.5469
-37.3328	-49.5175	32.5664
-37.332	-38.6088	32.5859
-37.3295	-43.7276	32.6055
-37.3286	-48.627	32.625
-37.3266	-41.8702	32.6445
-37.3259	-39.6266	32.6641
-37.3246	-48.3121	32.6836
-37.3228	-42.747	32.7031
-37.32032	-42.1266	32.7227
-37.3187	-48.2835	32.7422
-37.3172	-42.9585	32.7617
-37.3157	-40.1133	32.78125
-37.3131	-46.51091	32.8008
-37.3119	-47.6036	32.8203
-37.3106	-42.20483	32.8398
-37.309	-44.48259	32.8594
-37.3068	-45.8246	32.8789
-37.3054	-43.7777	32.8984
-37.3041	-43.2686	32.918
-37.3025	-47.2778	32.9375
-37.2999	-40.4638	32.957
-37.2993	-41.3179	32.9766
-37.2974	-46.2985	32.9961
-37.2956	-45.94746	33.0156
-37.2942	-38.2225	33.0352
-37.2929	-47.9993	33.0547
-37.2912	-45.7984	33.0742
-37.2886	-39.00127	33.09375
-37.2881	-43.9165	33.1133
-37.28582	-47.34481	33.1328
-37.2852	-40.0176	33.1523
-37.2831	-44.951	33.1719
-37.2806	-47.2906	33.1914
-37.2798	-40.4852	33.2109
-37.2775	-42.7935	33.2305
-37.2766	-50.2646	33.25
-37.2758	-42.0583	33.2695
-37.2724	-41.9484	33.2891
-37.272	-48.0872	33.3086
-37.2701	-43.70224	33.3281
-37.2691	-41.5354	33.3477
-37.26614	-48.0724	33.3672
-37.2645	-44.8199	33.3867
-37.2647	-41.3019	33.40625
-37.2621	-47.3076	33.4258
-37.2599	-45.0439	33.4453
-37.258	-42.444	33.4648
-37.2577	-44.1715	33.4844
-37.2558	-49.107	33.5039
-37.2537	-41.3108	33.5234
-37.2529	-43.4404	33.543
-37.2508	-44.1144	33.5625
-37.24847	-44.1539	33.582
-37.2479	-39.82962	33.6016
-37.2448	-49.49	33.6211
-37.244	-42.1887	33.6406
-37.2414	-39.8574	33.6602
-37.2411	-44.99139	33.6797
-37.239	-47.7732	33.6992
-37.2369	-39.1025	33.71875
-37.2351	-46.4434	33.7383
-37.23547	-46.7081	33.7578
-37.2333	-41.15612	33.7773
-37.2309	-41.9174	33.7969
-37.2289	-49.3489	33.8164
-37.22813	-41.1937	33.8359
-37.2258	-43.2718	33.8555
-37.2241	-47.7406	33.875
-37.2224	-40.668	33.8945
-37.2206	-39.7112	33.9141
-37.2185	-48.6518	33.9336
-37.2189	-41.1589	33.9531
-37.21608	-38.9911	33.9727
-37.214	-46.85976	33.9922
-37.2129	-43.2469	34.0117
-37.211	-41.58596	34.03125
-37.2086	-45.9226	34.0508
-37.2077	-45.39785	34.0703
-37.2063	-40.961	34.0898
-37.2049	-44.8642	34.1094
-37.2023	-45.9433	34.1289
-37.2011	-41.6662	34.1484
-37.2006	-41.2935	34.168
-37.1979	-47.6506	34.1875
-37.1967	-42.4055	34.207
-37.19516	-42.6119	34.2266
-37.193	-44.1124	34.2461
-37.1926	-44.5878	34.2656
-37.1905	-38.4937	34.2852
-37.1886	-47.9147	34.3047
-37.18605	-41.692	34.3242
-37.1846	-39.8516	34.34375
-37.1833	-43.7793	34.3633
-37.1819	-49.906	34.3828
-37.1805	-39.2367	34.4023
-37.1788	-43.6931	34.4219
-37.1756	-47.2213	34.4414
-37.1766	-41.41552	34.4609
-37.17374	-42.4382	34.4805
-37.1724	-49.6542	34.5
-37.1706	-40.8071	34.5195
-37.1676	-42.31308	34.5391
-37.1681	-47.4881	34.5586
-37.165	-40.5499	34.5781
-37.1638	-38.7698	34.5977
-37.163	-48.3066	34.6172
-37.16153	-43.383	34.6367
-37.1598	-41.2363	34.65625
-37.1571	-45.4155	34.6758
-37.1565	-43.4556	34.6953
-37.1533	-42.2333	34.7148
-37.1527	-44.5904	34.7344
-37.1505	-46.85894	34.7539
-37.1504	-41.4224	34.7734
-37.1488	-43.226	34.793
-37.1459	-45.0424	34.8125
-37.1443	-42.4825	34.832
-37.1427	-38.3373	34.8516
-37.1409	-47.2454	34.8711
-37.1397	-43.2725	34.8906
-37.1386	-40.36	34.9102
-37.1364	-42.6492	34.9297
-37.134	-46.0588	34.9492
-37.133	-38.5406	34.96875
-37.1318	-46.7201	34.9883
-37.1301	-44.4238	35.0078
-37.1281	-39.3035	35.0273
-37.1269	-40.8356	35.0371