File: data/processed_data_files/tensile/0.254_hd_uprint_typeiv_090_r(6).dat
MTS793|BTW|ENU|1|2|.|/|:|1|0|0|A

Data Header:			0.254_hd_uprint_typeiv_090_r0			Time:	20.0181	s	4/13/2019 11:09:34 PM
Data Acquisition:	Timed
Station Name:	ft40.cfg
Test File Name:	monotonic_0.2540_typeiv_solid_4545_uprint.tst
Displacement	Force	Running Time
mm	N	s
-40.0436	-187.638	0.0229492
-40.0423	-185.152	0.0424805
-40.0423	-190.525	0.0620117
-40.0418	-185.378	0.081543
-40.04126	-180.767	0.101074
-40.0395	-185.017	0.120605
-40.0373	-187.743	0.140137
-40.0351	-180.428	0.159668
-40.0345	-183.754	0.179199
-40.0333	-183.025	0.19873
-40.0312	-176.786	0.218262
-40.0292	-179.777	0.237793
-40.0278	-182.4817	0.257324
-40.0258	-174.1423	0.276855
-40.0249	-174.1555	0.296387
-40.024	-179.644	0.315918
-40.0208	-172.464	0.335449
-40.0206	-171.256	0.35498
-40.0185	-173.935	0.374512
-40.0172	-171.023	0.394043
-40.016	-168.769	0.413574
-40.0142	-171.955	0.433105
-40.0115	-167.048	0.452637
-40.0108	-167.975	0.472168
-40.0092	-167.801	0.491699
-40.0066	-169.964	0.51123
-40.0065	-160.887	0.530762
-40.0029	-161.487	0.550293
-40.0016	-164.458	0.569824
-40.0005	-163.695	0.589355
-39.999	-157.538	0.608887
-39.99765	-163.879	0.628418
-39.9967	-156.3793	0.647949
-39.9935	-156.411	0.66748
-39.9919	-161.086	0.687012
-39.9914	-158.621	0.706543
-39.98835	-151.485	0.726074
-39.9879	-159.638	0.745605
-39.9868	-157.295	0.765137
-39.9842	-148.797	0.784668
-39.9825	-153.207	0.804199
-39.9818	-155.7341	0.82373
-39.9795	-148.229	0.843262
-39.977	-149.212	0.862793
-39.9759	-152.184	0.882324
-39.9746	-143.909	0.901855
-39.9739	-147.122	0.921387
-39.971	-151.639	0.940918
-39.9687	-143.521	0.960449
-39.968	-141.4987	0.97998
-39.966	-145.159	0.999512
-39.9644	-141.485	1.019043
-39.9648	-140.854	1.03857
-39.9608	-142.006	1.05811
-39.9595	-141.594	1.07764
-39.9592	-136.215	1.097168
-39.9564	-137.433	1.1167
-39.9549	-138.055	1.13623
-39.9524	-134.893	1.15576
-39.951	-132.4803	1.175293
-39.9511	-138.416	1.19482
-39.9491	-130.608	1.21436
-39.9468	-129.258	1.23389
-39.9457	-133.509	1.253418
-39.9426	-132.451	1.27295
-39.9414	-126.736	1.29248
-39.9406	-130.132	1.31201
-39.9388	-126.422	1.331543
-39.9368	-122.683	1.35107
-39.9361	-128.569	1.37061
-39.933	-127.279	1.39014
-39.9317	-119.37	1.409668
-39.9303	-123.53	1.4292
-39.9295	-125.323	1.44873
-39.9268	-117.258	1.46826
-39.9265	-120.845	1.487793
-39.924	-121.3	1.50732
-39.92234	-117.099	1.52686
-39.9211	-115.293	1.54639
-39.919	-118.109	1.565918
-39.9174	-112.462	1.58545
-39.9175	-114.279	1.60498
-39.915	-115.972	1.62451
-39.9135	-112.935	1.644043
-39.9116	-107.533	1.66357
-39.9091	-113.3997	1.68311
-39.9077	-109.0631	1.70264
-39.906	-108.588	1.722168
-39.9038	-105.4845	1.7417
-39.903	-109.6	1.76123
-39.9012	-103.9472	1.78076
-39.8992	-104.884	1.800293
-39.8968	-105.741	1.81982
-39.8957	-103.109	1.83936
-39.8944	-100.111	1.85889
-39.8933	-106.4313	1.878418
-39.8912	-99.6129	1.89795
-39.8906	-95.8386	1.91748
-39.8876	-100.7964	1.93701
-39.8873	-98.9768	1.956543
-39.8849	-93.2307	1.97607
-39.8839	-98.4813	1.99561
-39.8814	-96.1602	2.01514
-39.8791	-89.4752	2.034668
-39.8792	-96.6933	2.0542
-39.877	-94.3504	2.07373
-39.8751	-90.4091	2.09326
-39.874	-89.6672	2.112793
-39.8723	-93.1168	2.13232
-39.8693	-84.5763	2.15186
-39.8684	-89.042	2.17139
-39.8675	-86.6928	2.190918
-39.8648	-86.9764	2.21045
-39.8635	-81.5303	2.22998
-39.8623	-84.6291	2.24951
-39.8611	-79.8319	2.269043
-39.85862	-79.8971	2.28857
-39.8572	-82.9636	2.30811
-39.8555	-81.8886	2.32764
-39.854	-74.5344	2.347168
-39.8523	-77.2688	2.3667
-39.8513	-77.7442	2.38623
-39.8493	-76.5246	2.40576
-39.8471	-74.2056	2.425293
-39.8459	-78.0524	2.44482
-39.8439	-71.6394	2.46436
-39.843	-71.1241	2.48389
-39.8413	-74.9056	2.503418
-39.8404	-70.03344	2.52295
-39.83844	-66.8298	2.54248
-39.8362	-72.9679	2.56201
-39.8353	-69.37133	2.581543
-39.8318	-63.3681	2.60107
-39.832	-67.2742	2.62061
-39.8297	-66.9539	2.64014
-39.8281	-62.23555	2.659668
-39.8256	-64.1917	2.6792
-39.8251	-64.515	2.69873
-39.8246	-56.5736	2.71826
-39.821	-62.91	2.737793
-39.8201	-62.9169	2.75732
-39.8186	-56.8027	2.77686
-39.8172	-55.1566	2.79639
-39.8158	-60.4495	2.815918
-39.81382	-53.8572	2.83545
-39.81073	-54.6048	2.85498
-39.812	-53.6544	2.87451
-39.8084	-53.49234	2.894043
-39.8074	-49.8997	2.91357
-39.8051	-53.108	2.93311
-39.8039	-48.8239	2.95264
-39.802	-49.0664	2.972168
-39.8004	-47.935	2.9917
-39.7984	-51.6218	3.01123
-39.7971	-44.0238	3.03076
-39.7965	-42.6437	3.050293
-39.793	-47.4025	3.06982
-39.7925	-43.986	3.08936
-39.7904	-40.4459	3.10889
-39.7893	-46.4669	3.128418
-39.78685	-40.5573	3.14795
-39.7863	-37.1753	3.16748
-39.78334	-42.31831	3.18701
-39.7834	-40.1829	3.206543
-39.7811	-33.7839	3.22607
-39.7783	-38.9948	3.24561
-39.7768	-37.5261	3.26514
-39.7753	-28.7074	3.284668
-39.77433	-36.6505	3.3042
-39.7733	-34.8767	3.32373
-39.7704	-31.53808	3.34326
-39.7693	-31.0039	3.362793
-39.7682	-32.9671	3.38232
-39.7657	-25.5642	3.40186
-39.7652	-29.92626	3.42139
-39.7634	-28.6728	3.440918
-39.7619	-26.6532	3.46045
-39.7602	-20.8597	3.47998
-39.7582	-26.2589	3.49951
-39.7562	-22.9354	3.519043
-39.7557	-22.3856	3.53857
-39.7516	-21.1574	3.55811
-39.753	-24.568	3.57764
-39.75	-16.96744	3.597168
-39.7463	-19.3204	3.6167
-39.7465	-19.3299	3.63623
-39.7458	-15.9973	3.65576
-39.7426	-15.7846	3.675293
-39.7422	-22.1832	3.69482
-39.7406	-13.8158	3.71436
-39.73909	-11.0115	3.73389
-39.737	-16.6488	3.753418
-39.735	-13.0419	3.77295
-39.7349	-9.68951	3.79248
-39.7317	-12.0032	3.81201
-39.7297	-10.3321	3.831543
-39.7282	-4.25468	3.85107
-39.7265	-11.66457	3.87061
-39.7254	-8.62945	3.89014
-39.7235	-4.02484	3.909668
-39.7226	-6.52596	3.9292
-39.7205	-7.95196	3.94873
-39.71949	2.29875	3.96826
-39.7172	-3.36256	3.987793
-39.7158	-4.16247	4.00732
-39.71431	-0.552218	4.02686
-39.7131	1.68614	4.04639
-39.7108	-0.0622466	4.065918
-39.7086	5.57022	4.08545
-39.7073	2.17014	4.10498
-39.7062	2.61911	4.12451
-39.7048	4.388536	4.144043
-39.7021	9.68366	4.16357
-39.7018	5.09258	4.18311
-39.70013	6.57658	4.20264
-39.6973	9.116291	4.222168
-39.6962	10.856	4.2417
-39.6941	7.557755	4.26123
-39.6926	14.8256	4.28076
-39.6911	13.3564	4.300293
-39.6898	12.5918	4.31982
-39.6882	14.6518	4.33936
-39.6868	17.6692	4.35889
-39.6843	11.878	4.378418
-39.6832	17.5605	4.39795
-39.6813	22.8123	4.41748
-39.6797	15.3485	4.43701
-39.6789	19.2912	4.456543
-39.6763	25.3192	4.47607
-39.67561	21.6083	4.49561
-39.6723	21.6919	4.51514
-39.6715	28.7014	4.534668
-39.6688	22.5286	4.5542
-39.6684	23.2468	4.57373
-39.6671	29.9717	4.59326
-39.66571	28.0238	4.612793
-39.66367	26.4331	4.63232
-39.6622	34.3028	4.65186
-39.6604	30.512	4.67139
-39.658	29.8991	4.690918
-39.6562	31.44047	4.71045
-39.655	35.9021	4.72998
-39.6536	32.215	4.74951
-39.6517	36.2764	4.769043
-39.6515	35.7381	4.78857
-39.6491	34.8377	4.80811
-39.64603	35.1279	4.82764
-39.6455	42.0989	4.847168
-39.64386	39.5826	4.8667
-39.642	38.2046	4.88623
-39.6409	40.7858	4.90576
-39.63987	41.85424	4.925293
-39.6383	40.9692	4.94482
-39.6358	43.58765	4.96436
-39.635	47.4063	4.98389
-39.6333	41.8908	5.003418
-39.6311	47.68335	5.02295
-39.6293	49.7591	5.04248
-39.6269	46.7305	5.06201
-39.6265	47.9966	5.081543
-39.6255	57.5466	5.10107
-39.6229	48.6244	5.12061
-39.6217	51.0038	5.14014
-39.62	55.3058	5.159668
-39.61787	55.9774	5.1792
-39.6162	53.2323	5.19873
-39.6143	60.7725	5.21826
-39.6126	53.7868	5.237793
-39.6123	56.0034	5.25732
-39.6095	59.7803	5.27686
-39.6092	60.8698	5.29639
-39.607	55.9644	5.315918
-39.6059	63.5849	5.33545
-39.6023	62.3615	5.35498
-39.6027	61.3669	5.37451
-39.59927	61.4313	5.394043
-39.5982	68.7375	5.41357
-39.5963	65.3483	5.43311
-39.5955	67.9653	5.45264
-39.5939	68.0157	5.472168
-39.592	67.9091	5.4917
-39.5908	67.2669	5.51123
-39.59	73.3116	5.53076
-39.5863	73.1706	5.550293
-39.5861	68.7205	5.56982
-39.5843	72.9784	5.58936
-39.583	76.65818	5.60889
-39.5792	71.64653	5.628418
-39.5792	76.4399	5.64795
-39.5777	81.1282	5.66748
-39.5762	74.53627	5.68701
-39.5741	78.5928	5.706543
-39.5724	82.3616	5.72607
-39.5708	79.42762	5.74561
-39.5698	80.4711	5.76514
-39.5685	89.7157	5.784668
-39.56522	80.3953	5.8042
-39.563	83.567	5.82373
-39.5622	85.3204	5.84326
-39.5596	86.3468	5.862793
-39.55957	85.1068	5.88232
-39.5575	91.8635	5.90186
-39.55706	86.0699	5.92139
-39.5546	87.2747	5.940918
-39.5533	90.86718	5.96045
-39.5513	94.6037	5.97998
-39.55	88.6979	5.99951
-39.5483	94.4858	6.019043
-39.5467	95.5014	6.03857
-39.5452	94.52002	6.05811
-39.54372	94.3379	6.07764
-39.5422	99.76355	6.097168
-39.5406	99.1766	6.1167
-39.538	95.7146	6.13623
-39.53735	100.538	6.15576
-39.53495	100.293	6.175293
-39.5328	97.5988	6.19482
-39.532	103.733	6.21436
-39.5305	107.97	6.23389
-39.5296	98.404	6.253418
-39.5269	104.81	6.27295
-39.525	109.115	6.29248
-39.5223	103.836	6.31201
-39.5231	106.084	6.331543
-39.5199	113.56	6.35107
-39.5179	105.245	6.37061
-39.5166	109.817	6.39014
-39.5158	113.56	6.409668
-39.5132	111.048	6.4292
-39.5121	110.022	6.44873
-39.5106	118.624	6.46826
-39.5088	112.751	6.487793
-39.5079	114.72	6.50732
-39.5056	117.236	6.52686
-39.5036	118.871	6.54639
-39.5026	117.346	6.565918
-39.5005	121.074	6.58545
-39.4996	118.263	6.60498
-39.4976	119.347	6.62451
-39.4959	122.848	6.644043
-39.4944	125.902	6.66357
-39.4933	121.979	6.68311
-39.4916	123.0556	6.70264
-39.4895	126.92	6.722168
-39.4874	126.883	6.7417
-39.4864	126.26	6.76123
-39.4833	130.268	6.78076
-39.4823	130.268	6.800293
-39.4819	126.57	6.81982
-39.4795	132.785	6.83936
-39.4782	132.754	6.85889
-39.4762	129.467	6.878418
-39.4747	134.419	6.89795
-39.473	138.621	6.91748
-39.4726	130.735	6.93701
-39.4698	134.8	6.956543
-39.4685	139.243	6.97607
-39.4655	136.982	6.99561
-39.4645	138.854	7.01514
-39.46426	144.159	7.034668
-39.4623	135.7565	7.0542
-39.4606	141.25	7.07373
-39.4581	144.45	7.09326
-39.4574	143.895	7.112793
-39.456	141.887	7.13232
-39.4541	150.089	7.15186
-39.4513	145.667	7.17139
-39.4503	143.826	7.190918
-39.4484	146.391	7.21045
-39.4465	150.012	7.22998
-39.446	147.008	7.24951
-39.4437	150.779	7.269043
-39.4427	150.791	7.28857
-39.4407	150.2251	7.30811
-39.4382	151.051	7.32764
-39.43679	156.343	7.347168
-39.4364	153.331	7.3667
-39.4345	151.19	7.38623
-39.4328	158.063	7.40576
-39.4307	158.221	7.425293
-39.4298	155.28	7.44482
-39.4272	159.975	7.46436
-39.4257	162.476	7.48389
-39.4252	156.163	7.503418
-39.4236	163.445	7.52295
-39.4209	163.582	7.54248
-39.4193	159.749	7.56201
-39.4179	164.942	7.581543
-39.4164	169.0244	7.60107
-39.4141	161.3212	7.62061
-39.4126	164.845	7.64014
-39.4116	168.679	7.659668
-39.4112	167.762	7.6792
-39.4084	168.065	7.69873
-39.4063	174.614	7.71826
-39.40448	167.66	7.737793
-39.4036	170.412	7.75732
-39.4016	174.4398	7.77686
-39.4004	174.318	7.79639
-39.3979	172.171	7.815918
-39.3968	176.227	7.83545
-39.3957	176.7381	7.85498
-39.3941	174.474	7.87451
-39.392	176.015	7.894043
-39.3907	181.214	7.91357
-39.3897	179.693	7.93311
-39.3875	179.761	7.95264
-39.3855	182.843	7.972168
-39.3845	181.0656	7.9917
-39.38221	180.47	8.01123
-39.3811	186.916	8.03076
-39.3789	185.675	8.050293
-39.3773	180.629	8.06982
-39.3764	189.678	8.08936
-39.3741	190.045	8.10889
-39.3726	185.987	8.128418
-39.3707	189.29	8.14795
-39.3693	195.086	8.16748
-39.3667	184.719	8.18701
-39.3663	193.466	8.206543
-39.3644	194.763	8.22607
-39.3637	190.661	8.24561
-39.3602	193.302	8.26514
-39.3585	202.152	8.284668
-39.3574	193.9389	8.3042
-39.3562	195.418	8.32373
-39.3545	199.368	8.34326
-39.3528	199.81	8.362793
-39.3508	197.625	8.38232
-39.349	202.4	8.40186
-39.3478	198.331	8.42139
-39.3474	199.745	8.440918
-39.3457	204.662	8.46045
-39.3441	206.505	8.47998
-39.3413	202.745	8.49951
-39.34053	205.513	8.519043
-39.3382	209.879	8.53857
-39.3361	206.055	8.55811
-39.3354	205.423	8.57764
-39.33382	211.064	8.597168
-39.3315	210.861	8.6167
-39.3297	208.019	8.63623
-39.327	213.576	8.65576
-39.327	210.9	8.675293
-39.3254	210.645	8.69482
-39.3238	216.347	8.71436
-39.3219	218.4157	8.73389
-39.3211	209.75	8.753418
-39.3182	217.526	8.77295
-39.317	221.393	8.79248
-39.3154	215.657	8.81201
-39.3137	218.431	8.831543
-39.3128	222.344	8.85107
-39.3103	215.501	8.87061
-39.3101	221.128	8.89014
-39.3071	223.71	8.909668
-39.3063	222.395	8.9292
-39.3046	221.5	8.94873
-39.3028	229.778	8.96826
-39.30043	223.577	8.987793
-39.2983	223.325	9.00732
-39.2983	227.315	9.02686
-39.2963	228.711	9.04639
-39.2937	226.276	9.065918
-39.2927	230.91	9.08545
-39.2909	229.802	9.10498
-39.2906	228.4839	9.12451
-39.2891	231.418	9.144043
-39.2853	234.391	9.16357
-39.2853	231.6955	9.18311
-39.2825	231.6723	9.20264
-39.2823	238.901	9.222168
-39.2801	234.336	9.2417
-39.278	233.243	9.26123
-39.2765	239.198	9.28076
-39.2743	239.756	9.300293
-39.2738	235.311	9.31982
-39.2709	242.1	9.33936
-39.2702	240.032	9.35889
-39.2692	238.517	9.378418
-39.2662	246.209	9.39795
-39.2653	246.791	9.41748
-39.2645	238.106	9.43701
-39.2622	245.725	9.456543
-39.26	248.551	9.47607
-39.2594	245.6897	9.49561
-39.2557	245.931	9.51514
-39.2549	252.079	9.534668
-39.2534	246.044	9.5542
-39.2518	248.886	9.57373
-39.2501	252.855	9.59326
-39.249	252.628	9.612793
-39.2472	250.053	9.63232
-39.2459	257.205	9.65186
-39.2446	254.266	9.67139
-39.243	252.563	9.690918
-39.241	255.795	9.71045
-39.2393	259.487	9.72998
-39.238	257.114	9.74951
-39.2356	257.627	9.769043
-39.2338	258.652	9.78857
-39.2325	256.768	9.80811
-39.2314	259.394	9.82764
-39.2289	263.974	9.847168
-39.2276	262.09	9.8667
-39.2259	257.624	9.88623
-39.2243	267.823	9.90576
-39.2223	265.812	9.925293
-39.2206	263.265	9.94482
-39.2194	267.287	9.96436
-39.2172	270.188	9.98389
-39.21566	262.092	10.0034
-39.2153	271.903	10.0229
-39.213	270.996	10.04248
-39.21114	268.317	10.062
-39.2097	271.175	10.0815
-39.2088	277.12	10.1011
-39.2067	266.96	10.1206
-39.2049	274.2356	10.1401
-39.2028	277.291	10.1597
-39.2018	275.736	10.1792
-39.2006	275.128	10.19873
-39.1984	279.978	10.2183
-39.1969	276.203	10.2378
-39.1956	276.322	10.2573
-39.1934	281.782	10.2769
-39.1921	281.123	10.2964
-39.1892	278.3555	10.3159
-39.1887	282.281	10.3354
-39.18639	284.318	10.35498
-39.1846	280.221	10.3745
-39.1832	283.015	10.394
-39.1824	288.833	10.4136
-39.1805	285.154	10.4331
-39.1788	283.085	10.4526
-39.1762	290.185	10.4722
-39.1755	286.1731	10.4917
-39.1739	286.248	10.51123
-39.1723	292.781	10.5308
-39.17128	291.486	10.5503
-39.1694	284.584	10.5698
-39.1679	295.474	10.5894
-39.167	293.666	10.6089
-39.1652	292.452	10.6284
-39.1623	295.354	10.6479
-39.1599	299.5799	10.66748
-39.15958	291.5769	10.687
-39.1577	297.8501	10.7065
-39.1558	300.077	10.7261
-39.1552	295.789	10.7456
-39.15247	298.227	10.7651
-39.1512	304.498	10.7847
-39.1494	296.362	10.8042
-39.149	298.212	10.82373
-39.1457	305.523	10.8433
-39.1429	302.687	10.8628
-39.1436	301.49	10.8823
-39.1416	305.2861	10.9019
-39.1399	305.386	10.9214
-39.1383	303.246	10.9409
-39.1363	307.917	10.9604
-39.1347	308.905	10.97998
-39.1348	306.145	10.9995
-39.1319	307.316	11.019
-39.1305	313.613	11.0386
-39.1288	308.799	11.0581
-39.1256	309.731	11.0776
-39.1244	315.195	11.0972
-39.1239	314.05	11.1167
-39.1228	310.356	11.13623
-39.1203	317.204	11.1558
-39.1185	313.842	11.1753
-39.1176	315.221	11.1948
-39.1157	319.605	11.2144
-39.1142	320.453	11.2339
-39.1122	311.948	11.2534
-39.1103	323.653	11.2729
-39.1088	321.6449	11.29248
-39.1078	318.173	11.312
-39.1045	322.857	11.3315
-39.1043	325.632	11.3511
-39.1026	318.792	11.3706
-39.1007	324.0368	11.3901
-39.0992	325.797	11.4097
-39.098	321.149	11.4292
-39.09494	323.857	11.44873
-39.0933	329.965	11.4683
-39.0921	325.4563	11.4878
-39.091	324.697	11.5073
-39.0892	330.707	11.5269
-39.0879	330.558	11.5464
-39.0875	327.892	11.5659
-39.0844	330.024	11.5854
-39.0826	332.925	11.60498
-39.0812	330.822	11.6245
-39.0796	331.734	11.644
-39.0784	335.419	11.6636
-39.0762	333.543	11.6831
-39.0751	332.719	11.7026
-39.0735	341.468	11.7222
-39.0711	335.343	11.7417
-39.07	334.3259	11.76123
-39.0677	340.2883	11.7808
-39.0664	342.685	11.8003
-39.0642	334.4635	11.8198
-39.06266	344.572	11.8394
-39.0616	340.6521	11.8589
-39.06	339.449	11.8784
-39.0591	344.662	11.8979
-39.0566	347.278	11.91748
-39.0555	337.4183	11.937
-39.0528	346.134	11.9565
-39.05167	348.098	11.9761
-39.0508	344.733	11.9956
-39.0486	344.614	12.0151
-39.0465	352.201	12.0347
-39.0449	346.451	12.0542
-39.044	348.539	12.07373
-39.0418	352.071	12.0933
-39.0406	348.0184	12.1128
-39.0397	347.426	12.1323
-39.0371	352.9068	12.1519
-39.0358	353.3298	12.1714
-39.0341	349.105	12.1909
-39.0313	354.8024	12.2104
-39.0301	357.063	12.22998
-39.0304	353.589	12.2495
-39.02787	354.773	12.269
-39.0266	358.695	12.2886
-39.02412	354.3768	12.3081
-39.0223	357.034	12.3276
-39.0214	360.98	12.3472
-39.0195	358.762	12.3667
-39.0184	353.751	12.38623
-39.0164	365.065	12.4058
-39.0154	360.557	12.4253
-39.0121	358.664	12.4448
-39.0116	365.465	12.4644
-39.0087	364.95	12.4839
-39.008	359.135	12.5034
-39.0068	367.664	12.5229
-39.0058	365.287	12.54248
-39.0034	364.5141	12.562
-39.0013	366.656	12.5815
-39	371.24	12.6011
-38.9986	361.558	12.6206
-38.9973	368.071	12.6401
-38.9944	372.728	12.6597
-38.9924	368.778	12.6792
-38.9924	368.831	12.69873
-38.9901	372.755	12.7183
-38.9883	370.606	12.7378
-38.9866	371.15	12.7573
-38.9847	374.992	12.7769
-38.984	372.738	12.7964
-38.98233	369.752	12.8159
-38.9805	374.96	12.8354
-38.97908	378.841	12.85498
-38.9779	373.214	12.8745
-38.9753	377.835	12.894
-38.9739	380.535	12.9136
-38.9724	377.571	12.9331
-38.9699	375.704	12.9526
-38.9689	381.357	12.9722
-38.9675	378.174	12.9917
-38.9653	378.692	13.01123
-38.9641	384.207	13.0308
-38.9624	382.662	13.0503
-38.9614	376.76	13.0698
-38.9587	388.5022	13.0894
-38.9578	384.213	13.1089
-38.9558	381.4285	13.1284
-38.9533	385.662	13.1479
-38.9529	390.063	13.16748
-38.9503	380.905	13.187
-38.9495	388.208	13.2065
-38.9475	389.174	13.2261
-38.9452	385.008	13.2456
-38.9443	388.574	13.2651
-38.9424	393.462	13.2847
-38.9417	386.627	13.3042
-38.9395	387.823	13.32373
-38.93845	393.102	13.3433
-38.9362	390.4458	13.3628
-38.93504	389.431	13.3823
-38.9333	394.005	13.4019
-38.9316	393.195	13.4214
-38.9305	390.249	13.4409
-38.928	395.749	13.4604
-38.9264	395.568	13.47998
-38.92625	393.486	13.4995
-38.92403	394.294	13.519
-38.9213	399.611	13.5386
-38.92099	393.982	13.5581
-38.9182	396.294	13.5776
-38.9171	402.325	13.5972
-38.9156	398.533	13.6167
-38.9139	393.091	13.63623
-38.9109	402.786	13.6558
-38.9109	398.544	13.6753
-38.9106	397.988	13.6948
-38.9069	404.9801	13.7144
-38.9053	403.595	13.7339
-38.9053	395.961	13.7534
-38.9013	404.7594	13.7729
-38.9011	405.495	13.79248
-38.8982	401.112	13.812
-38.8967	404.168	13.8315
-38.8965	409.731	13.8511
-38.8936	402.441	13.8706
-38.8913	405.003	13.8901
-38.8912	407.382	13.9097
-38.8902	403.81	13.9292
-38.8874	403.796	13.94873
-38.8867	410.368	13.9683
-38.8846	404.901	13.9878
-38.8822	403.958	14.0073
-38.8807	411.3634	14.0269
-38.8803	409.867	14.0464
-38.8773	407.454	14.0659
-38.8761	408.735	14.0854
-38.87384	412.623	14.10498
-38.8731	405.738	14.1245
-38.8712	412.137	14.144
-38.8706	414.609	14.1636
-38.8688	412.554	14.1831
-38.86599	408.623	14.2026
-38.86504	419.343	14.2222
-38.8625	411.253	14.2417
-38.8623	412.556	14.26123
-38.8596	418.904	14.2808
-38.8587	417.179	14.3003
-38.8576	409.793	14.3198
-38.8552	418.107	14.3394
-38.8529	417.562	14.3589
-38.8521	413.9902	14.3784
-38.8499	418.768	14.3979
-38.8496	421.14	14.41748
-38.8468	410.697	14.437
-38.845	419.257	14.4565
-38.84346	421.212	14.4761
-38.8422	416.922	14.4956
-38.8406	417.308	14.5151
-38.8387	421.859	14.5347
-38.8366	418.453	14.5542
-38.83585	417.8215	14.57373
-38.8338	422.498	14.5933
-38.8326	419.025	14.6128
-38.8317	417.421	14.6323
-38.82909	421.292	14.6519
-38.82729	422.284	14.6714
-38.82642	415.145	14.6909
-38.8246	423.765	14.7104
-38.8213	425.271	14.72998
-38.8218	421.587	14.7495
-38.8197	420.3	14.769
-38.8179	427.496	14.7886
-38.8157	421.1796	14.8081
-38.8137	423.679	14.8276
-38.8134	428.088	14.8472
-38.8106	424.221	14.8667
-38.8101	419.446	14.88623
-38.8086	429.7583	14.9058
-38.807	423.589	14.9253
-38.8037	421.91	14.9448
-38.8033	429.41	14.9644
-38.8017	430.675	14.9839
-38.80027	420.7673	15.0034
-38.7975	428.888	15.0229
-38.7977	427.591	15.04248
-38.7933	424.087	15.062
-38.7933	429.272	15.0815
-38.79229	429.929	15.1011
-38.7899	423.323	15.1206
-38.7886	426.384	15.1401
-38.787	431.5206	15.1597
-38.7851	426.833	15.1792
-38.7841	426.189	15.19873
-38.7812	431.384	15.2183
-38.7813	428.752	15.2378
-38.7782	426.98	15.2573
-38.777	432.019	15.2769
-38.7764	430.288	15.2964
-38.7744	427.565	15.3159
-38.7725	430.764	15.3354
-38.7711	433.396	15.35498
-38.7689	424.914	15.3745
-38.768	430.811	15.394
-38.76556	434.076	15.4136
-38.7637	430.566	15.4331
-38.7613	426.0535	15.4526
-38.7611	433.732	15.4722
-38.7589	430.249	15.4917
-38.7568	429.839	15.51123
-38.7563	435.294	15.5308
-38.7541	431.6731	15.5503
-38.7516	425.015	15.5698
-38.75211	437.784	15.5894
-38.7502	431.836	15.6089
-38.747	426.203	15.6284
-38.747	433.825	15.6479
-38.7455	434.509	15.66748
-38.7422	427.839	15.687
-38.7418	432.655	15.7065
-38.7391	434.5809	15.7261
-38.73719	429.904	15.7456
-38.7362	432.157	15.7651
-38.7356	436.198	15.7847
-38.7328	429.539	15.8042
-38.7317	430.005	15.82373
-38.72934	436.867	15.8433
-38.72897	432.81	15.8628
-38.7271	432.721	15.8823
-38.72419	433.854	15.9019
-38.7226	436.353	15.9214
-38.7216	430.699	15.9409
-38.7206	436.68	15.9604
-38.7193	434.935	15.97998
-38.7166	432.864	15.9995
-38.7155	432.635	16.019
-38.7132	438.936	16.0386
-38.7121	430.716	16.0581
-38.7103	432.945	16.0776
-38.70879	439.347	16.0972
-38.7063	434.802	16.1167
-38.7039	427.924	16.13623
-38.7049	438.554	16.1558
-38.7029	433.028	16.1753
-38.7004	432.089	16.1948
-38.699	437.384	16.2144
-38.6973	436.178	16.2339
-38.6947	428.815	16.2534
-38.6937	436.8205	16.2729
-38.6922	436.926	16.29248
-38.69043	431.475	16.312
-38.6887	435.137	16.3315
-38.68784	438.164	16.3511
-38.6861	431.028	16.3706
-38.6835	434.302	16.3901
-38.68306	436.887	16.4097
-38.6808	431.337	16.4292
-38.6788	433.298	16.44873
-38.6789	437.074	16.4683
-38.6766	434.338	16.4878
-38.6751	430.768	16.5073
-38.6739	439.145	16.5269
-38.6719	435.909	16.5464
-38.6692	432.8147	16.5659
-38.6685	434.411	16.5854
-38.66576	439.779	16.60498
-38.665	432.251	16.6245
-38.6636	435.123	16.644
-38.66177	437.14	16.6636
-38.6604	433.9371	16.6831
-38.6587	430.886	16.7026
-38.6565	441.3522	16.7222
-38.6556	430.9317	16.7417
-38.6535	431.741	16.76123
-38.6511	438.442	16.7808
-38.6501	435.055	16.8003
-38.6481	428.793	16.8198
-38.648	436.965	16.8394
-38.6461	435.157	16.8589
-38.6429	432.158	16.8784
-38.6413	436.105	16.8979
-38.6403	437.769	16.91748
-38.6375	428.67	16.937
-38.6366	435.248	16.9565
-38.6352	437.812	16.9761
-38.6327	431.382	16.9956
-38.63176	433.173	17.0151
-38.6304	435.925	17.0347
-38.6294	432.161	17.0542
-38.6272	431.966	17.07373
-38.6267	434.67	17.0933
-38.624	433.736	17.1128
-38.6217	431.57	17.1323
-38.6212	434.61	17.1519
-38.6194	435.481	17.1714
-38.6177	429.017	17.1909
-38.6153	435.091	17.2104
-38.6152	436.608	17.22998
-38.6128	430.983	17.2495
-38.6125	428.725	17.269
-38.6087	436.468	17.2886
-38.6067	429.391	17.3081
-38.60619	432.155	17.3276
-38.6038	435.488	17.3472
-38.60334	432.485	17.3667
-38.6013	428.559	17.38623
-38.5997	439.042	17.4058
-38.597	431.326	17.4253
-38.5955	428.222	17.4448
-38.5951	434.6395	17.4644
-38.5944	435.858	17.4839
-38.5902	425.447	17.5034
-38.5903	432.827	17.5229
-38.5878	434.088	17.54248
-38.5867	427.825	17.562
-38.5858	432.531	17.5815
-38.582	435.327	17.6011
-38.5827	425.492	17.6206
-38.581	429.575	17.6401
-38.5788	434.528	17.6597
-38.5775	428.839	17.6792
-38.5755	428.29	17.69873
-38.5739	432.258	17.7183
-38.5718	431.179	17.7378
-38.5707	427.847	17.7573
-38.5697	433.666	17.7769
-38.5676	430.655	17.7964
-38.5661	428.24	17.8159
-38.5637	430.06	17.8354
-38.562	433.511	17.85498
-38.5589	425.062	17.8745
-38.55872	428.604	17.894
-38.55788	435.051	17.9136
-38.55555	428.827	17.9331
-38.5545	424.425	17.9526
-38.5525	434.422	17.9722
-38.5509	426.35	17.9917
-38.55	427.546	18.01123
-38.5469	432.587	18.0308
-38.5456	429.5824	18.0503
-38.5438	422.779	18.0698
-38.5427	431.173	18.0894
-38.5404	428.6369	18.1089
-38.5403	423.6799	18.1284
-38.53717	430.3356	18.1479
-38.5364	431.117	18.16748
-38.5336	422.665	18.187
-38.5322	425.925	18.2065
-38.5315	430.687	18.2261
-38.5308	423.663	18.2456
-38.5281	428.399	18.2651
-38.526	429.958	18.2847
-38.525	425.126	18.3042
-38.5234	423.219	18.32373
-38.521	431.087	18.3433
-38.5201	425.364	18.3628
-38.5193	425.172	18.3823
-38.5174	426.104	18.4019
-38.5146	430.713	18.4214
-38.5134	422.639	18.4409
-38.5125	427.62	18.4604
-38.5097	428.481	18.47998
-38.5086	423.624	18.4995
-38.5075	423.357	18.519
-38.5046	430.556	18.5386
-38.5028	421.8273	18.5581
-38.5025	422.442	18.5776
-38.5008	430.692	18.5972
-38.4986	425.764	18.6167
-38.4966	419.461	18.63623
-38.49575	428.023	18.6558
-38.4938	423.799	18.6753
-38.4911	421.349	18.6948
-38.4904	427.114	18.7144
-38.4893	426.275	18.7339
-38.4874	418.233	18.7534
-38.4858	427.03	18.7729
-38.4848	425.567	18.79248
-38.4816	419.515	18.812
-38.48119	423.161	18.8315
-38.47958	427.184	18.8511
-38.4776	421.457	18.8706
-38.4761	423.637	18.8901
-38.47435	426.551	18.9097
-38.4729	422.674	18.9292
-38.4702	422.758	18.94873
-38.4691	426.0014	18.9683
-38.4676	423.853	18.9878
-38.4662	419.594	19.0073
-38.4648	426.647	19.0269
-38.46291	427.091	19.0464
-38.46101	422.234	19.0659
-38.4594	421.249	19.0854
-38.4581	427.473	19.10498
-38.4557	420.027	19.1245
-38.454	422.956	19.144
-38.4542	425.473	19.1636
-38.4518	422.3765	19.1831
-38.44973	418.678	19.2026
-38.4487	427.727	19.2222
-38.44595	419.305	19.2417
-38.4451	418.491	19.26123
-38.4432	425.935	19.2808
-38.4419	424.561	19.3003
-38.4399	415.913	19.3198
-38.439	425.076	19.3394
-38.4382	422.78	19.3589
-38.4348	419.758	19.3784
-38.4337	424.941	19.3979
-38.432	421.608	19.41748
-38.4301	414.6	19.437
-38.4296	419.912	19.4565
-38.4264	425.7468	19.4761
-38.4266	417.601	19.4956
-38.4237	419.616	19.5151
-38.42321	422.809	19.5347
-38.4212	419.339	19.5542
-38.419	418.021	19.57373
-38.4178	423.118	19.5933
-38.4158	420.226	19.6128
-38.4155	419.2825	19.6323
-38.4134	421.968	19.6519
-38.4093	422.625	19.6714
-38.40831	414.803	19.6909
-38.4082	421.713	19.7104
-38.4069	423.38	19.72998
-38.405	417.915	19.7495
-38.4025	417.689	19.769
-38.4021	424.592	19.7886
-38.3996	416.525	19.8081
-38.3982	420.023	19.8276
-38.397	424.172	19.8472
-38.3942	418.433	19.8667
-38.3925	415.1048	19.88623
-38.3914	426.204	19.9058
-38.38958	419.496	19.9253
-38.3872	414.784	19.9448
-38.3865	422.424	19.9644
-38.3854	422.725	19.9839
-38.38179	414.474	20.0034
-38.3832	418.672	20.0132

Data Header:			0.254_hd_uprint_typeiv_090_r0			Time:	37.9561	s	4/13/2019 11:09:52 PM
Data Acquisition:	Timed
Station Name:	ft40.cfg
Test File Name:	monotonic_0.2540_typeiv_solid_4545_uprint.tst
Displacement	Force	Running Time
mm	N	s
-38.3814	421.4726	20.0229
-38.3797	422.95	20.04248
-38.37841	416.381	20.062
-38.377	419.917	20.0815
-38.375	421.569	20.1011
-38.3729	417.974	20.1206
-38.3719	418.08	20.1401
-38.3703	421.962	20.1597
-38.369	416.492	20.1792
-38.36673	416.531	20.19873
-38.3654	420.478	20.2183
-38.3628	420.724	20.2378
-38.362	414.052	20.2573
-38.3604	421.677	20.2769
-38.3581	419.966	20.2964
-38.3569	416.3678	20.3159
-38.3567	417.7923	20.3354
-38.3533	422.826	20.35498
-38.3523	412.767	20.3745
-38.3509	420.076	20.394
-38.3484	423.71	20.4136
-38.3466	418.042	20.4331
-38.3457	411.27	20.4526
-38.3443	422.927	20.4722
-38.3422	415.716	20.4917
-38.3416	416.236	20.51123
-38.3393	422.397	20.5308
-38.3367	418.65	20.5503
-38.3356	411.825	20.5698
-38.3348	423.181	20.5894
-38.3323	418.633	20.6089
-38.3314	412.73	20.6284
-38.3306	419.582	20.6479
-38.3277	420.067	20.66748
-38.3263	413.978	20.687
-38.3254	417.416	20.7065
-38.323	419.2887	20.7261
-38.3212	414.092	20.7456
-38.3206	417.474	20.7651
-38.3178	419.682	20.7847
-38.3158	415.635	20.8042
-38.3153	413.766	20.82373
-38.3123	420.94	20.8433
-38.311	418.297	20.8628
-38.30962	415.174	20.8823
-38.3086	417.763	20.9019
-38.3066	421.413	20.9214
-38.3033	415.602	20.9409
-38.3042	418.337	20.9604
-38.3017	419.058	20.97998
-38.2997	415.342	20.9995
-38.2986	416.249	21.019
-38.2976	422.781	21.0386
-38.2949	413.4469	21.0581
-38.293	415.148	21.0776
-38.2924	421.738	21.0972
-38.2903	416.779	21.1167
-38.2889	410.092	21.13623
-38.287	420.931	21.1558
-38.2845	417.547	21.1753
-38.2837	413.434	21.1948
-38.2844	420.893	21.2144
-38.2813	417.978	21.2339
-38.2789	411.922	21.2534
-38.2773	419.073	21.2729
-38.2757	421.973	21.29248
-38.2734	412.57	21.312
-38.2732	416.821	21.3315
-38.2698	418.525	21.3511
-38.2681	414.091	21.3706
-38.2676	414.858	21.3901
-38.2664	419.826	21.4097
-38.2637	414.712	21.4292
-38.2625	416.5	21.44873
-38.2615	418.107	21.4683
-38.2585	416.411	21.4878
-38.2582	410.705	21.5073
-38.2566	420.042	21.5269
-38.2554	418.677	21.5464
-38.2529	414.704	21.5659
-38.2515	415.461	21.5854
-38.2502	421.136	21.60498
-38.2473	411.592	21.6245
-38.2468	416.854	21.644
-38.2458	420.187	21.6636
-38.2428	414.018	21.6831
-38.241	413.116	21.7026
-38.24078	420.562	21.7222
-38.2391	412.835	21.7417
-38.2372	414.454	21.76123
-38.2354	419.74	21.7808
-38.23362	416.279	21.8003
-38.2316	409.72	21.8198
-38.2295	417.228	21.8394
-38.2288	417.89	21.8589
-38.2268	412.523	21.8784
-38.2247	419.7	21.8979
-38.2234	417.56	21.91748
-38.2218	409.693	21.937
-38.221	415.276	21.9565
-38.2179	419.999	21.9761
-38.2176	413.077	21.9956
-38.2157	416.356	22.0151
-38.2131	418.23	22.0347
-38.2119	415.949	22.0542
-38.2113	411.129	22.07373
-38.2083	419.308	22.0933
-38.2079	416.828	22.1128
-38.2066	412.946	22.1323
-38.2031	416.628	22.1519
-38.2028	418.198	22.1714
-38.2	409.786	22.1909
-38.1993	417.039	22.2104
-38.1982	419.625	22.22998
-38.1961	413.901	22.2495
-38.1935	411.872	22.269
-38.1927	420.444	22.2886
-38.1912	413.059	22.3081
-38.1889	414.748	22.3276
-38.1889	419.615	22.3472
-38.1859	413.834	22.3667
-38.1843	411.252	22.38623
-38.1826	419.579	22.4058
-38.1811	414.431	22.4253
-38.1799	410.129	22.4448
-38.1782	419.093	22.4644
-38.176	416.4809	22.4839
-38.1752	412.05	22.5034
-38.1728	415.582	22.5229
-38.1714	418.216	22.54248
-38.1694	410.742	22.562
-38.1681	417.241	22.5815
-38.1678	415.604	22.6011
-38.1653	412.063	22.6206
-38.1637	411.772	22.6401
-38.1614	418.49	22.6597
-38.161	413.61	22.6792
-38.1579	413.152	22.69873
-38.1572	414.356	22.7183
-38.1559	417.2059	22.7378
-38.1539	410.93	22.7573
-38.1522	417.116	22.7769
-38.1506	416.858	22.7964
-38.14838	413.965	22.8159
-38.1465	414.437	22.8354
-38.1448	418.935	22.85498
-38.1431	409.411	22.8745
-38.1414	413.317	22.894
-38.1421	418.303	22.9136
-38.1394	413.964	22.9331
-38.1371	410.288	22.9526
-38.1356	418.688	22.9722
-38.1349	413.876	22.9917
-38.1329	412.3718	23.01123
-38.1308	418.704	23.0308
-38.1308	411.6312	23.0503
-38.1282	408.566	23.0698
-38.1264	418.134	23.0894
-38.1244	416.008	23.1089
-38.12347	407.458	23.1284
-38.1217	415.333	23.1479
-38.119	416.165	23.16748
-38.1167	410.8233	23.187
-38.1159	412.364	23.2065
-38.1152	417.304	23.2261
-38.113	411.209	23.2456
-38.1112	415.6131	23.2651
-38.1101	414.755	23.2847
-38.10743	413.7692	23.3042
-38.1057	410.12	23.32373
-38.1052	419.1066	23.3433
-38.1025	414.943	23.3628
-38.10107	409.859	23.3823
-38.10178	413.026	23.4019
-38.0972	416.67	23.4214
-38.09676	409.218	23.4409
-38.095	415.033	23.4604
-38.0935	416.005	23.47998
-38.0925	411.765	23.4995
-38.0912	411.158	23.519
-38.0888	418.554	23.5386
-38.0874	411.513	23.5581
-38.08519	411.829	23.5776
-38.084	419.395	23.5972
-38.0819	413.174	23.6167
-38.0795	408.238	23.63623
-38.0795	416.867	23.6558
-38.0768	413.6145	23.6753
-38.0749	409.819	23.6948
-38.0735	417.761	23.7144
-38.0721	412.4169	23.7339
-38.0704	409.092	23.7534
-38.0696	415.043	23.7729
-38.0673	417.714	23.79248
-38.0654	408.042	23.812
-38.0641	412.81	23.8315
-38.0625	415.484	23.8511
-38.061	411.545	23.8706
-38.0591	410.454	23.8901
-38.05751	416.755	23.9097
-38.0557	412.307	23.9292
-38.0538	412.931	23.94873
-38.053	414.0914	23.9683
-38.0513	414.428	23.9878
-38.04921	406.799	24.0073
-38.0474	416.157	24.0269
-38.0466	415.191	24.0464
-38.0444	411.043	24.0659
-38.0433	410.219	24.0854
-38.0414	416.83	24.10498
-38.039	410.324	24.1245
-38.0375	413.6062	24.144
-38.0365	416.886	24.1636
-38.0353	411.506	24.1831
-38.0327	409.938	24.2026
-38.03141	419.07	24.2222
-38.0309	411.121	24.2417
-38.0282	408.9978	24.26123
-38.0269	418.754	24.2808
-38.0258	412.121	24.3003
-38.0241	407.241	24.3198
-38.0225	414.864	24.3394
-38.0195	414.7258	24.3589
-38.018	409.213	24.3784
-38.0173	415.844	24.3979
-38.0163	413.677	24.41748
-38.014	408.277	24.437
-38.01334	413.601	24.4565
-38.0092	416.348	24.4761
-38.0092	409.701	24.4956
-38.0075	412.716	24.5151
-38.005	414.621	24.5347
-38.0043	412.947	24.5542
-38.003	409.137	24.57373
-38.0008	416.04	24.5933
-37.99921	412.648	24.6128
-37.9967	411.392	24.6323
-37.9952	412.549	24.6519
-37.9945	415.5423	24.6714
-37.993	408.041	24.6909
-37.9912	415.9693	24.7104
-37.9899	416.399	24.72998
-37.987	409.848	24.7495
-37.9865	409.391	24.769
-37.9841	419.451	24.7886
-37.98299	411.693	24.8081
-37.9811	409.723	24.8276
-37.9796	416.016	24.8472
-37.9781	411.395	24.8667
-37.9767	408.957	24.88623
-37.9753	417.222	24.9058
-37.9732	412.8988	24.9253
-37.97221	408.08	24.9448
-37.9695	416.41	24.9644
-37.9682	414.573	24.9839
-37.9661	408.85	25.0034
-37.9658	413.175	25.0229
-37.9639	415.74	25.04248
-37.9614	409.3537	25.062
-37.9596	414.27	25.0815
-37.9589	412.481	25.1011
-37.9575	410.03	25.1206
-37.9548	409.4711	25.1401
-37.9531	418.971	25.1597
-37.9522	412.1485	25.1792
-37.9495	411.186	25.19873
-37.9492	413.086	25.2183
-37.9465	415.039	25.2378
-37.9454	408.814	25.2573
-37.9443	415.094	25.2769
-37.9411	414.91	25.2964
-37.9399	409.814	25.3159
-37.9395	410.146	25.3354
-37.9376	416.006	25.35498
-37.9358	407.826	25.3745
-37.9341	412.169	25.394
-37.9321	415.729	25.4136
-37.9309	409.938	25.4331
-37.9291	407.295	25.4526
-37.9274	416.134	25.4722
-37.9252	412.719	25.4917
-37.9236	408.322	25.51123
-37.9227	416.064	25.5308
-37.9203	411.985	25.5503
-37.91835	409.459	25.5698
-37.9173	416.105	25.5894
-37.9165	413.589	25.6089
-37.9157	405.878	25.6284
-37.9124	415.081	25.6479
-37.91103	413.827	25.66748
-37.909	409.384	25.687
-37.9078	411.844	25.7065
-37.906	416.012	25.7261
-37.9051	410.908	25.7456
-37.903	412.177	25.7651
-37.901	411.954	25.7847
-37.9002	412.373	25.8042
-37.8984	408.948	25.82373
-37.8975	415.434	25.8433
-37.8961	413.22	25.8628
-37.8935	409.247	25.8823
-37.891	411.148	25.9019
-37.89	416.912	25.9214
-37.8878	406.7142	25.9409
-37.8868	413.26	25.9604
-37.88612	415.667	25.97998
-37.8841	408.781	25.9995
-37.8812	409.615	26.019
-37.8805	414.851	26.0386
-37.879	408.328	26.0581
-37.8772	409.041	26.0776
-37.8759	416.834	26.0972
-37.87413	410.827	26.1167
-37.872	408.125	26.13623
-37.8702	415.305	26.1558
-37.8702	413.711	26.1753
-37.8677	407.976	26.1948
-37.8652	415.705	26.2144
-37.8645	412.171	26.2339
-37.8618	408.574	26.2534
-37.8611	412.677	26.2729
-37.8594	413.402	26.29248
-37.8577	405.521	26.312
-37.8558	411.945	26.3315
-37.8543	412.199	26.3511
-37.8529	410.583	26.3706
-37.8515	407.633	26.3901
-37.8501	415.33	26.4097
-37.84742	410.478	26.4292
-37.8459	411.207	26.44873
-37.8452	410.7659	26.4683
-37.8424	411.977	26.4878
-37.8412	406.874	26.5073
-37.8394	414.077	26.5269
-37.8373	412.942	26.5464
-37.836	407.726	26.5659
-37.8364	409.4866	26.5854
-37.8335	415.5546	26.60498
-37.8303	409.136	26.6245
-37.83049	410.665	26.644
-37.8286	412.849	26.6636
-37.826	409.129	26.6831
-37.8259	408.383	26.7026
-37.8235	416.46	26.7222
-37.82111	409.165	26.7417
-37.82	407.42	26.76123
-37.8188	415.608	26.7808
-37.8169	411.071	26.8003
-37.8158	407.126	26.8198
-37.8141	413.73	26.8394
-37.8113	412.915	26.8589
-37.811	407.221	26.8784
-37.8093	412.2641	26.8979
-37.8066	410.6792	26.91748
-37.8061	408.014	26.937
-37.8045	408.773	26.9565
-37.8035	414.448	26.9761
-37.8009	407.894	26.9956
-37.7988	408.772	27.0151
-37.7968	412.71	27.0347
-37.7962	412.619	27.0542
-37.7943	406.434	27.07373
-37.792	414.909	27.0933
-37.7912	412.291	27.1128
-37.7894	408.424	27.1323
-37.7889	409.835	27.1519
-37.7857	412.749	27.1714
-37.7832	406.3183	27.1909
-37.7813	412.744	27.2104
-37.7809	414.239	27.22998
-37.7794	406.856	27.2495
-37.7778	408.311	27.269
-37.7759	414.746	27.2886
-37.774	407.602	27.3081
-37.7725	408.626	27.3276
-37.7723	416.3544	27.3472
-37.7701	407.532	27.3667
-37.7675	408.01	27.38623
-37.7664	413.84	27.4058
-37.7643	409.39	27.4253
-37.7629	406.095	27.4448
-37.7622	414.032	27.4644
-37.7593	410.133	27.4839
-37.7575	408.41	27.5034
-37.7574	408.988	27.5229
-37.75584	413.567	27.54248
-37.7535	408.658	27.562
-37.75227	410.7337	27.5815
-37.7517	409.753	27.6011
-37.7491	409.608	27.6206
-37.747	407.726	27.6401
-37.745	413.836	27.6597
-37.7448	409.615	27.6792
-37.7419	408.9534	27.69873
-37.7408	411.454	27.7183
-37.7378	413.697	27.7378
-37.7367	405.045	27.7573
-37.7347	412.181	27.7769
-37.7336	412.9653	27.7964
-37.7318	407.332	27.8159
-37.7304	408.621	27.8354
-37.72773	413.261	27.85498
-37.7267	406.503	27.8745
-37.7253	409.769	27.894
-37.724	414.233	27.9136
-37.7229	407.26	27.9331
-37.72081	406.083	27.9526
-37.7189	413.782	27.9722
-37.7175	409.8	27.9917
-37.7157	406.361	28.01123
-37.7147	414.762	28.0308
-37.7121	406.565	28.0503
-37.7107	406.359	28.0698
-37.7092	411.289	28.0894
-37.7062	411.8107	28.1089
-37.7045	405.4281	28.1284
-37.7049	411.291	28.1479
-37.70314	410.433	28.16748
-37.7015	410.035	28.187
-37.6992	407.872	28.2065
-37.6994	413.9743	28.2261
-37.696	407.82	28.2456
-37.6941	409.499	28.2651
-37.693	409.968	28.2847
-37.692	409.867	28.3042
-37.68961	406.204	28.32373
-37.6885	412.542	28.3433
-37.6878	409.419	28.3628
-37.6852	405.843	28.3823
-37.6823	408.789	28.4019
-37.6813	412.858	28.4214
-37.68	405.469	28.4409
-37.6781	409.436	28.4604
-37.6774	411.374	28.47998
-37.6756	406.684	28.4995
-37.6732	407.911	28.519
-37.67202	412.178	28.5386
-37.6692	407.358	28.5581
-37.66716	406.732	28.5776
-37.6675	414.951	28.5972
-37.666	405.813	28.6167
-37.6641	405.041	28.63623
-37.6618	412.278	28.6558
-37.6612	410.735	28.6753
-37.6598	405.837	28.6948
-37.6575	412.914	28.7144
-37.656	408.786	28.7339
-37.6536	407.527	28.7534
-37.6522	410.069	28.7729
-37.6511	412.334	28.79248
-37.6489	406.161	28.812
-37.6479	412.4	28.8315
-37.64571	410.445	28.8511
-37.6435	407.249	28.8706
-37.6431	406.518	28.8901
-37.6413	412.988	28.9097
-37.6398	409.351	28.9292
-37.6377	405.531	28.94873
-37.63607	409.892	28.9683
-37.6343	409.3089	28.9878
-37.633	405.052	29.0073
-37.63158	411.6033	29.0269
-37.6301	411.347	29.0464
-37.6281	404.4848	29.0659
-37.6267	408.115	29.0854
-37.6245	412.493	29.10498
-37.6235	405.397	29.1245
-37.6223	407.93	29.144
-37.6197	413.179	29.1636
-37.6184	406.53	29.1831
-37.6172	406.585	29.2026
-37.6156	412.037	29.2222
-37.613	407.229	29.2417
-37.6115	405.631	29.26123
-37.6103	413.763	29.2808
-37.6087	405.889	29.3003
-37.6071	405.992	29.3198
-37.6053	409.846	29.3394
-37.603	412.037	29.3589
-37.60228	407.099	29.3784
-37.6014	410.323	29.3979
-37.5987	408.672	29.41748
-37.597	408.086	29.437
-37.5946	407.585	29.4565
-37.5939	413.409	29.4761
-37.5925	407.327	29.4956
-37.59145	407.55	29.5151
-37.5886	410.692	29.5347
-37.5879	409.342	29.5542
-37.5853	405.072	29.57373
-37.5838	412.213	29.5933
-37.5833	409.399	29.6128
-37.5813	406.144	29.6323
-37.5788	409.236	29.6519
-37.5772	411.0159	29.6714
-37.5761	405.136	29.6909
-37.575	409.232	29.7104
-37.5733	412.5419	29.72998
-37.5722	403.255	29.7495
-37.5698	405.155	29.769
-37.5663	412.7547	29.7886
-37.56572	406.505	29.8081
-37.5646	406.505	29.8276
-37.5621	413.502	29.8472
-37.5607	405.467	29.8667
-37.5599	406.558	29.88623
-37.5583	410.24	29.9058
-37.5567	408.6282	29.9253
-37.5546	404.405	29.9448
-37.5525	413.403	29.9644
-37.551	408.424	29.9839
-37.5494	406.055	30.0034
-37.5491	407.993	30.0229
-37.547	412.431	30.04248
-37.54546	406.467	30.062
-37.5445	408.616	30.0815
-37.5421	409.288	30.1011
-37.5405	406.759	30.1206
-37.5378	406.729	30.1401
-37.5363	412.248	30.1597
-37.53495	406.988	30.1792
-37.5333	405.986	30.19873
-37.5319	408.804	30.2183
-37.5304	411.324	30.2378
-37.5291	403.615	30.2573
-37.5276	409.5686	30.2769
-37.5258	411.227	30.2964
-37.5238	404.516	30.3159
-37.5225	407.381	30.3354
-37.52116	409.412	30.35498
-37.5187	403.678	30.3745
-37.51643	408.456	30.394
-37.515	413.996	30.4136
-37.5139	403.46	30.4331
-37.51228	406.621	30.4526
-37.5112	411.174	30.4722
-37.5092	408.355	30.4917
-37.5078	405.257	30.51123
-37.5049	411.526	30.5308
-37.504	406.168	30.5503
-37.5025	406.33	30.5698
-37.5016	410.671	30.5894
-37.5007	407.44	30.6089
-37.497	405.4	30.6284
-37.4963	411.924	30.6479
-37.4946	409.191	30.66748
-37.4921	406.731	30.687
-37.4912	405.439	30.7065
-37.4897	411.171	30.7261
-37.48843	407.619	30.7456
-37.4867	407	30.7651
-37.4845	409.12	30.7847
-37.484	409.19	30.8042
-37.4813	405.016	30.82373
-37.47868	411.665	30.8433
-37.4786	408.366	30.8628
-37.4764	404.179	30.8823
-37.4747	408.863	30.9019
-37.4739	409.768	30.9214
-37.47179	404.233	30.9409
-37.4708	407.716	30.9604
-37.46846	412.767	30.97998
-37.4674	405.512	30.9995
-37.4654	407.832	31.019
-37.4637	411.825	31.0386
-37.4617	405.426	31.0581
-37.4606	408.022	31.0776
-37.4589	413.34	31.0972
-37.4579	404.314	31.1167
-37.4551	405.686	31.13623
-37.4534	409.378	31.1558
-37.4524	408.7193	31.1753
-37.4498	402.887	31.1948
-37.4483	410.296	31.2144
-37.4482	405.915	31.2339
-37.446	406.013	31.2534
-37.4438	407.514	31.2729
-37.4439	411.031	31.29248
-37.441	403.747	31.312
-37.43906	409.653	31.3315
-37.4372	409.118	31.3511
-37.4355	405.489	31.3706
-37.4351	404.3978	31.3901
-37.4336	411.357	31.4097
-37.4317	408.526	31.4292
-37.4292	404.508	31.44873
-37.42765	407.955	31.4683
-37.4268	407.995	31.4878
-37.4245	404.762	31.5073
-37.4224	409.341	31.5269
-37.4218	409.793	31.5464
-37.4198	401.402	31.5659
-37.418	407.262	31.5854
-37.4155	409.626	31.60498
-37.4145	404.29	31.6245
-37.4122	404.213	31.644
-37.41119	411.65	31.6636
-37.4111	403.937	31.6831
-37.409	406.906	31.7026
-37.4067	409.602	31.7222
-37.405	405.796	31.7417
-37.4034	405.711	31.76123
-37.4012	412.365	31.7808
-37.4	404.883	31.8003
-37.399	405.657	31.8198
-37.3973	407.941	31.8394
-37.396	411.378	31.8589
-37.3931	404.522	31.8784
-37.39101	408.038	31.8979
-37.3901	406.168	31.91748
-37.3896	404.826	31.937
-37.3872	404.642	31.9565
-37.3848	409.0874	31.9761
-37.3829	404.2403	31.9956
-37.3825	405.184	32.0151
-37.379	408.608	32.0347
-37.3795	406.2258	32.0542
-37.3775	403.316	32.07373
-37.3754	408.756	32.0933
-37.3745	409.633	32.1128
-37.3734	404.106	32.1323
-37.37	406.961	32.1519
-37.3691	406.734	32.1714
-37.3681	403.154	32.1909
-37.3656	406.598	32.2104
-37.3648	409.702	32.22998
-37.3627	400.476	32.2495
-37.3601	407.22	32.269
-37.3593	409.842	32.2886
-37.3577	405.401	32.3081
-37.3578	404.325	32.3276
-37.3557	410.952	32.3472
-37.3532	403.307	32.3667
-37.3503	404.781	32.38623
-37.3488	407.465	32.4058
-37.3478	406.369	32.4253
-37.3468	404.338	32.4448
-37.3451	411.787	32.4644
-37.3433	403.269	32.4839
-37.3415	404.644	32.5034
-37.3398	405.876	32.5229
-37.3376	410.172	32.54248
-37.3357	404.2645	32.562
-37.3345	406.117	32.5815
-37.3349	406.843	32.6011
-37.3315	404.305	32.6206
-37.3301	404.587	32.6401
-37.3289	409.016	32.6597
-37.3278	404.183	32.6792
-37.3247	402.864	32.69873
-37.3221	408.381	32.7183
-37.322	406.23	32.7378
-37.3203	402.4595	32.7573
-37.31937	406.781	32.7769
-37.3179	408.851	32.7964
-37.3148	401.028	32.8159
-37.3137	405.565	32.8354
-37.31287	406.931	32.85498
-37.3099	404.175	32.8745
-37.3092	404.769	32.894
-37.3069	412.545	32.9136
-37.30566	399.43	32.9331
-37.30426	404.8573	32.9526
-37.3018	408.415	32.9722
-37.3009	405.107	32.9917
-37.2993	401.8999	33.01123
-37.2986	411.516	33.0308
-37.2963	402.923	33.0503
-37.2939	403.49	33.0698
-37.2922	407.792	33.0894
-37.2908	406.465	33.1089
-37.2892	402.515	33.1284
-37.2871	409.344	33.1479
-37.2868	405.342	33.16748
-37.2841	403.202	33.187
-37.28281	402.989	33.2065
-37.2822	409.59	33.2261
-37.2797	403.515	33.2456
-37.2772	402.335	33.2651
-37.2767	406.568	33.2847
-37.2746	405.631	33.3042
-37.273	403.655	33.32373
-37.2715	406.915	33.3433
-37.2704	406.236	33.3628
-37.2691	400.09	33.3823
-37.2664	408.247	33.4019
-37.2639	408.685	33.4214
-37.263	400.299	33.4409
-37.2618	404.97	33.4604
-37.2609	409.35	33.47998
-37.2585	399.5199	33.4995
-37.2569	404.015	33.519
-37.2559	406.571	33.5386
-37.253	403.1008	33.5581
-37.2518	401.593	33.5776
-37.2504	409.632	33.5972
-37.2478	401.155	33.6167
-37.2478	402.8887	33.63623
-37.2461	406.14	33.6558
-37.2434	405.8819	33.6753
-37.2417	402.401	33.6948
-37.24052	407.117	33.7144
-37.23922	404.307	33.7339
-37.2371	403.22	33.7534
-37.236	403.978	33.7729
-37.2355	406.432	33.79248
-37.2309	402.092	33.812
-37.2317	403.33	33.8315
-37.2291	406.9025	33.8511
-37.2275	400.188	33.8706
-37.2256	401.265	33.8901
-37.2246	408.056	33.9097
-37.2229	405.346	33.9292
-37.2213	400.948	33.94873
-37.2187	406.672	33.9683
-37.2173	405.681	33.9878
-37.2163	400.956	34.0073
-37.2151	407.156	34.0269
-37.21336	407.733	34.0464
-37.2121	399.489	34.0659
-37.2095	407.712	34.0854
-37.208	406.614	34.10498
-37.2065	401.034	34.1245
-37.2039	403.051	34.144
-37.2037	409.1709	34.1636
-37.2018	399.748	34.1831
-37.1994	404.125	34.2026
-37.199	405.401	34.2222
-37.1956	403.101	34.2417
-37.195	402.162	34.26123
-37.19286	407.2951	34.2808
-37.1914	401.091	34.3003
-37.1906	401.81	34.3198
-37.1884	404.824	34.3394
-37.1865	407.173	34.3589
-37.1853	400.926	34.3784
-37.1831	404.286	34.3979
-37.1824	404.88	34.41748
-37.18055	402.23	34.437
-37.1793	402.426	34.4565
-37.1772	406.36	34.4761
-37.1744	401.96	34.4956
-37.1745	403.097	34.5151
-37.1717	406.9129	34.5347
-37.1696	401.641	34.5542
-37.1694	400.622	34.57373
-37.1677	405.03	34.5933
-37.1665	406.597	34.6128
-37.1625	397.141	34.6323
-37.1631	404.46	34.6519
-37.1614	403.274	34.6714
-37.1595	400.741	34.6909
-37.1575	405.443	34.7104
-37.1556	407.07	34.72998
-37.1542	396.4545	34.7495
-37.1525	404.562	34.769
-37.1516	406.716	34.7886
-37.1507	400.328	34.8081
-37.1474	400.992	34.8276
-37.1463	409.916	34.8472
-37.1445	400.953	34.8667
-37.1436	402.637	34.88623
-37.14122	403.941	34.9058
-37.139	403.702	34.9253
-37.13884	400.387	34.9448
-37.13765	405.77	34.9644
-37.1346	400.359	34.9839
-37.1335	399.533	35.0034
-37.1315	403.187	35.0229
-37.13	406.678	35.04248
-37.1284	399.069	35.062
-37.1265	400.441	35.0815
-37.1246	403.352	35.1011
-37.1227	402.197	35.1206
-37.1215	399.606	35.1401
-37.1199	403.726	35.1597
-37.1182	403.401	35.1792
-37.1174	397.64	35.19873
-37.115	404.2482	35.2183
-37.1143	402.2399	35.2378
-37.112	397.381	35.2573
-37.1106	405.47	35.2769
-37.10899	405.93	35.2964
-37.1075	396.3512	35.3159
-37.106	402.533	35.3354
-37.1034	402.991	35.35498
-37.1027	399.357	35.3745
-37.1012	402.679	35.394
-37.0992	406.951	35.4136
-37.0965	395.761	35.4331
-37.0955	401.706	35.4526
-37.0942	402.64	35.4722
-37.0922	401.577	35.4917
-37.0911	397.636	35.51123
-37.0897	404.854	35.5308
-37.0868	399.024	35.5503
-37.0854	399.316	35.5698
-37.08408	401.223	35.5894
-37.0813	400.582	35.6089
-37.08181	397.749	35.6284
-37.0808	401.433	35.6479
-37.0767	401.175	35.66748
-37.0758	395.937	35.687
-37.074	399.022	35.7065
-37.073	402.379	35.7261
-37.0717	398.221	35.7456
-37.0691	393.583	35.7651
-37.0675	400.311	35.7847
-37.0659	397.292	35.8042
-37.0647	394.141	35.82373
-37.0629	399.6246	35.8433
-37.0602	397.76	35.8628
-37.0594	391.186	35.8823
-37.0582	399.179	35.9019
-37.0564	396.067	35.9214
-37.0557	389.222	35.9409
-37.0534	394.015	35.9604
-37.0522	397.377	35.97998
-37.04855	384.0376	35.9995
-37.0489	339.209	36.019
-37.0442	-31.3509	36.0386
-37.0439	-42.9215	36.0581
-37.0423	-37.3979	36.0776
-37.0411	-36.36	36.0972
-37.0393	-46.2646	36.1167
-37.0386	-43.57439	36.13623
-37.0359	-38.0393	36.1558
-37.0348	-40.8617	36.1753
-37.03447	-46.53067	36.1948
-37.03212	-39.3999	36.2144
-37.0294	-42.6939	36.2339
-37.0278	-45.84621	36.2534
-37.0265	-41.1529	36.2729
-37.0246	-43.3238	36.29248
-37.0243	-44.9153	36.312
-37.0218	-42.6231	36.3315
-37.02	-41.1367	36.3511
-37.0183	-45.0691	36.3706
-37.0172	-45.1194	36.3901
-37.01527	-39.029	36.4097
-37.0137	-41.8472	36.4292
-37.0121	-46.7226	36.44873
-37.0111	-38.7605	36.4683
-37.0088	-44.3826	36.4878
-37.0094	-45.4676	36.5073
-37.0045	-40.7492	36.5269
-37.0049	-41.1796	36.5464
-37.0036	-49.4166	36.5659
-36.9999	-39.8159	36.5854
-36.9989	-39.3309	36.60498
-36.9971	-44.9492	36.6245
-36.9965	-43.7317	36.644
-36.9953	-36.7058	36.6636
-36.9933	-48.2671	36.6831
-36.9914	-43.0893	36.7026
-36.9894	-39.8086	36.7222
-36.98835	-42.5791	36.7417
-36.9859	-42.21265	36.76123
-36.9846	-39.3555	36.7808
-36.9829	-45.37114	36.8003
-36.9825	-45.2695	36.8198
-36.9798	-40.18	36.8394
-36.9771	-41.2129	36.8589
-36.9766	-45.6866	36.8784
-36.9743	-42.0128	36.8979
-36.9731	-42.5338	36.91748
-36.972	-43.9955	36.937
-36.9701	-42.7413	36.9565
-36.9679	-41.0935	36.9761
-36.96677	-43.7161	36.9956
-36.9651	-47.0644	37.0151
-36.9641	-39.4572	37.0347
-36.9617	-44.951	37.0542
-36.9601	-46.7362	37.07373
-36.9594	-39.842	37.0933
-36.9582	-38.9737	37.1128
-36.9558	-48.927	37.1323
-36.9539	-39.6061	37.1519
-36.9511	-43.655	37.1714
-36.9492	-45.856	37.1909
-36.949	-42.06741	37.2104
-36.94696	-40.2385	37.22998
-36.9458	-48.9604	37.2495
-36.9437	-40.6542	37.269
-36.9421	-40.4963	37.2886
-36.9397	-45.5669	37.3081
-36.9392	-45.3916	37.3276
-36.9379	-38.4233	37.3472
-36.9363	-47.2048	37.3667
-36.9343	-44.51075	37.38623
-36.9322	-41.25	37.4058
-36.9303	-43.436	37.4253
-36.9293	-44.2647	37.4448
-36.9275	-40.0747	37.4644
-36.9268	-43.9216	37.4839
-36.9243	-46.48307	37.5034
-36.9228	-41.4096	37.5229
-36.921	-39.7819	37.54248
-36.9193	-44.5176	37.562
-36.9187	-45.0212	37.5815
-36.9159	-40.1748	37.6011
-36.914	-44.2637	37.6206
-36.9132	-44.1295	37.6401
-36.9111	-40.7548	37.6597
-36.9087	-42.5874	37.6792
-36.9072	-45.0448	37.69873
-36.907	-37.0123	37.7183
-36.9047	-44.2185	37.7378
-36.9035	-45.6013	37.7573
-36.9018	-40.2406	37.7769
-36.8993	-38.0685	37.7964
-36.89777	-49.9471	37.8159
-36.8967	-39.4902	37.8354
-36.8952	-40.8215	37.85498
-36.8926	-44.9058	37.8745
-36.8915	-41.5074	37.894
-36.8897	-38.86459	37.9136
-36.8884	-48.5888	37.9331
-36.8889	-46.985	37.9429