File: data/processed_data_files/tensile/0.254_hd_uprint_typeiv_090_r(5).dat
MTS793|BTW|ENU|1|2|.|/|:|1|0|0|A

Data Header:			0.254_hd_uprint_typeiv_090_r0			Time:	20.0183	s	4/13/2019 11:06:35 PM
Data Acquisition:	Timed
Station Name:	ft40.cfg
Test File Name:	monotonic_0.2540_typeiv_solid_4545_uprint.tst
Displacement	Force	Running Time
mm	N	s
-40.0435	-216.333	0.0227051
-40.04377	-220.298	0.0422363
-40.04369	-218.039	0.0617676
-40.0427	-216.728	0.0812988
-40.0414	-214.4157	0.10083
-40.0405	-216.044	0.120361
-40.0376	-220.06	0.139893
-40.0354	-212.076	0.159424
-40.035	-211.238	0.178955
-40.0334	-215.939	0.198486
-40.0309	-209.984	0.218018
-40.0296	-206.19	0.237549
-40.0283	-215.162	0.25708
-40.0269	-207.482	0.276611
-40.0257	-205.778	0.296143
-40.023	-208.14	0.315674
-40.0211	-206.529	0.335205
-40.0199	-198.163	0.354736
-40.0192	-207.823	0.374268
-40.0162	-204.601	0.393799
-40.0155	-198.643	0.41333
-40.014	-199.165	0.432861
-40.0119	-202.123	0.452393
-40.0099	-196.68	0.471924
-40.0083	-201.182	0.491455
-40.0063	-198.496	0.510986
-40.0062	-194.128	0.530518
-40.0039	-193.418	0.550049
-40.0025	-197.832	0.56958
-40.0005	-192.831	0.589111
-39.9985	-192.033	0.608643
-39.9975	-194.137	0.628174
-39.99564	-191.488	0.647705
-39.9938	-186.812	0.667236
-39.9917	-189.537	0.686768
-39.9909	-188.334	0.706299
-39.99	-186.171	0.72583
-39.9878	-186.586	0.745361
-39.9862	-185.6422	0.764893
-39.9844	-181.324	0.784424
-39.9829	-181.221	0.803955
-39.9813	-188.236	0.823486
-39.9795	-178.657	0.843018
-39.9786	-178.63	0.862549
-39.97686	-182.105	0.88208
-39.9741	-178.34	0.901611
-39.9725	-173.889	0.921143
-39.9715	-181.72	0.940674
-39.9702	-175.524	0.960205
-39.9694	-173.328	0.979736
-39.9659	-176.296	0.999268
-39.96476	-173.543	1.0188
-39.96302	-167.15	1.03833
-39.9626	-174.326	1.05786
-39.959	-172.592	1.07739
-39.9581	-167.039	1.09692
-39.9568	-167.211	1.11646
-39.9564	-169.009	1.13599
-39.953	-165.745	1.15552
-39.9516	-165.739	1.17505
-39.951	-166.374	1.19458
-39.949	-162.665	1.21411
-39.9473	-158.645	1.23364
-39.9456	-164.119	1.25317
-39.9438	-162.088	1.27271
-39.9413	-157.398	1.29224
-39.9395	-159.694	1.31177
-39.9391	-160.5088	1.3313
-39.9367	-154.77	1.35083
-39.936	-155.0143	1.37036
-39.9338	-161.419	1.38989
-39.9324	-152.082	1.40942
-39.9314	-154.334	1.42896
-39.9295	-154.92	1.44849
-39.92791	-149.0058	1.46802
-39.9263	-148.462	1.48755
-39.9237	-156.939	1.50708
-39.923	-146.967	1.52661
-39.9202	-145.662	1.54614
-39.9186	-149.232	1.56567
-39.9174	-147.532	1.58521
-39.9163	-142.123	1.60474
-39.914	-148.983	1.62427
-39.9127	-143.9577	1.6438
-39.9117	-139.755	1.66333
-39.9106	-141.934	1.68286
-39.9075	-142.416	1.70239
-39.9064	-135.931	1.72192
-39.9057	-141.745	1.74146
-39.9033	-140.773	1.76099
-39.902	-135.224	1.78052
-39.8998	-132.979	1.80005
-39.8985	-137.505	1.81958
-39.8969	-133.82	1.83911
-39.8939	-135.11	1.85864
-39.8935	-135.043	1.87817
-39.8907	-130.768	1.89771
-39.8888	-129.316	1.91724
-39.8891	-130.148	1.93677
-39.8868	-131.985	1.9563
-39.8847	-125.007	1.97583
-39.8833	-127.119	1.99536
-39.8817	-128.5304	2.01489
-39.8804	-123.102	2.03442
-39.8785	-121.273	2.05396
-39.8771	-128.784	2.07349
-39.8762	-120.519	2.09302
-39.874	-119.399	2.11255
-39.8739	-122.217	2.13208
-39.8697	-117.711	2.15161
-39.8705	-114.959	2.17114
-39.8672	-123.6226	2.19067
-39.8652	-114.9989	2.21021
-39.8644	-112.056	2.22974
-39.8621	-114.679	2.24927
-39.8607	-116.108	2.2688
-39.8591	-108.919	2.28833
-39.857	-113.455	2.30786
-39.8557	-112.491	2.32739
-39.8549	-107.212	2.34692
-39.8515	-109.573	2.36646
-39.8517	-110.334	2.38599
-39.84964	-104.69	2.40552
-39.8484	-108.003	2.42505
-39.8455	-108.017	2.44458
-39.8447	-104.077	2.46411
-39.8438	-99.508	2.48364
-39.8407	-102.583	2.50317
-39.8404	-103.736	2.52271
-39.839	-99.6311	2.54224
-39.8366	-102.971	2.56177
-39.8348	-98.4097	2.5813
-39.8334	-94.7027	2.60083
-39.8312	-97.1472	2.62036
-39.8296	-99.6572	2.63989
-39.8288	-90.8936	2.65942
-39.8273	-92.5935	2.67896
-39.826	-97.0057	2.69849
-39.823	-90.4025	2.71802
-39.8209	-84.9529	2.73755
-39.8209	-96.1886	2.75708
-39.8188	-87.3969	2.77661
-39.8171	-87.5496	2.79614
-39.814	-88.5656	2.81567
-39.8141	-85.3744	2.83521
-39.8112	-81.5765	2.85474
-39.8108	-89.70578	2.87427
-39.8084	-83.6159	2.8938
-39.807	-77.9177	2.91333
-39.8048	-81.0608	2.93286
-39.8033	-82.9059	2.95239
-39.8018	-78.15123	2.97192
-39.7996	-80.3486	2.99146
-39.798	-79.5639	3.01099
-39.7972	-75.7515	3.03052
-39.796	-75.7917	3.05005
-39.794	-77.8547	3.06958
-39.792	-75.2773	3.08911
-39.7923	-72.3557	3.10864
-39.7883	-77.1065	3.12817
-39.7878	-72.1737	3.14771
-39.7861	-67.2298	3.16724
-39.7844	-69.3512	3.18677
-39.7837	-73.4996	3.2063
-39.7806	-64.0792	3.22583
-39.7784	-68.0775	3.24536
-39.7782	-67.39238	3.26489
-39.7751	-61.596	3.28442
-39.7749	-64.351	3.30396
-39.7732	-71.1751	3.32349
-39.7706	-59.8718	3.34302
-39.7695	-58.74155	3.36255
-39.76823	-64.1271	3.38208
-39.7665	-58.8814	3.40161
-39.7649	-54.2411	3.42114
-39.7624	-62.1755	3.44067
-39.7615	-56.9676	3.46021
-39.7598	-55.9864	3.47974
-39.7579	-56.1166	3.49927
-39.7574	-54.2907	3.5188
-39.7548	-50.1231	3.53833
-39.755	-56.2284	3.55786
-39.7511	-54.5744	3.57739
-39.7482	-47.5437	3.59692
-39.74855	-48.2239	3.61646
-39.7471	-51.4588	3.63599
-39.7453	-48.3301	3.65552
-39.7438	-46.2947	3.67505
-39.7423	-48.3054	3.69458
-39.7398	-44.0086	3.71411
-39.73922	-43.22443	3.73364
-39.7374	-43.9484	3.75317
-39.73568	-44.6066	3.77271
-39.7337	-36.9999	3.79224
-39.7323	-43.4861	3.81177
-39.7306	-39.86	3.8313
-39.7295	-35.0576	3.85083
-39.7268	-37.138	3.87036
-39.7249	-42.3719	3.88989
-39.7252	-33.2827	3.90942
-39.7232	-34.7231	3.92896
-39.7207	-34.0316	3.94849
-39.7195	-30.3974	3.96802
-39.7178	-30.3655	3.98755
-39.7162	-37.2585	4.00708
-39.7145	-27.0124	4.02661
-39.7131	-25.7806	4.04614
-39.7109	-31.1473	4.06567
-39.7087	-27.8279	4.08521
-39.7078	-23.2544	4.10474
-39.7057	-30.9806	4.12427
-39.7036	-26.9226	4.1438
-39.70359	-22.52289	4.16333
-39.7013	-23.9904	4.18286
-39.6994	-23.1603	4.20239
-39.6981	-18.9942	4.22192
-39.6964	-22.9572	4.24146
-39.6944	-22.35305	4.26099
-39.6943	-15.2961	4.28052
-39.6908	-15.2869	4.30005
-39.69	-17.2164	4.31958
-39.6883	-18.8657	4.33911
-39.6858	-12.0057	4.35864
-39.6852	-16.0943	4.37817
-39.6833	-12.9639	4.39771
-39.682	-9.74746	4.41724
-39.6803	-12.2206	4.43677
-39.6786	-13.3583	4.4563
-39.67762	-4.96137	4.47583
-39.6757	-11.3019	4.49536
-39.6737	-9.39135	4.51489
-39.6726	-3.14746	4.53442
-39.6701	-1.84581	4.55396
-39.6684	-11.319	4.57349
-39.6667	-1.00759	4.59302
-39.66478	-1.85949	4.61255
-39.6652	-4.02044	4.63208
-39.6614	0.470477	4.65161
-39.6607	3.10636	4.67114
-39.658	-5.81145	4.69067
-39.6578	1.78677	4.71021
-39.6555	6.20091	4.72974
-39.6549	1.34103	4.74927
-39.6523	2.34521	4.7688
-39.6508	8.73763	4.78833
-39.6488	4.32094	4.80786
-39.6473	4.43245	4.82739
-39.6461	9.340951	4.84692
-39.6437	8.28249	4.86646
-39.6424	7.81138	4.88599
-39.6414	10.0713	4.90552
-39.6401	11.48965	4.92505
-39.6368	8.08148	4.94458
-39.6363	15.6859	4.96411
-39.6345	17.4429	4.98364
-39.6325	13.1683	5.00317
-39.6308	11.1181	5.02271
-39.6303	20.9929	5.04224
-39.6283	16.2633	5.06177
-39.6259	18.77	5.0813
-39.6248	21.6623	5.10083
-39.623	20.3745	5.12036
-39.6206	17.01993	5.13989
-39.62	27.2112	5.15942
-39.6181	23.0314	5.17896
-39.61602	20.2724	5.19849
-39.61536	28.4787	5.21802
-39.6126	31.8864	5.23755
-39.61187	20.43	5.25708
-39.6108	29.8932	5.27661
-39.6073	32.3428	5.29614
-39.6086	26.97282	5.31567
-39.6039	31.2082	5.33521
-39.6042	32.531	5.35474
-39.60236	28.0901	5.37427
-39.6006	32.8974	5.3938
-39.5993	38.82	5.41333
-39.5976	33.8141	5.43286
-39.5954	33.52282	5.45239
-39.5936	39.9591	5.47192
-39.5922	38.3395	5.49146
-39.5909	35.0446	5.51099
-39.589	41.0211	5.53052
-39.5872	42.9485	5.55005
-39.586	41.682	5.56958
-39.5836	41.4468	5.58911
-39.5821	47.2572	5.60864
-39.58131	39.3489	5.62817
-39.5792	46.2886	5.64771
-39.5776	50.2091	5.66724
-39.5767	47.0157	5.68677
-39.5746	43.5473	5.7063
-39.5732	55.121	5.72583
-39.5703	47.9082	5.74536
-39.569	49.5752	5.76489
-39.5681	54.8538	5.78442
-39.5658	55.6378	5.80396
-39.5655	48.8896	5.82349
-39.5635	59.3418	5.84302
-39.5608	56.696	5.86255
-39.5605	52.4427	5.88208
-39.5582	58.79324	5.90161
-39.5571	60.7322	5.92114
-39.55431	53.83638	5.94067
-39.5526	59.5794	5.96021
-39.5518	65.5287	5.97974
-39.54948	60.5079	5.99927
-39.5482	62.5	6.0188
-39.5469	64.147	6.03833
-39.54475	62.0917	6.05786
-39.54409	62.4221	6.07739
-39.5426	71.9586	6.09692
-39.5408	68.4415	6.11646
-39.5387	65.9985	6.13599
-39.5366	69.8789	6.15552
-39.5368	74.0584	6.17505
-39.53405	67.7974	6.19458
-39.5324	73.6622	6.21411
-39.52998	76.571	6.23364
-39.5292	73.8323	6.25317
-39.5278	71.2428	6.27271
-39.5258	79.9031	6.29224
-39.5246	73.3144	6.31177
-39.5217	77.44973	6.3313
-39.5211	84.6432	6.35083
-39.5191	80.4864	6.37036
-39.5185	73.7277	6.38989
-39.5157	86.5408	6.40942
-39.51511	83.9781	6.42896
-39.5117	80.3013	6.44849
-39.5118	86.3459	6.46802
-39.5092	86.27063	6.48755
-39.5075	81.7368	6.50708
-39.5067	89.6643	6.52661
-39.5036	90.6153	6.54614
-39.5029	86.4188	6.56567
-39.5009	90.0697	6.58521
-39.5012	93.4154	6.60474
-39.496	87.6	6.62427
-39.4969	88.921	6.6438
-39.494	96.9897	6.66333
-39.4943	93.2947	6.68286
-39.4919	93.84	6.70239
-39.4886	96.3982	6.72192
-39.48772	97.1075	6.74146
-39.4865	94.2968	6.76099
-39.4847	103.155	6.78052
-39.4844	102.7492	6.80005
-39.4807	98.3066	6.81958
-39.4808	99.0077	6.83911
-39.4784	107.659	6.85864
-39.4764	97.887	6.87817
-39.4745	104.167	6.89771
-39.4734	109.174	6.91724
-39.4714	106.455	6.93677
-39.469	103.22	6.9563
-39.468	110.64	6.97583
-39.4662	106.282	6.99536
-39.4657	108.328	7.01489
-39.4635	114.09	7.03442
-39.46257	111.449	7.05396
-39.4597	105.152	7.07349
-39.4587	116.431	7.09302
-39.4567	115.511	7.11255
-39.4548	111.787	7.13208
-39.4541	116.954	7.15161
-39.4525	118.966	7.17114
-39.4509	113.8672	7.19067
-39.4486	118.03	7.21021
-39.4477	122.667	7.22974
-39.4453	117.711	7.24927
-39.4445	121.178	7.2688
-39.4435	122.472	7.28833
-39.4408	121.547	7.30786
-39.439	118.492	7.32739
-39.4375	129.619	7.34692
-39.4351	128.237	7.36646
-39.4337	124.546	7.38599
-39.4328	125.49	7.40552
-39.4319	130.464	7.42505
-39.4297	125.698	7.44458
-39.4297	131.814	7.46411
-39.4271	133.643	7.48364
-39.4252	128.984	7.50317
-39.42218	129.515	7.52271
-39.4205	138.032	7.54224
-39.4201	130.572	7.56177
-39.4187	133.35	7.5813
-39.4165	138.467	7.60083
-39.4159	136.257	7.62036
-39.4131	134.061	7.63989
-39.4108	142.3148	7.65942
-39.4099	139.661	7.67896
-39.4085	138.38	7.69849
-39.407	144.303	7.71802
-39.40461	143.492	7.73755
-39.40337	137.194	7.75708
-39.4022	144.4614	7.77661
-39.3993	148.406	7.79614
-39.39994	143.764	7.81567
-39.3974	146.171	7.83521
-39.3937	147.425	7.85474
-39.3936	147.717	7.87427
-39.3928	146.607	7.8938
-39.392	153.8304	7.91333
-39.3891	151.441	7.93286
-39.3873	151.061	7.95239
-39.3854	154.008	7.97192
-39.3828	155.968	7.99146
-39.3818	150.121	8.01099
-39.37978	158.043	8.03052
-39.3794	160.395	8.05005
-39.3768	154.548	8.06958
-39.3763	155.825	8.08911
-39.37389	163.283	8.10864
-39.3722	158.116	8.12817
-39.37151	161.844	8.14771
-39.3694	166.109	8.16724
-39.368	160.54	8.18677
-39.366	158.5453	8.2063
-39.3644	168.527	8.22583
-39.3627	164.56	8.24536
-39.3606	161.865	8.26489
-39.3586	170.227	8.28442
-39.35767	166.1219	8.30396
-39.3563	163.595	8.32349
-39.3558	172.347	8.34302
-39.3529	172.456	8.36255
-39.3515	166.522	8.38208
-39.3496	174.406	8.40161
-39.3472	173.2455	8.42114
-39.3469	169.551	8.44067
-39.3449	173.315	8.46021
-39.3445	180.173	8.47974
-39.3424	175.506	8.49927
-39.3401	177.427	8.5188
-39.33876	177.776	8.53833
-39.33667	179.428	8.55786
-39.33585	176.233	8.57739
-39.3335	185.604	8.59692
-39.3313	180.293	8.61646
-39.3301	180.036	8.63599
-39.3276	183.518	8.65552
-39.327	188.58	8.67505
-39.32618	181.311	8.69458
-39.3239	187.029	8.71411
-39.3218	191.486	8.73364
-39.3212	185.715	8.75317
-39.3191	184.349	8.77271
-39.3177	193.184	8.79224
-39.3156	188.449	8.81177
-39.3136	189.1917	8.8313
-39.312	196.335	8.85083
-39.3115	189.685	8.87036
-39.3091	188.759	8.88989
-39.3077	197.784	8.90942
-39.3062	196.901	8.92896
-39.3045	193.225	8.94849
-39.3031	199.457	8.96802
-39.3018	198.328	8.98755
-39.3003	196.512	9.00708
-39.2979	198.672	9.02661
-39.2956	204.065	9.04614
-39.2955	199.411	9.06567
-39.2931	204.778	9.08521
-39.2911	203.524	9.10474
-39.2893	203.063	9.12427
-39.2885	202.357	9.1438
-39.2858	210.903	9.16333
-39.2853	207.7625	9.18286
-39.2825	205.281	9.20239
-39.2825	206.836	9.22192
-39.2803	212.822	9.24146
-39.2787	205.763	9.26099
-39.2762	213.514	9.28052
-39.27528	212.384	9.30005
-39.2736	208.705	9.31958
-39.27206	211.251	9.33911
-39.27	217.277	9.35864
-39.269	210.43	9.37817
-39.2665	213.329	9.39771
-39.2653	220.494	9.41724
-39.2641	214	9.43677
-39.2627	213.993	9.4563
-39.2611	221.835	9.47583
-39.2589	220.576	9.49536
-39.2569	218.067	9.51489
-39.25602	226.136	9.53442
-39.2544	220.009	9.55396
-39.2533	220.25	9.57349
-39.24984	225.106	9.59302
-39.249	228.53	9.61255
-39.2478	222.352	9.63208
-39.2462	228.63	9.65161
-39.2436	226.941	9.67114
-39.242	227.986	9.69067
-39.2406	226.629	9.71021
-39.2383	232.784	9.72974
-39.2368	229.969	9.74927
-39.2358	231.0181	9.7688
-39.2341	232.349	9.78833
-39.2328	233.306	9.80786
-39.2308	231.834	9.82739
-39.229	239.3394	9.84692
-39.2281	237.08	9.86646
-39.2261	231.5041	9.88599
-39.2247	235.244	9.90552
-39.22266	242.002	9.92505
-39.2214	235.6237	9.94458
-39.21978	240.3429	9.96411
-39.2187	243.604	9.98364
-39.2163	236.5901	10.0032
-39.2144	241.298	10.0227
-39.2128	246.7653	10.0422
-39.2113	242.607	10.0618
-39.2098	242.478	10.0813
-39.2092	251.92	10.10083
-39.2062	244.469	10.1204
-39.2045	244.081	10.1399
-39.2033	249.4818	10.1594
-39.2026	251.37	10.179
-39.2007	247.152	10.1985
-39.1986	254.263	10.218
-39.1973	251.099	10.2375
-39.195	250.496	10.25708
-39.1929	254.309	10.2766
-39.1914	258.762	10.2961
-39.19	251.531	10.3157
-39.1889	255.309	10.3352
-39.1876	256.746	10.3547
-39.18539	256.653	10.3743
-39.1846	254.258	10.3938
-39.1831	261.382	10.41333
-39.1804	258.666	10.4329
-39.1806	258.012	10.4524
-39.178	260.494	10.4719
-39.1761	262.412	10.4915
-39.1733	259.0914	10.511
-39.1723	266.433	10.5305
-39.1712	268.562	10.55
-39.16988	259.244	10.56958
-39.168	264.384	10.5891
-39.1656	271.775	10.6086
-39.16396	265.114	10.6282
-39.16254	267.045	10.6477
-39.16045	273.785	10.6672
-39.15926	266.46	10.6868
-39.15794	271.262	10.7063
-39.1561	274.894	10.72583
-39.1533	272.681	10.7454
-39.1527	271.324	10.7649
-39.1518	279.932	10.7844
-39.1499	274.568	10.804
-39.1485	273.872	10.8235
-39.1471	278.413	10.843
-39.1434	281.184	10.8625
-39.1438	276.385	10.88208
-39.1413	280.96	10.9016
-39.1403	278.207	10.9211
-39.1382	279.65	10.9407
-39.1354	281.807	10.9602
-39.1349	287.143	10.9797
-39.1333	282.676	10.9993
-39.1314	281.792	11.0188
-39.1308	287.7	11.03833
-39.1293	286.672	11.0579
-39.1261	283.192	11.0774
-39.1246	289.865	11.0969
-39.12463	290.717	11.1165
-39.1225	286.959	11.136
-39.1208	289.746	11.1555
-39.1192	290.5932	11.175
-39.1176	287.818	11.19458
-39.11573	292.215	11.2141
-39.113	299.0946	11.2336
-39.1131	287.814	11.2532
-39.1102	292.233	11.2727
-39.1092	297.458	11.2922
-39.1082	294.329	11.3118
-39.1058	293.991	11.3313
-39.1056	300.268	11.35083
-39.1028	295.885	11.3704
-39.1007	297.773	11.3899
-39.0982	301.863	11.4094
-39.0973	301.201	11.429
-39.0954	298.377	11.4485
-39.0939	306.301	11.468
-39.0919	301.703	11.4875
-39.092	301.9248	11.50708
-39.0894	304.132	11.5266
-39.0888	310.148	11.5461
-39.0857	304.843	11.5657
-39.0846	305.426	11.5852
-39.082	307.633	11.6047
-39.0828	307.225	11.6243
-39.08	308.323	11.6438
-39.0774	312.83	11.66333
-39.07645	309.673	11.6829
-39.076	307.382	11.7024
-39.0725	313.254	11.7219
-39.0722	314.876	11.7415
-39.0709	309.295	11.761
-39.0675	315.611	11.7805
-39.06723	318.41	11.8
-39.0645	311.3801	11.81958
-39.0641	316.053	11.8391
-39.062	319.372	11.8586
-39.0605	316.802	11.8782
-39.05888	319.473	11.8977
-39.0568	326.044	11.9172
-39.0554	314.641	11.9368
-39.0543	320.212	11.9563
-39.0526	325.419	11.97583
-39.0506	324.528	11.9954
-39.0489	320.548	12.0149
-39.0466	328.426	12.0344
-39.0468	321.3569	12.054
-39.0444	324.066	12.0735
-39.0422	327.901	12.093
-39.0398	328.092	12.1125
-39.0391	324.934	12.13208
-39.0374	330.148	12.1516
-39.0362	330.311	12.1711
-39.0343	327.512	12.1907
-39.032	328.008	12.2102
-39.0311	333.191	12.2297
-39.0291	330.709	12.2493
-39.0271	328.106	12.2688
-39.0257	334.241	12.28833
-39.0243	333.512	12.3079
-39.0225	331.9693	12.3274
-39.0211	338.96	12.3469
-39.0193	337.141	12.3665
-39.0186	331.627	12.386
-39.015	339.171	12.4055
-39.0144	341.746	12.425
-39.0131	336.158	12.44458
-39.0116	339.902	12.4641
-39.00983	345.202	12.4836
-39.008	335.053	12.5032
-39.0047	341.506	12.5227
-39.0046	345.5694	12.5422
-39.0022	342.147	12.5618
-39.0014	344.646	12.5813
-39	348.155	12.60083
-38.9982	342.29	12.6204
-38.996	343.888	12.6399
-38.996	349.17	12.6594
-38.994	348.762	12.679
-38.9908	343.866	12.6985
-38.9895	349.344	12.718
-38.9881	348.037	12.7375
-38.9867	347.845	12.75708
-38.9859	351.31	12.7766
-38.985	354.107	12.7961
-38.9824	349.504	12.8157
-38.9798	352.081	12.8352
-38.9786	354.091	12.8547
-38.9778	351.717	12.8743
-38.9745	354.124	12.8938
-38.9737	359.23	12.91333
-38.9724	356.849	12.9329
-38.971	350.948	12.9524
-38.96933	359.1015	12.9719
-38.9683	358.578	12.9915
-38.9661	356.569	13.011
-38.9627	361.028	13.0305
-38.9628	362.776	13.05
-38.9615	354.291	13.06958
-38.9588	364.222	13.0891
-38.9579	364.709	13.1086
-38.956	360.319	13.1282
-38.9544	362.233	13.1477
-38.9533	368.156	13.1672
-38.9518	358.947	13.1868
-38.9499	364.916	13.2063
-38.9481	365.913	13.22583
-38.9461	366.6936	13.2454
-38.9452	366.116	13.2649
-38.9431	371.023	13.2844
-38.9417	363.931	13.304
-38.9403	366.305	13.3235
-38.9372	371.126	13.343
-38.9374	372.579	13.3625
-38.9352	368.104	13.38208
-38.9331	369.558	13.4016
-38.9304	371.929	13.4211
-38.93	371.05	13.4407
-38.9287	371.719	13.4602
-38.9248	375.059	13.4797
-38.9251	373.861	13.4993
-38.9233	372.705	13.5188
-38.92128	379.648	13.53833
-38.9199	375.41	13.5579
-38.9175	374.479	13.5774
-38.9165	382.532	13.5969
-38.9148	380.773	13.6165
-38.9141	372.404	13.636
-38.9123	380.269	13.6555
-38.9101	380.729	13.675
-38.9088	377.199	13.69458
-38.9075	381.67	13.7141
-38.9058	385.13	13.7336
-38.9037	375.533	13.7532
-38.90176	384.2403	13.7727
-38.9008	387.1467	13.7922
-38.8985	382.091	13.8118
-38.8973	382.698	13.8313
-38.8951	387.886	13.85083
-38.8936	383.082	13.8704
-38.892	384.838	13.8899
-38.8912	388.071	13.9094
-38.8889	389.334	13.929
-38.88752	385.171	13.9485
-38.8868	388.786	13.968
-38.88427	387.616	13.9875
-38.8815	384.537	14.00708
-38.8806	389.871	14.0266
-38.8796	393.718	14.0461
-38.8789	389.099	14.0657
-38.8763	387.797	14.0852
-38.8752	396.524	14.1047
-38.8731	389.286	14.1243
-38.8713	392.057	14.1438
-38.8695	397.015	14.16333
-38.8683	394.908	14.1829
-38.8679	389.795	14.2024
-38.8658	398.845	14.2219
-38.8634	394.82	14.2415
-38.8626	392.684	14.261
-38.8604	399.529	14.2805
-38.8587	399.648	14.3
-38.85651	390.3222	14.31958
-38.856	399.846	14.3391
-38.8534	400.22	14.3586
-38.8513	397.822	14.3782
-38.8506	400.32	14.3977
-38.8486	403.3483	14.4172
-38.84679	394.958	14.4368
-38.8462	401.475	14.4563
-38.84362	404.002	14.47583
-38.8415	401.422	14.4954
-38.8404	399.408	14.5149
-38.8394	404.933	14.5344
-38.8369	402.471	14.554
-38.8343	401.748	14.5735
-38.8339	404.769	14.593
-38.8328	405.119	14.6125
-38.8304	402.195	14.63208
-38.8289	404.4053	14.6516
-38.82719	408.467	14.6711
-38.825	402.075	14.6907
-38.8244	406.868	14.7102
-38.8227	412.002	14.7297
-38.8209	405.997	14.7493
-38.8188	403.17	14.7688
-38.8172	414.922	14.78833
-38.816	409.097	14.8079
-38.8148	408.111	14.8274
-38.8123	412.958	14.8469
-38.8107	410.061	14.8665
-38.8086	404.889	14.886
-38.8082	415.664	14.9055
-38.807	411.352	14.925
-38.8049	407.762	14.94458
-38.803	414.087	14.9641
-38.8006	415.853	14.9836
-38.8002	406.419	15.0032
-38.7982	412.473	15.0227
-38.7975	415.954	15.0422
-38.7967	411.583	15.0618
-38.793	412.264	15.0813
-38.7907	416.744	15.10083
-38.7896	411.58	15.1204
-38.7889	413.622	15.1399
-38.7874	417.78	15.1594
-38.7845	414.502	15.179
-38.7831	413.374	15.1985
-38.7816	416.383	15.218
-38.781	420.321	15.2375
-38.77914	413.672	15.25708
-38.778	417.294	15.2766
-38.7757	420.963	15.2961
-38.7728	417.271	15.3157
-38.7719	417.264	15.3352
-38.771	422.004	15.3547
-38.7694	415.914	15.3743
-38.766	418.56	15.3938
-38.7667	424.708	15.41333
-38.7641	419.099	15.4329
-38.7621	412.044	15.4524
-38.7611	425.0137	15.4719
-38.7588	422.381	15.4915
-38.7579	419.954	15.511
-38.756	424.766	15.5305
-38.7544	424.36	15.55
-38.7522	415.618	15.56958
-38.7514	424.175	15.5891
-38.7501	424.279	15.6086
-38.7466	419.08	15.6282
-38.7459	423.365	15.6477
-38.7437	426.7901	15.6672
-38.743	419.484	15.6868
-38.7417	419.848	15.7063
-38.7396	426.819	15.72583
-38.738	424.525	15.7454
-38.7366	424.041	15.7649
-38.7343	425.398	15.7844
-38.73365	424.11	15.804
-38.7316	421.124	15.8235
-38.7304	429.003	15.843
-38.7285	427.338	15.8625
-38.7272	422.97	15.88208
-38.7248	425.32	15.9016
-38.7242	431.309	15.9211
-38.7215	421.628	15.9407
-38.7188	425.8324	15.9602
-38.7184	430.084	15.9797
-38.7167	426.39	15.9993
-38.7144	422.231	16.0188
-38.7136	431.191	16.03833
-38.7117	425.7	16.0579
-38.7104	425.302	16.0774
-38.7077	431.159	16.0969
-38.70681	428.485	16.1165
-38.7052	420.291	16.136
-38.7039	430.751	16.1555
-38.7019	432.3959	16.175
-38.6988	425.274	16.19458
-38.698	429.099	16.2141
-38.6971	430.639	16.2336
-38.6953	424.255	16.2532
-38.6935	429.653	16.2727
-38.6924	432.15	16.2922
-38.69059	427.366	16.3118
-38.6887	429.63	16.3313
-38.6881	430.842	16.35083
-38.6859	427.909	16.3704
-38.68428	426.106	16.3899
-38.6823	433.632	16.4094
-38.6813	430.723	16.429
-38.6799	427.838	16.4485
-38.6774	429.917	16.468
-38.6767	432.985	16.4875
-38.6747	426.791	16.50708
-38.6742	433.604	16.5266
-38.6714	432.6124	16.5461
-38.6701	428.54	16.5657
-38.6674	427.623	16.5852
-38.6668	437.243	16.6047
-38.6653	428.525	16.6243
-38.6642	431.521	16.6438
-38.6604	434.587	16.66333
-38.6602	431.233	16.6829
-38.6589	427.031	16.7024
-38.6564	436.553	16.7219
-38.6555	431.241	16.7415
-38.6535	429.162	16.761
-38.652	434.274	16.7805
-38.6492	433.978	16.8
-38.6486	426.527	16.81958
-38.6467	432.624	16.8391
-38.64576	436.306	16.8586
-38.6435	428.849	16.8782
-38.6421	433.561	16.8977
-38.6407	434.1283	16.9172
-38.6394	430.601	16.9368
-38.6364	430.765	16.9563
-38.636	436.397	16.97583
-38.6344	431.662	16.9954
-38.6334	430.9111	17.0149
-38.6306	434.218	17.0344
-38.6284	434.68	17.054
-38.6276	426.323	17.0735
-38.6255	435.955	17.093
-38.6237	436.947	17.1125
-38.6228	429.836	17.13208
-38.6205	430.77	17.1516
-38.6189	436.925	17.1711
-38.6173	429.214	17.1907
-38.6164	432.478	17.2102
-38.6144	436.016	17.2297
-38.6108	431.161	17.2493
-38.6111	429.0947	17.2688
-38.6097	438.81	17.28833
-38.6069	431.787	17.3079
-38.6063	428.837	17.3274
-38.6038	437.25	17.3469
-38.6032	432.909	17.3665
-38.6009	427.8638	17.386
-38.6004	435.507	17.4055
-38.5981	433.3316	17.425
-38.5964	430.507	17.44458
-38.5929	435.845	17.4641
-38.5933	434.597	17.4836
-38.5918	426.955	17.5032
-38.5904	431.497	17.5227
-38.588	437.2536	17.5422
-38.587	431.449	17.5618
-38.5858	432.639	17.5813
-38.5842	434.923	17.60083
-38.5819	434.932	17.6204
-38.5804	429.3765	17.6399
-38.5787	437.3349	17.6594
-38.5763	432.0498	17.679
-38.5751	432	17.6985
-38.5736	432.846	17.718
-38.5727	435.722	17.7375
-38.5714	427.466	17.75708
-38.5686	435.415	17.7766
-38.567	437.509	17.7961
-38.5654	430.828	17.8157
-38.5628	428.659	17.8352
-38.5626	435.856	17.8547
-38.5609	430.446	17.8743
-38.5588	431.517	17.8938
-38.5579	437.645	17.91333
-38.5559	430.757	17.9329
-38.5538	427.229	17.9524
-38.5528	434.948	17.9719
-38.5503	431.534	17.9915
-38.5497	426.282	18.011
-38.5489	435.987	18.0305
-38.546	433.7948	18.05
-38.54472	428.267	18.06958
-38.5424	431.9024	18.0891
-38.5412	434.34	18.1086
-38.5401	428.7	18.1282
-38.5376	431.356	18.1477
-38.5356	434.019	18.1672
-38.5347	430.207	18.1868
-38.5328	428.855	18.2063
-38.5307	436.522	18.22583
-38.5287	431.39	18.2454
-38.5279	429.071	18.2649
-38.5265	430.518	18.2844
-38.5242	435.259	18.304
-38.5224	426.498	18.3235
-38.5207	433.824	18.343
-38.5205	433.018	18.3625
-38.5192	427.613	18.38208
-38.516	429.243	18.4016
-38.5159	434.615	18.4211
-38.5124	425.95	18.4407
-38.5116	430.347	18.4602
-38.5097	436.134	18.4797
-38.5089	428.907	18.4993
-38.5068	424.0282	18.5188
-38.50391	433.396	18.53833
-38.5031	428.325	18.5579
-38.5021	426.273	18.5774
-38.5007	434.455	18.5969
-38.49892	428.709	18.6165
-38.4976	424.985	18.636
-38.4959	431.766	18.6555
-38.4937	432.153	18.675
-38.4922	423.794	18.69458
-38.4916	431.472	18.7141
-38.4889	429.856	18.7336
-38.4874	426.56	18.7532
-38.4862	424.992	18.7727
-38.4835	433.034	18.7922
-38.482	427.886	18.8118
-38.48074	429.254	18.8313
-38.4789	428.35	18.85083
-38.4779	427.5509	18.8704
-38.4757	424.506	18.8899
-38.4757	432.168	18.9094
-38.47282	428.591	18.929
-38.4703	424.305	18.9485
-38.47	425.938	18.968
-38.4675	432.297	18.9875
-38.4654	424.141	19.00708
-38.4649	428.57	19.0266
-38.4626	430.992	19.0461
-38.4609	425.62	19.0657
-38.4584	425.765	19.0852
-38.4583	431.228	19.1047
-38.4563	423.702	19.1243
-38.4549	423.353	19.1438
-38.4534	432.922	19.16333
-38.4525	425.096	19.1829
-38.449	422.19	19.2024
-38.4482	429.728	19.2219
-38.4479	428.576	19.2415
-38.4441	422.489	19.261
-38.4438	429.852	19.2805
-38.4423	424.784	19.3
-38.4408	424.127	19.31958
-38.4383	427.578	19.3391
-38.4364	431.81	19.3586
-38.4355	423.069	19.3782
-38.4336	426.507	19.3977
-38.4315	426.24	19.4172
-38.43	425.8461	19.4368
-38.4289	420.993	19.4563
-38.4264	429.366	19.47583
-38.4258	426.514	19.4954
-38.4236	425.686	19.5149
-38.4225	426.034	19.5344
-38.4214	425.88	19.554
-38.4195	420.816	19.5735
-38.4161	428.077	19.593
-38.4157	427.367	19.6125
-38.4142	419.213	19.63208
-38.4123	421.7803	19.6516
-38.4106	428.812	19.6711
-38.4096	421.301	19.6907
-38.4079	422.753	19.7102
-38.4066	430.164	19.7297
-38.4047	421.359	19.7493
-38.404	421.71	19.7688
-38.4021	428.222	19.78833
-38.399	424.389	19.8079
-38.3981	421.535	19.8274
-38.3958	428.834	19.8469
-38.3946	421.993	19.8665
-38.3931	419.619	19.886
-38.3906	423.6478	19.9055
-38.3895	426.957	19.925
-38.38784	422.117	19.94458
-38.3864	424.905	19.9641
-38.3849	423.218	19.9836
-38.3829	421.755	20.0032
-38.38287	420.241	20.0129

Data Header:			0.254_hd_uprint_typeiv_090_r0			Time:	32.2991	s	4/13/2019 11:06:48 PM
Data Acquisition:	Timed
Station Name:	ft40.cfg
Test File Name:	monotonic_0.2540_typeiv_solid_4545_uprint.tst
Displacement	Force	Running Time
mm	N	s
-38.3811	422.728	20.0227
-38.3811	422.818	20.0325
-38.3805	428.751	20.0422
-38.379	424.551	20.052
-38.3788	420.464	20.0618
-38.3771	419.408	20.0715
-38.3766	420.792	20.0813
-38.3767	424.895	20.0911
-38.375	424.409	20.10083
-38.3744	423.281	20.1106
-38.3735	424.453	20.1204
-38.37302	420.455	20.1301
-38.3717	418.411	20.1399
-38.37096	420.561	20.1497
-38.3706	425.518	20.1594
-38.3693	427.254	20.1692
-38.3689	423.9624	20.179
-38.367	419.105	20.1887
-38.3667	418.849	20.1985
-38.3658	422.122	20.2083
-38.3653	423.239	20.218
-38.3632	425.9288	20.2278
-38.3637	423.55	20.2375
-38.3629	423.3273	20.2473
-38.3615	417.9826	20.25708
-38.3623	415.453	20.2668
-38.3607	422.874	20.2766
-38.3601	426.501	20.2864
-38.3593	427.44	20.2961
-38.3573	420.884	20.3059
-38.3581	417.54	20.3157
-38.35701	421.141	20.3254
-38.3557	418.331	20.3352
-38.355	425.502	20.345
-38.354	426.905	20.3547
-38.353	422.669	20.3645
-38.353	420.363	20.3743
-38.3505	414.6611	20.384
-38.3503	419.866	20.3938
-38.3504	423.78	20.4036
-38.3487	426.171	20.41333
-38.3477	423.57	20.4231
-38.34758	417.8	20.4329
-38.3474	417.807	20.4426
-38.3466	418.465	20.4524
-38.34515	421.341	20.4622
-38.344	422.583	20.4719
-38.3437	425.744	20.4817
-38.3422	420.273	20.4915
-38.3412	416.887	20.5012
-38.3412	418.1658	20.511
-38.3406	418.866	20.5208
-38.3392	424.9249	20.5305
-38.3377	422.245	20.5403
-38.33836	420.741	20.55
-38.3361	420.2	20.5598
-38.3367	419.399	20.56958
-38.3355	419.952	20.5793
-38.3336	420.555	20.5891
-38.3337	423.708	20.5989
-38.3339	425.554	20.6086
-38.3327	419.87	20.6184
-38.3304	419.247	20.6282
-38.3299	416.138	20.6379
-38.3292	420.468	20.6477
-38.3287	425.254	20.6575
-38.3288	420.485	20.6672
-38.3268	422.084	20.677
-38.3258	419.649	20.6868
-38.3251	418.806	20.6965
-38.3243	417.756	20.7063
-38.3226	419.69	20.7161
-38.3245	424.179	20.72583
-38.3223	425.067	20.7356
-38.3211	420.52	20.7454
-38.3204	418.678	20.7551
-38.3196	418.6	20.7649
-38.3188	422.2876	20.7747
-38.3182	422.242	20.7844
-38.3183	422.684	20.7942
-38.316	423.53	20.804
-38.3166	419.535	20.8137
-38.3148	416.969	20.8235
-38.3139	417.343	20.8333
-38.3135	420.754	20.843
-38.312	426.4205	20.8528
-38.3111	424.925	20.8625
-38.3108	415.858	20.8723
-38.31	417.739	20.88208
-38.31	417.731	20.8918
-38.3079	420.326	20.9016
-38.30761	425.974	20.9114
-38.3061	421.896	20.9211
-38.3051	421.5723	20.9309
-38.3065	417.816	20.9407
-38.3035	413.948	20.9504
-38.3039	420.154	20.9602
-38.3024	423.462	20.97
-38.3015	425.732	20.9797
-38.3011	420.76	20.9895
-38.3004	415.51	20.9993
-38.2986	417.247	21.009
-38.29871	418.787	21.0188
-38.2982	421.352	21.0286
-38.2978	423.7749	21.03833
-38.2963	420.68	21.0481
-38.2949	420.007	21.0579
-38.295	413.638	21.0676
-38.2945	415.944	21.0774
-38.2918	420.883	21.0872
-38.2922	424.547	21.0969
-38.291	422.891	21.1067
-38.2899	418.212	21.1165
-38.29007	416.639	21.1262
-38.2887	416.207	21.136
-38.2881	419.296	21.1458
-38.2871	420.332	21.1555
-38.2866	422.164	21.1653
-38.2852	422.67	21.175
-38.2844	418.246	21.1848
-38.2838	416.409	21.19458
-38.2824	418.109	21.2043
-38.2825	422.806	21.2141
-38.28204	421.292	21.2239
-38.2815	421.086	21.2336
-38.28	419.41	21.2434
-38.279	417.287	21.2532
-38.2783	417.728	21.2629
-38.2777	419.044	21.2727
-38.2762	419.918	21.2825
-38.2765	423.875	21.2922
-38.275	421.353	21.302
-38.2742	419.145	21.3118
-38.2737	413.594	21.3215
-38.27211	417.507	21.3313
-38.2723	422.178	21.3411
-38.2701	420.235	21.35083
-38.2693	422.635	21.3606
-38.2697	418.483	21.3704
-38.2693	415.99	21.3801
-38.26725	417.148	21.3899
-38.2674	417.344	21.3997
-38.2656	424.403	21.4094
-38.2661	423.4473	21.4192
-38.26384	419.63	21.429
-38.2642	415.5015	21.4387
-38.2622	414.4657	21.4485
-38.2624	419.575	21.4583
-38.2606	420.676	21.468
-38.2616	422.522	21.4778
-38.26	421.417	21.4875
-38.2588	418.63	21.4973
-38.2577	415.389	21.50708
-38.2556	412.88	21.5168
-38.2565	418.388	21.5266
-38.2547	422.886	21.5364
-38.2543	425.173	21.5461
-38.2537	417.811	21.5559
-38.25436	413.621	21.5657
-38.2518	415.133	21.5754
-38.2513	418.062	21.5852
-38.2498	422.73	21.595
-38.251	421.499	21.6047
-38.2498	420.391	21.6145
-38.2481	418.185	21.6243
-38.2474	412.6011	21.634
-38.2468	417.425	21.6438
-38.24585	421.368	21.6536
-38.2448	425.019	21.66333
-38.2433	420.733	21.6731
-38.2433	415.244	21.6829
-38.2416	416.039	21.6926
-38.2414	416.578	21.7024
-38.2405	419.764	21.7122
-38.2394	422.286	21.7219
-38.23914	419.523	21.7317
-38.2391	420.441	21.7415
-38.2375	413.9151	21.7512
-38.2361	415.791	21.761
-38.2357	417.82	21.7708
-38.23497	419.621	21.7805
-38.2337	424.822	21.7903
-38.2341	417.08	21.8
-38.2328	416.192	21.8098
-38.2321	417.453	21.81958
-38.2314	416.799	21.8293
-38.2306	418.104	21.8391
-38.2295	419.19	21.8489
-38.2288	420.225	21.8586
-38.2276	418.947	21.8684
-38.2268	415.816	21.8782
-38.2255	414.986	21.8879
-38.226	419.108	21.8977
-38.22377	420.393	21.9075
-38.2232	418.36	21.9172
-38.223	419.889	21.927
-38.2221	417.822	21.9368
-38.22073	417.013	21.9465
-38.2205	415.046	21.9563
-38.2195	416.2919	21.9661
-38.2184	421.426	21.97583
-38.2183	419.921	21.9856
-38.2174	419.818	21.9954
-38.2163	412.762	22.0051
-38.2158	412.35	22.0149
-38.2139	418.567	22.0247
-38.2139	418.468	22.0344
-38.2136	422.911	22.0442
-38.2123	419.164	22.054
-38.2111	414.5303	22.0637
-38.2112	412.883	22.0735
-38.2097	412.323	22.0833
-38.20892	420.839	22.093
-38.2077	422.867	22.1028
-38.2075	419.877	22.1125
-38.2066	415.577	22.1223
-38.2049	410.472	22.13208
-38.2058	415.6633	22.1418
-38.2042	418.47	22.1516
-38.2039	420.846	22.1614
-38.2023	421.149	22.1711
-38.2009	417.127	22.1809
-38.1998	414.841	22.1907
-38.2013	413.386	22.2004
-38.1997	415.513	22.2102
-38.1982	422.3121	22.22
-38.1975	423.796	22.2297
-38.1956	417.733	22.2395
-38.1964	412.477	22.2493
-38.194	414.252	22.259
-38.1951	416.454	22.2688
-38.1932	419.93	22.2786
-38.1921	418.667	22.28833
-38.1926	418.638	22.2981
-38.1912	416.511	22.3079
-38.1892	410.861	22.3176
-38.1898	414.987	22.3274
-38.18803	416.3067	22.3372
-38.1885	421.25	22.3469
-38.187	421.83	22.3567
-38.1862	415.8519	22.3665
-38.1852	416.09	22.3762
-38.1845	412.566	22.386
-38.1837	417.081	22.3958
-38.18359	419.472	22.4055
-38.1813	416.505	22.4153
-38.1816	419.643	22.425
-38.18	416.207	22.4348
-38.1799	413.551	22.44458
-38.1787	413.822	22.4543
-38.1785	416.769	22.4641
-38.1767	421.56	22.4739
-38.1768	418.18	22.4836
-38.176	417.534	22.4934
-38.1754	414.768	22.5032
-38.1745	414.78	22.5129
-38.1731	416.503	22.5227
-38.1728	417.164	22.5325
-38.1714	420.182	22.5422
-38.171	419.035	22.552
-38.17004	416.212	22.5618
-38.1695	411.513	22.5715
-38.1681	412.974	22.5813
-38.16692	418.763	22.5911
-38.16663	417.6701	22.60083
-38.1658	420.4921	22.6106
-38.1654	414.381	22.6204
-38.1642	415.474	22.6301
-38.1623	413.817	22.6399
-38.163	413.768	22.6497
-38.1607	419.794	22.6594
-38.1614	421.194	22.6692
-38.1602	419.829	22.679
-38.1591	411.172	22.6887
-38.159	411.301	22.6985
-38.1574	415.751	22.7083
-38.1571	416.836	22.718
-38.1565	420.824	22.7278
-38.155	419.452	22.7375
-38.1547	413.775	22.7473
-38.1544	413.752	22.75708
-38.1526	411.309	22.7668
-38.1522	418.486	22.7766
-38.1515	420.0177	22.7864
-38.1502	421.4371	22.7961
-38.1495	417.442	22.8059
-38.1493	410.669	22.8157
-38.1476	414.071	22.8254
-38.1469	418.879	22.8352
-38.1466	420.12	22.845
-38.1456	420.002	22.8547
-38.1443	416.355	22.8645
-38.1439	414.881	22.8743
-38.1419	411.2662	22.884
-38.1422	416.459	22.8938
-38.1423	418.663	22.9036
-38.1409	422.127	22.91333
-38.1408	418.612	22.9231
-38.1391	414.287	22.9329
-38.1384	411.643	22.9426
-38.1373	414.058	22.9524
-38.137	418.155	22.9622
-38.136	417.684	22.9719
-38.1356	417.868	22.9817
-38.133	418.773	22.9915
-38.1339	413.554	23.0012
-38.1328	414.885	23.011
-38.1312	412.53	23.0208
-38.1311	419.306	23.0305
-38.1306	421.0632	23.0403
-38.1285	416.133	23.05
-38.1283	416.953	23.0598
-38.1272	412.966	23.06958
-38.12693	415.5802	23.0793
-38.1264	416.892	23.0891
-38.1256	414.765	23.0989
-38.1246	420.14	23.1086
-38.1238	417.527	23.1184
-38.1229	413.2558	23.1282
-38.1226	412.129	23.1379
-38.1222	413.708	23.1477
-38.1206	419.869	23.1575
-38.1187	418.262	23.1672
-38.1182	416.413	23.177
-38.1177	415.036	23.1868
-38.1171	412.113	23.1965
-38.1158	413.66	23.2063
-38.11459	415.34	23.2161
-38.1145	417.971	23.22583
-38.1139	420.058	23.2356
-38.1124	416.114	23.2454
-38.1129	411.418	23.2551
-38.1103	411.84	23.2649
-38.1115	414.952	23.2747
-38.11	418.761	23.2844
-38.1088	420.074	23.2942
-38.1088	414.141	23.304
-38.1076	414.658	23.3137
-38.1068	410.65	23.3235
-38.10519	412.037	23.3333
-38.1055	418.56	23.343
-38.1038	419.6561	23.3528
-38.1028	419.1846	23.3625
-38.102	413.494	23.3723
-38.1012	408.74	23.38208
-38.1002	412.464	23.3918
-38.0995	417.5275	23.4016
-38.09853	421.913	23.4114
-38.0985	417.544	23.4211
-38.0977	414.901	23.4309
-38.0977	412.968	23.4407
-38.0961	407.603	23.4504
-38.0946	415.113	23.4602
-38.0939	419.414	23.47
-38.093	419.473	23.4797
-38.0929	418.163	23.4895
-38.0933	410.258	23.4993
-38.0911	410.824	23.509
-38.0906	415.273	23.5188
-38.08836	418.091	23.5286
-38.0898	419.766	23.53833
-38.0867	416.309	23.5481
-38.08709	413.342	23.5579
-38.0867	411.508	23.5676
-38.0852	412.777	23.5774
-38.0849	415.585	23.5872
-38.08239	420.178	23.5969
-38.0844	417.8132	23.6067
-38.08136	414.736	23.6165
-38.0825	412.406	23.6262
-38.0811	413.017	23.636
-38.0792	415.0657	23.6458
-38.0788	415.945	23.6555
-38.07737	416.555	23.6653
-38.0767	417.511	23.675
-38.0766	413.902	23.6848
-38.0758	413.022	23.69458
-38.0745	411.085	23.7043
-38.0744	414.566	23.7141
-38.0729	420.101	23.7239
-38.0725	415.436	23.7336
-38.0712	416.416	23.7434
-38.0704	411.007	23.7532
-38.0702	412.953	23.7629
-38.069	416.247	23.7727
-38.0682	414.001	23.7825
-38.0679	418.212	23.7922
-38.0662	419.661	23.802
-38.0659	415.23	23.8118
-38.0656	411.886	23.8215
-38.0647	409.796	23.8313
-38.0639	417.639	23.8411
-38.0631	420.043	23.85083
-38.0619	418.772	23.8606
-38.061	414.0079	23.8704
-38.0605	411.604	23.8801
-38.0595	413.187	23.8899
-38.0582	412.863	23.8997
-38.057	417.072	23.9094
-38.05653	420.248	23.9192
-38.0562	417.745	23.929
-38.0556	411.915	23.9387
-38.0546	409.5061	23.9485
-38.0538	413.615	23.9583
-38.0533	418.296	23.968
-38.0514	421.463	23.9778
-38.0508	415.692	23.9875
-38.04982	413.753	23.9973
-38.0493	411.875	24.00708
-38.0491	410.271	24.0168
-38.0473	417.645	24.0266
-38.0472	418.1608	24.0364
-38.0472	421.131	24.0461
-38.0459	414.181	24.0559
-38.0441	409.4678	24.0657
-38.0437	412.2	24.0754
-38.04372	414.646	24.0852
-38.0423	419.4743	24.095
-38.0414	417.852	24.1047
-38.0401	414.645	24.1145
-38.0393	414.048	24.1243
-38.0385	410.5347	24.134
-38.0391	414.164	24.1438
-38.0378	416.307	24.1536
-38.0361	419.177	24.16333
-38.0352	419.674	24.1731
-38.0357	411.001	24.1829
-38.0336	412.001	24.1926
-38.0337	412.52	24.2024
-38.0315	417.725	24.2122
-38.0313	418.276	24.2219
-38.031	416.232	24.2317
-38.0299	415.068	24.2415
-38.03	415.012	24.2512
-38.0286	410.5672	24.261
-38.02792	412.5	24.2708
-38.0265	415.833	24.2805
-38.02594	418.858	24.2903
-38.0256	414.226	24.3
-38.0245	413.6748	24.3098
-38.0238	410.183	24.31958
-38.0223	413.56	24.3293
-38.0215	416.616	24.3391
-38.0211	417.501	24.3489
-38.02079	417.12	24.3586
-38.0196	414.625	24.3684
-38.0184	413.667	24.3782
-38.0185	409.496	24.3879
-38.0167	411.552	24.3977
-38.016	417.696	24.4075
-38.0156	417.128	24.4172
-38.0147	417.63	24.427
-38.014	411.651	24.4368
-38.014	410.863	24.4465
-38.0131	414.912	24.4563
-38.0113	412.739	24.4661
-38.0106	418.398	24.47583
-38.0103	419.183	24.4856
-38.0088	415.479	24.4954
-38.0078	412.059	24.5051
-38.00724	408.3201	24.5149
-38.007	416.324	24.5247
-38.0058	420.758	24.5344
-38.0036	419.53	24.5442
-38.0045	414.1543	24.554
-38.0034	410.383	24.5637
-38.002	411.468	24.5735
-38.0014	411.92	24.5833
-38.0014	417.865	24.593
-37.9987	419.9953	24.6028
-37.9997	416.785	24.6125
-37.99828	412.65	24.6223
-37.9969	408.625	24.63208
-37.996	410.266	24.6418
-37.9956	417.877	24.6516
-37.9946	418.14	24.6614
-37.9939	417.602	24.6711
-37.994	411.734	24.6809
-37.9928	412.327	24.6907
-37.9908	411.245	24.7004
-37.99078	414.931	24.7102
-37.9894	416.5018	24.72
-37.9893	418.184	24.7297
-37.9878	416.068	24.7395
-37.9873	409.011	24.7493
-37.9868	412.4328	24.759
-37.9858	412.423	24.7688
-37.9849	417.624	24.7786
-37.9843	417.68	24.78833
-37.9843	414.669	24.7981
-37.9833	413.6796	24.8079
-37.9812	411.6	24.8176
-37.9822	412.886	24.8274
-37.98	413.3848	24.8372
-37.98019	415.5679	24.8469
-37.9793	420.298	24.8567
-37.9771	411.745	24.8665
-37.9756	411.309	24.8762
-37.9772	411.758	24.886
-37.9754	412.933	24.8958
-37.9746	417.673	24.9055
-37.9728	414.999	24.9153
-37.97237	416.415	24.925
-37.9717	415.9404	24.9348
-37.9716	412.418	24.94458
-37.9713	412.024	24.9543
-37.9696	412.578	24.9641
-37.9681	417.299	24.9739
-37.9679	417.149	24.9836
-37.9662	414.988	24.9934
-37.966	410.629	25.0032
-37.9668	412.727	25.0129
-37.9648	413.065	25.0227
-37.9639	414.463	25.0325
-37.9631	419.525	25.0422
-37.9619	417.06	25.052
-37.9615	413.7338	25.0618
-37.9603	409.669	25.0715
-37.9594	410.6434	25.0813
-37.9595	415.962	25.0911
-37.9582	419.654	25.10083
-37.958	418.979	25.1106
-37.95742	412.097	25.1204
-37.9558	409.136	25.1301
-37.9544	413.045	25.1399
-37.9538	411.076	25.1497
-37.95303	419.111	25.1594
-37.9533	417.907	25.1692
-37.9517	416.541	25.179
-37.9513	411.812	25.1887
-37.9505	406.735	25.1985
-37.9494	411.616	25.2083
-37.9494	417.518	25.218
-37.9482	417.967	25.2278
-37.9469	417.045	25.2375
-37.9458	410.183	25.2473
-37.9453	410.794	25.25708
-37.9446	411.866	25.2668
-37.9433	413.32	25.2766
-37.9432	417.418	25.2864
-37.9416	417.548	25.2961
-37.9416	414.961	25.3059
-37.9396	408.256	25.3157
-37.94	410.141	25.3254
-37.9395	413.9491	25.3352
-37.9384	417.766	25.345
-37.9366	417.157	25.3547
-37.9367	412.01	25.3645
-37.9348	409.5069	25.3743
-37.9347	411.241	25.384
-37.9335	412.621	25.3938
-37.9341	412.615	25.4036
-37.9325	418.31	25.41333
-37.93092	417.706	25.4231
-37.9302	410.944	25.4329
-37.9298	410.274	25.4426
-37.9286	409.774	25.4524
-37.9294	416.063	25.4622
-37.928	416.628	25.4719
-37.9256	414.42	25.4817
-37.9265	415.7189	25.4915
-37.9253	412.756	25.5012
-37.92395	411.004	25.511
-37.9234	413.6897	25.5208
-37.9228	413.044	25.5305
-37.9215	419.094	25.5403
-37.9204	416.162	25.55
-37.92009	413.198	25.5598
-37.9191	409.798	25.56958
-37.9186	409.791	25.5793
-37.9172	415.535	25.5891
-37.9166	413.543	25.5989
-37.9157	415.6181	25.6086
-37.9146	414.8215	25.6184
-37.9144	412.557	25.6282
-37.9144	409.285	25.6379
-37.9137	411.409	25.6477
-37.91246	414.87	25.6575
-37.9126	419.504	25.6672
-37.9098	415.847	25.677
-37.9096	411.961	25.6868
-37.9086	409.571	25.6965
-37.909	412.228	25.7063
-37.9073	415.444	25.7161
-37.906	417.513	25.72583
-37.9056	415.691	25.7356
-37.90451	415.029	25.7454
-37.904	411.424	25.7551
-37.9034	407.388	25.7649
-37.9013	413.432	25.7747
-37.9015	417.548	25.7844
-37.9005	418.516	25.7942
-37.8994	412.126	25.804
-37.8992	408.319	25.8137
-37.898	410.992	25.8235
-37.8959	411.026	25.8333
-37.8962	415.573	25.843
-37.8955	416.14	25.8528
-37.8969	415.542	25.8625
-37.8946	413.635	25.8723
-37.89513	405.214	25.88208
-37.8924	409.236	25.8918
-37.8919	416.232	25.9016
-37.8903	416.921	25.9114
-37.8893	416.382	25.9211
-37.8895	408.56	25.9309
-37.8886	409.871	25.9407
-37.8874	412.867	25.9504
-37.8875	412.331	25.9602
-37.8857	415.905	25.97
-37.8846	415.062	25.9797
-37.8842	414.482	25.9895
-37.8841	409.446	25.9993
-37.883	410.61	26.009
-37.881	412.347	26.0188
-37.8809	416.41	26.0286
-37.8799	415.8436	26.03833
-37.8802	414.095	26.0481
-37.8786	410.861	26.0579
-37.8768	411.247	26.0676
-37.8772	412.642	26.0774
-37.8766	410.488	26.0872
-37.8747	416.414	26.0969
-37.8747	417.7374	26.1067
-37.8737	413.846	26.1165
-37.87273	412.762	26.1262
-37.8726	409.228	26.136
-37.8718	412.3613	26.1458
-37.8714	416.293	26.1555
-37.8703	414.284	26.1653
-37.8684	415.714	26.175
-37.8685	410.2709	26.1848
-37.8677	410.821	26.19458
-37.8666	411.662	26.2043
-37.8662	410.55	26.2141
-37.8645	416.644	26.2239
-37.8639	416.734	26.2336
-37.8614	413.757	26.2434
-37.8616	410.855	26.2532
-37.8628	408.669	26.2629
-37.86108	414.006	26.2727
-37.8593	413.157	26.2825
-37.8594	416.697	26.2922
-37.8571	416.4306	26.302
-37.8579	412.401	26.3118
-37.8562	410.89	26.3215
-37.8558	409.22	26.3313
-37.8553	413.85	26.3411
-37.8538	418.734	26.35083
-37.85363	417.063	26.3606
-37.8532	410.723	26.3704
-37.8508	407.681	26.3801
-37.85117	410.922	26.3899
-37.85	414.19	26.3997
-37.8497	416.455	26.4094
-37.8499	416.885	26.4192
-37.8473	415.727	26.429
-37.8474	411.538	26.4387
-37.8465	406.621	26.4485
-37.8452	413.159	26.4583
-37.8446	415.174	26.468
-37.844	419.477	26.4778
-37.8426	415.387	26.4875
-37.842	406.633	26.4973
-37.8418	411.213	26.50708
-37.8407	410.633	26.5168
-37.8401	413.793	26.5266
-37.8387	416.032	26.5364
-37.8385	414.902	26.5461
-37.8376	415.166	26.5559
-37.8351	406.772	26.5657
-37.8351	410.719	26.5754
-37.8345	412.739	26.5852
-37.8328	416.363	26.595
-37.8331	417.67	26.6047
-37.8328	411.398	26.6145
-37.8314	408.901	26.6243
-37.83049	410.667	26.634
-37.8291	412.075	26.6438
-37.8289	414.957	26.6536
-37.82819	414.325	26.66333
-37.8283	416.071	26.6731
-37.8268	413.101	26.6829
-37.8254	409.478	26.6926
-37.825	410.501	26.7024
-37.8244	414.221	26.7122
-37.8245	416.628	26.7219
-37.8214	415.609	26.7317
-37.8214	414.76	26.7415
-37.8219	411.01	26.7512
-37.82003	410.194	26.761
-37.8195	410.661	26.7708
-37.8187	414.038	26.7805
-37.8162	416.934	26.7903
-37.81638	416.262	26.8
-37.8163	412.786	26.8098
-37.81567	408.49	26.81958
-37.8154	408.753	26.8293
-37.8131	415.206	26.8391
-37.8125	413.772	26.8489
-37.8113	416.743	26.8586
-37.8112	413.61	26.8684
-37.8112	410.4509	26.8782
-37.80949	409.39	26.8879
-37.8085	408.217	26.8977
-37.8074	415.426	26.9075
-37.8079	418.895	26.9172
-37.80587	414.241	26.927
-37.8046	409.624	26.9368
-37.804	405.89	26.9465
-37.8044	412.154	26.9563
-37.8028	413.087	26.9661
-37.80146	416.876	26.97583
-37.8015	416.2641	26.9856
-37.8012	410.984	26.9954
-37.799	410.177	27.0051
-37.799	405.94	27.0149
-37.7981	410.966	27.0247
-37.7974	416.295	27.0344
-37.7955	417.199	27.0442
-37.7955	412.358	27.054
-37.7962	407.288	27.0637
-37.7946	407.533	27.0735
-37.7938	412.5636	27.0833
-37.7927	416.275	27.093
-37.792	414.74	27.1028
-37.7897	414.513	27.1125
-37.7885	411.327	27.1223
-37.7888	407.253	27.13208
-37.7882	410.666	27.1418
-37.7876	412.137	27.1516
-37.7872	416.727	27.1614
-37.7859	415.02	27.1711
-37.7854	408.7323	27.1809
-37.784	408.765	27.1907
-37.78381	409.659	27.2004
-37.7825	413.671	27.2102
-37.7816	414.759	27.22
-37.7812	413.366	27.2297
-37.7799	414.337	27.2395
-37.7793	408.427	27.2493
-37.7775	409.388	27.259
-37.778	410.471	27.2688
-37.777	413.0502	27.2786
-37.7768	417.349	27.28833
-37.7763	410.772	27.2981
-37.7748	411.327	27.3079
-37.7735	408.874	27.3176
-37.7732	409.868	27.3274
-37.7726	412.807	27.3372
-37.7711	411.715	27.3469
-37.7709	415.326	27.3567
-37.7694	414.341	27.3665
-37.7685	408.608	27.3762
-37.768	407.802	27.386
-37.76664	410.997	27.3958
-37.7661	415.229	27.4055
-37.7654	415.25	27.4153
-37.7653	414.445	27.425
-37.7635	411.136	27.4348
-37.7627	411.082	27.44458
-37.7622	408.544	27.4543
-37.7614	410.933	27.4641
-37.7609	414.737	27.4739
-37.7593	416.05	27.4836
-37.7591	414.848	27.4934
-37.7582	406.6347	27.5032
-37.757	406.574	27.5129
-37.7569	412.708	27.5227
-37.7562	413.92	27.5325
-37.754	417.229	27.5422
-37.75452	411.943	27.552
-37.7522	410.6514	27.5618
-37.7523	409.396	27.5715
-37.7515	405.6814	27.5813
-37.7508	413.744	27.5911
-37.7499	416.328	27.60083
-37.7486	415.726	27.6106
-37.7493	411.872	27.6204
-37.747	404.636	27.6301
-37.7473	408.486	27.6399
-37.7462	413.684	27.6497
-37.7442	414.175	27.6594
-37.7441	413.93	27.6692
-37.7436	410.504	27.679
-37.7428	409.284	27.6887
-37.7419	406.133	27.6985
-37.7406	410.747	27.7083
-37.7405	414.318	27.718
-37.7398	415.2066	27.7278
-37.739	414.662	27.7375
-37.7389	409.677	27.7473
-37.7375	406.312	27.75708
-37.7369	411.904	27.7668
-37.7347	412.6308	27.7766
-37.7338	412.131	27.7864
-37.73418	414.466	27.7961
-37.73251	410.528	27.8059
-37.732	408.38	27.8157
-37.73064	408.86	27.8254
-37.7308	410.152	27.8352
-37.7297	415.598	27.845
-37.7273	416.2496	27.8547
-37.7287	409.1489	27.8645
-37.7277	410.886	27.8743
-37.7258	408.813	27.884
-37.7252	411.549	27.8938
-37.7244	413.14	27.9036
-37.7228	411.955	27.91333
-37.7243	413.984	27.9231
-37.7229	410.665	27.9329
-37.7215	410.18	27.9426
-37.72036	407.846	27.9524
-37.7204	409.53	27.9622
-37.7181	417.021	27.9719
-37.7191	411.674	27.9817
-37.7178	413.689	27.9915
-37.7168	410.456	28.0012
-37.7162	407.801	28.011
-37.7136	411.071	28.0208
-37.71381	411.08	28.0305
-37.7129	414.3786	28.0403
-37.712	416.1485	28.05
-37.7122	410.631	28.0598
-37.71	407.479	28.06958
-37.7097	406.523	28.0793
-37.7099	412.0018	28.0891
-37.7075	414.657	28.0989
-37.7069	414.337	28.1086
-37.7074	410.715	28.1184
-37.7062	409.981	28.1282
-37.7048	407.695	28.1379
-37.7051	408.541	28.1477
-37.704	412.325	28.1575
-37.703	416.808	28.1672
-37.7033	415.988	28.177
-37.70105	407.998	28.1868
-37.7014	404.821	28.1965
-37.6997	409.0419	28.2063
-37.69875	412.558	28.2161
-37.6985	415.3576	28.22583
-37.6977	412.524	28.2356
-37.6965	408.398	28.2454
-37.6956	408.48	28.2551
-37.6951	403.83	28.2649
-37.6935	412.442	28.2747
-37.6928	413.866	28.2844
-37.6919	415.8439	28.2942
-37.6918	411.204	28.304
-37.6904	404.266	28.3137
-37.6896	407.425	28.3235
-37.6896	411.195	28.3333
-37.6875	412.414	28.343
-37.6874	414.916	28.3528
-37.6863	410.738	28.3625
-37.6859	411.604	28.3723
-37.6843	407.362	28.38208
-37.6838	407.331	28.3918
-37.6834	411.078	28.4016
-37.6821	414.309	28.4114
-37.6809	414.297	28.4211
-37.6806	407.405	28.4309
-37.6808	406.304	28.4407
-37.67886	408.131	28.4504
-37.6789	411.775	28.4602
-37.6782	412.3483	28.47
-37.6765	411.1568	28.4797
-37.6748	410.734	28.4895
-37.6752	409.311	28.4993
-37.6745	407.556	28.509
-37.6737	407.345	28.5188
-37.6737	411.211	28.5286
-37.6712	414.255	28.53833
-37.6704	410.563	28.5481
-37.6696	409.592	28.5579
-37.6697	406.62	28.5676
-37.6686	409.179	28.5774
-37.6679	413.954	28.5872
-37.6682	409.856	28.5969
-37.6653	413.831	28.6067
-37.6657	411.956	28.6165
-37.6654	409.598	28.6262
-37.6636	404.443	28.636
-37.663	408.256	28.6458
-37.6619	412.199	28.6555
-37.6618	412.004	28.6653
-37.6599	413.992	28.675
-37.659	409.645	28.6848
-37.6581	405.92	28.69458
-37.6584	410.442	28.7043
-37.6573	406.704	28.7141
-37.65646	412.184	28.7239
-37.6553	415.125	28.7336
-37.6543	411.062	28.7434
-37.654	407.946	28.7532
-37.6528	403.723	28.7629
-37.6532	407.299	28.7727
-37.6518	413.585	28.7825
-37.65089	413.4183	28.7922
-37.6488	409.7106	28.802
-37.6487	407.564	28.8118
-37.6489	405.544	28.8215
-37.6487	404.264	28.8313
-37.6471	410.694	28.8411
-37.6464	413.647	28.85083
-37.6448	415.363	28.8606
-37.6437	407.642	28.8704
-37.6432	404.263	28.8801
-37.6423	405.71	28.8899
-37.6427	410.0434	28.8997
-37.6403	414.898	28.9094
-37.6401	410.668	28.9192
-37.6397	408.662	28.929
-37.6395	408.641	28.9387
-37.6375	403.662	28.9485
-37.6377	409.299	28.9583
-37.6361	409.284	28.968
-37.6362	413.54	28.9778
-37.635	412.462	28.9875
-37.6333	403.333	28.9973
-37.6327	406.647	29.00708
-37.6324	409.117	29.0168
-37.6316	411.873	29.0266
-37.63102	414.102	29.0364
-37.6291	409.845	29.0461
-37.63	409.494	29.0559
-37.62767	407.438	29.0657
-37.6268	406.748	29.0754
-37.626	409.802	29.0852
-37.6255	410.7	29.095
-37.6247	414.357	29.1047
-37.6235	409.5632	29.1145
-37.6229	407.4715	29.1243
-37.6216	406.4794	29.134
-37.6218	408.766	29.1438
-37.6206	410.552	29.1536
-37.61953	410.304	29.16333
-37.6198	411.0864	29.1731
-37.6179	410.426	29.1829
-37.618	406.053	29.1926
-37.6159	404.403	29.2024
-37.6157	406.55	29.2122
-37.6154	411.7644	29.2219
-37.6145	412.211	29.2317
-37.6135	410.813	29.2415
-37.6128	405.728	29.2512
-37.6122	405.194	29.261
-37.6108	407.494	29.2708
-37.6097	407.3912	29.2805
-37.6093	413.898	29.2903
-37.608	411.304	29.3
-37.608	408.648	29.3098
-37.6067	404.135	29.31958
-37.6064	401.028	29.3293
-37.6053	409.676	29.3391
-37.604	410.362	29.3489
-37.6035	411.228	29.3586
-37.6028	407.583	29.3684
-37.601	403.556	29.3782
-37.601	407.6387	29.3879
-37.60117	404.9343	29.3977
-37.5988	410.933	29.4075
-37.599	412.949	29.4172
-37.5971	408.474	29.427
-37.5965	406.169	29.4368
-37.5977	400.163	29.4465
-37.5958	404.013	29.4563
-37.5952	412.077	29.4661
-37.5938	412.889	29.47583
-37.5925	410.775	29.4856
-37.5915	406.8356	29.4954
-37.59201	405.086	29.5051
-37.5905	405.375	29.5149
-37.5898	407.3	29.5247
-37.5878	410.797	29.5344
-37.5885	413.198	29.5442
-37.58725	409.523	29.554
-37.5867	402.812	29.5637
-37.5855	403.523	29.5735
-37.5851	406.935	29.5833
-37.5839	412.178	29.593
-37.5838	410.607	29.6028
-37.5819	407.127	29.6125
-37.582	406.771	29.6223
-37.58094	404.413	29.63208
-37.5802	407.136	29.6418
-37.5797	408.832	29.6516
-37.5772	410.158	29.6614
-37.5778	413.203	29.6711
-37.57642	405.172	29.6809
-37.5753	405.864	29.6907
-37.575	405.834	29.7004
-37.5738	406.672	29.7102
-37.5735	412.312	29.72
-37.5724	409.438	29.7297
-37.571	408.665	29.7395
-37.5706	407.616	29.7493
-37.5717	404.468	29.759
-37.5707	405.6716	29.7688
-37.5684	406.977	29.7786
-37.5678	411.677	29.78833
-37.5674	411.26	29.7981
-37.5669	406.054	29.8079
-37.5647	404.3595	29.8176
-37.5646	406.162	29.8274
-37.5624	407.1037	29.8372
-37.56216	407.7735	29.8469
-37.5621	408.4985	29.8567
-37.5618	407.247	29.8665
-37.5609	404.995	29.8762
-37.5592	401.896	29.886
-37.559	404.202	29.8958
-37.5572	409.356	29.9055
-37.5573	411.277	29.9153
-37.5578	410.856	29.925
-37.5558	404.131	29.9348
-37.5544	403.6503	29.94458
-37.55394	406.754	29.9543
-37.5524	404.378	29.9641
-37.553	410.734	29.9739
-37.5516	408.517	29.9836
-37.5505	408.8089	29.9934
-37.54929	403.7594	30.0032
-37.5494	398.787	30.0129
-37.5494	405.527	30.0227
-37.5482	410.173	30.0325
-37.5465	411.606	30.0422
-37.5458	406.654	30.052
-37.5448	402.206	30.0618
-37.5459	404.518	30.0715
-37.5426	404.383	30.0813
-37.542	408.498	30.0911
-37.5418	410.785	30.10083
-37.5409	407.697	30.1106
-37.5406	406.214	30.1204
-37.5392	400.47	30.1301
-37.5393	404.303	30.1399
-37.5382	407.713	30.1497
-37.537	409.12	30.1594
-37.5359	409.3475	30.1692
-37.5357	404.538	30.179
-37.5341	402.482	30.1887
-37.5344	403.986	30.1985
-37.5328	405.113	30.2083
-37.532	408.782	30.218
-37.53159	410.918	30.2278
-37.53	407.59	30.2375
-37.53067	402.294	30.2473
-37.5295	402.276	30.25708
-37.528	405.142	30.2668
-37.5267	408.229	30.2766
-37.52544	409.1481	30.2864
-37.5255	406.159	30.2961
-37.5246	405.4223	30.3059
-37.523	403.507	30.3157
-37.5224	404.12	30.3254
-37.523	404.942	30.3352
-37.5208	405.489	30.345
-37.5197	409.56	30.3547
-37.5194	405.952	30.3645
-37.519	402.663	30.3743
-37.5182	401.7504	30.384
-37.5172	404.204	30.3938
-37.5159	408.408	30.4036
-37.5152	406.14	30.41333
-37.5146	407.082	30.4231
-37.5157	406.578	30.4329
-37.512	401.9241	30.4426
-37.5126	402.869	30.4524
-37.5112	401.077	30.4622
-37.5119	407.452	30.4719
-37.5105	410.257	30.4817
-37.5098	406.703	30.4915
-37.5086	401.788	30.5012
-37.5078	399.825	30.511
-37.506	404.214	30.5208
-37.5055	404.004	30.5305
-37.5054	407.0275	30.5403
-37.5051	407.681	30.55
-37.5046	404.645	30.5598
-37.5021	400.195	30.56958
-37.5027	399.275	30.5793
-37.5006	402.709	30.5891
-37.5009	407.984	30.5989
-37.5006	408.885	30.6086
-37.4983	403.899	30.6184
-37.498	399.03	30.6282
-37.4971	402.3696	30.6379
-37.4963	401.3494	30.6477
-37.4955	407.5354	30.6575
-37.4937	406.724	30.6672
-37.4947	406.68	30.677
-37.493	404.003	30.6868
-37.4928	394.75	30.6965
-37.491	401.288	30.7063
-37.49094	405.496	30.7161
-37.4902	408.232	30.72583
-37.4893	404.874	30.7356
-37.4879	398.071	30.7454
-37.4869	398.864	30.7551
-37.486	399.542	30.7649
-37.4858	402.509	30.7747
-37.4853	405.462	30.7844
-37.4842	404.444	30.7942
-37.4843	402.1796	30.804
-37.4829	396.206	30.8137
-37.4808	394.383	30.8235
-37.4816	401.04	30.8333
-37.4791	401.3624	30.843
-37.4788	402.539	30.8528
-37.4785	395.989	30.8625
-37.4778	382.39	30.8723
-37.4742	-76.6496	30.88208
-37.4729	-50.0626	30.8918
-37.4737	-28.7168	30.9016
-37.4715	-33.6178	30.9114
-37.4723	-38.6504	30.9211
-37.4724	-46.8905	30.9309
-37.4714	-43.5897	30.9407
-37.4699	-47.0385	30.9504
-37.46909	-41.3927	30.9602
-37.4678	-38.2281	30.97
-37.4671	-41.5641	30.9797
-37.4673	-40.4348	30.9895
-37.467	-43.0467	30.9993
-37.4662	-43.6611	31.009
-37.4647	-45.6871	31.0188
-37.4632	-44.6657	31.0286
-37.4628	-38.5922	31.03833
-37.4612	-40.6483	31.0481
-37.4617	-41.34	31.0579
-37.4611	-46.1422	31.0676
-37.4595	-47.1661	31.0774
-37.46	-40.8358	31.0872
-37.4572	-42.2622	31.0969
-37.4561	-38.9809	31.1067
-37.4564	-42.0395	31.1165
-37.4556	-44.7675	31.1262
-37.4548	-46.4724	31.136
-37.455	-47.1055	31.1458
-37.4528	-41.9299	31.1555
-37.452	-36.4124	31.1653
-37.4523	-40.1357	31.175
-37.4512	-44.6319	31.1848
-37.45026	-47.8462	31.19458
-37.44981	-45.4238	31.2043
-37.4487	-42.7909	31.2141
-37.4477	-39.5292	31.2239
-37.4464	-39.4643	31.2336
-37.4466	-41.9309	31.2434
-37.4459	-46.1175	31.2532
-37.44413	-48.3036	31.2629
-37.4437	-44.1325	31.2727
-37.4431	-37.8375	31.2825
-37.4423	-36.8324	31.2922
-37.4416	-43.0222	31.302
-37.4415	-46.6838	31.3118
-37.4401	-45.3343	31.3215
-37.4384	-45.10582	31.3313
-37.4382	-39.6361	31.3411
-37.4375	-39.7998	31.35083
-37.437	-40.2034	31.3606
-37.4345	-41.3681	31.3704
-37.4339	-49.2627	31.3801
-37.4349	-42.8516	31.3899
-37.4329	-40.71339	31.3997
-37.433	-37.964	31.4094
-37.4307	-36.6958	31.4192
-37.4309	-44.56052	31.429
-37.4302	-44.5489	31.4387
-37.4294	-44.1993	31.4485
-37.4296	-42.6441	31.4583
-37.4266	-41.4337	31.468
-37.427	-41.4773	31.4778
-37.4262	-40.2732	31.4875
-37.4243	-46.2083	31.4973
-37.4252	-47.0325	31.50708
-37.4237	-44.54018	31.5168
-37.4226	-40.6744	31.5266
-37.4216	-38.2222	31.5364
-37.4218	-42.4931	31.5461
-37.42049	-42.7969	31.5559
-37.4196	-43.3186	31.5657
-37.4186	-44.3863	31.5754
-37.4182	-44.9856	31.5852
-37.417	-42.9266	31.595
-37.4172	-41.0877	31.6047
-37.4151	-39.76635	31.6145
-37.4133	-44.7068	31.6243
-37.4133	-47.8849	31.634
-37.4131	-46.3277	31.6438
-37.4118	-41.48024	31.6536
-37.41124	-43.0053	31.66333
-37.4109	-38.9007	31.6731
-37.4091	-45.2894	31.6829
-37.4093	-45.008	31.6926
-37.40752	-45.0589	31.7024
-37.4083	-45.9082	31.7122
-37.4067	-40.1488	31.7219
-37.405	-37.145	31.7317
-37.40398	-41.2778	31.7415
-37.4034	-44.9688	31.7512
-37.4043	-47.3364	31.761
-37.4024	-42.8957	31.7708
-37.4016	-41.6863	31.7805
-37.4014	-39.4445	31.7903
-37.3993	-38.668	31.8
-37.3986	-42.9988	31.8098
-37.3985	-43.7831	31.81958
-37.3969	-47.8151	31.8293
-37.3968	-41.1866	31.8391
-37.3956	-35.9771	31.8489
-37.3956	-39.203	31.8586
-37.39399	-41.5994	31.8684
-37.3937	-48.9673	31.8782
-37.393	-46.2403	31.8879
-37.3916	-42.2143	31.8977
-37.3919	-39.09465	31.9075
-37.3909	-39.914	31.9172
-37.3888	-40.87838	31.927
-37.3869	-45.7777	31.9368
-37.38829	-47.0044	31.9465
-37.3871	-44.2338	31.9563
-37.3853	-41.0179	31.9661
-37.385	-37.2225	31.97583
-37.3847	-41.2166	31.9856
-37.3838	-45.6008	31.9954
-37.3832	-47.51976	32.0051
-37.3829	-44.821	32.0149
-37.3814	-40.68449	32.0247
-37.3798	-39.2392	32.0344
-37.3801	-41.7295	32.0442
-37.3778	-41.1667	32.054
-37.37759	-48.4952	32.0637
-37.377	-44.5909	32.0735
-37.3752	-45.3005	32.0833
-37.3744	-40.2141	32.093
-37.3748	-38.7022	32.1028
-37.3726	-44.9986	32.1125
-37.3722	-43.5159	32.1223
-37.3721	-44.7667	32.13208
-37.3708	-44.0642	32.1418
-37.3713	-41.7853	32.1516
-37.3697	-42.4482	32.1614
-37.36953	-39.7053	32.1711
-37.3678	-40.8018	32.1809
-37.3678	-44.647	32.1907
-37.3666	-47.115	32.2004
-37.365	-43.2818	32.2102
-37.365	-40.3589	32.22
-37.364	-39.7837	32.2297
-37.3633	-41.0227	32.2395
-37.363	-44.5918	32.2493
-37.3612	-45.6367	32.259
-37.3607	-45.6408	32.2688
-37.3599	-45.2064	32.2786
-37.3591	-40.3633	32.28833