File: data/processed_data_files/tensile/0.254_solid_uprint_typeiv_090_r(2).dat
MTS793|BTW|ENU|1|2|.|/|:|1|0|0|A

Data Header:			0.254_solid_uprint_typeiv_090_r0			Time:	20.0269	s	4/14/2019 1:02:36 AM
Data Acquisition:	Timed
Station Name:	ft40.cfg
Test File Name:	monotonic_0.2540_typeiv_solid_090_uprint.tst
Displacement	Force	Running Time
mm	N	s
-40.0385	-101.408	0.0317383
-40.0405	-94.0386	0.0512695
-40.0406	-99.1938	0.0708008
-40.04	-99.6746	0.090332
-40.0387	-96.0145	0.109863
-40.03603	-91.40596	0.129395
-40.0351	-98.9389	0.148926
-40.0322	-93.7601	0.168457
-40.0319	-89.3343	0.187988
-40.0296	-91.6895	0.20752
-40.0265	-92.1704	0.227051
-40.0261	-87.8429	0.246582
-40.0256	-88.2365	0.266113
-40.0222	-88.3454	0.285645
-40.0207	-85.7646	0.305176
-40.0205	-86.3542	0.324707
-40.0172	-85.69558	0.344238
-40.01759	-83.5004	0.36377
-40.0149	-79.3912	0.383301
-40.01273	-84.9645	0.402832
-40.0116	-80.8199	0.422363
-40.0099	-75.5381	0.441895
-40.0082	-77.42601	0.461426
-40.0067	-81.9399	0.480957
-40.0054	-71.9566	0.500488
-40.0034	-77.2922	0.52002
-40.0021	-76.1461	0.539551
-40	-70.4664	0.559082
-39.9987	-70.44017	0.578613
-39.9969	-77.0293	0.598145
-39.9968	-66.13826	0.617676
-39.9943	-67.9919	0.637207
-39.9927	-71.8452	0.656738
-39.9907	-67.2294	0.67627
-39.9893	-62.45908	0.695801
-39.9877	-70.37793	0.715332
-39.9851	-63.6153	0.734863
-39.9845	-62.0005	0.754395
-39.9824	-64.4891	0.773926
-39.9812	-61.09663	0.793457
-39.9802	-58.8267	0.812988
-39.9787	-63.4046	0.83252
-39.9766	-60.9985	0.852051
-39.974	-53.9422	0.871582
-39.9737	-56.66069	0.891113
-39.971	-56.61549	0.910645
-39.9694	-54.9036	0.930176
-39.9679	-51.386	0.949707
-39.9658	-55.3584	0.969238
-39.9642	-51.1554	0.98877
-39.963	-47.6934	1.0083
-39.9611	-49.9835	1.027832
-39.9601	-51.5031	1.04736
-39.9577	-44.6018	1.06689
-39.957	-49.5326	1.08643
-39.9553	-46.556	1.105957
-39.9522	-42.3421	1.12549
-39.9508	-42.8021	1.14502
-39.9499	-49.4609	1.16455
-39.9487	-39.4529	1.184082
-39.9473	-40.5965	1.20361
-39.9448	-41.129	1.22314
-39.9444	-37.7592	1.24268
-39.9422	-36.063	1.262207
-39.9394	-42.5523	1.28174
-39.9388	-33.1069	1.30127
-39.9368	-33.1817	1.3208
-39.9337	-36.8141	1.340332
-39.9337	-32.8437	1.35986
-39.9315	-29.2142	1.37939
-39.9313	-32.529	1.39893
-39.9293	-31.5956	1.418457
-39.9277	-26.684	1.43799
-39.9251	-28.3532	1.45752
-39.9232	-27.1988	1.47705
-39.9225	-25.2894	1.496582
-39.9208	-26.2572	1.51611
-39.9194	-27.8113	1.53564
-39.9181	-20.4975	1.55518
-39.9152	-19.3649	1.574707
-39.9145	-22.4619	1.59424
-39.9128	-21.6092	1.61377
-39.91143	-15.5754	1.6333
-39.9086	-21.5264	1.652832
-39.90781	-18.3967	1.67236
-39.9074	-12.395	1.69189
-39.9052	-16.7414	1.71143
-39.9039	-18.7061	1.730957
-39.90192	-9.37303	1.75049
-39.8994	-15.1309	1.77002
-39.898	-14.5612	1.78955
-39.89645	-6.43405	1.809082
-39.8938	-7.45314	1.82861
-39.8944	-16.30302	1.84814
-39.8908	-5.53583	1.86768
-39.8892	-6.79408	1.887207
-39.8877	-8.14014	1.90674
-39.8873	-4.66779	1.92627
-39.8854	-1.73448	1.9458
-39.8844	-7.73735	1.965332
-39.8818	-1.06941	1.98486
-39.8795	1.65033	2.00439
-39.87822	-3.7315	2.02393
-39.8766	-0.108169	2.043457
-39.8747	4.17338	2.06299
-39.8739	2.14808	2.08252
-39.87215	1.539519	2.10205
-39.87	6.94003	2.121582
-39.8687	5.13258	2.14111
-39.8667	6.89603	2.16064
-39.8648	8.05766	2.18018
-39.8635	11.53318	2.199707
-39.8632	5.413012	2.21924
-39.8616	12.12734	2.23877
-39.8597	15.7259	2.2583
-39.8568	11.043	2.277832
-39.8554	9.15938	2.29736
-39.854	20.0222	2.31689
-39.8528	12.9201	2.33643
-39.8497	16.4404	2.355957
-39.8486	20.1635	2.37549
-39.8474	18.8549	2.39502
-39.8461	13.0302	2.41455
-39.84478	24.7923	2.434082
-39.8422	19.64757	2.45361
-39.8407	19.08	2.47314
-39.8388	27.2685	2.49268
-39.83852	26.0347	2.512207
-39.836	19.9586	2.53174
-39.8354	26.6785	2.55127
-39.8329	28.9148	2.5708
-39.8317	25.23101	2.590332
-39.8295	29.264	2.60986
-39.8277	32.0321	2.62939
-39.8262	29.2948	2.64893
-39.8246	29.646	2.668457
-39.82304	36.2929	2.68799
-39.8226	31.35438	2.70752
-39.8198	33.3312	2.72705
-39.8182	36.2958	2.746582
-39.8166	40.01667	2.76611
-39.8148	33.3855	2.78564
-39.8123	40.7365	2.80518
-39.8118	42.4846	2.824707
-39.811	40.2203	2.84424
-39.80883	38.9906	2.86377
-39.80611	45.85754	2.8833
-39.8048	39.08115	2.902832
-39.802	45.6413	2.92236
-39.8023	49.1679	2.94189
-39.8002	45.3539	2.96143
-39.79871	41.9914	2.980957
-39.7968	52.8559	3.00049
-39.7953	48.0781	3.02002
-39.7938	47.1736	3.03955
-39.79253	54.0466	3.059082
-39.79	53.3175	3.07861
-39.7886	47.7479	3.09814
-39.78809	57.868	3.11768
-39.786	56.3045	3.137207
-39.7834	52.0183	3.15674
-39.782	59.0226	3.17627
-39.7801	59.8551	3.1958
-39.7794	54.2938	3.215332
-39.77808	56.8594	3.23486
-39.7756	63.3446	3.25439
-39.7737	59.442	3.27393
-39.7734	63.1378	3.293457
-39.77108	65.0914	3.31299
-39.7685	63.103	3.33252
-39.7672	63.2654	3.35205
-39.76675	69.1429	3.371582
-39.7656	67.7409	3.39111
-39.762	65.56	3.41064
-39.761	69.3883	3.43018
-39.7591	74.4602	3.449707
-39.7587	66.3883	3.46924
-39.75732	73.6011	3.48877
-39.7543	77.16214	3.5083
-39.7539	74.6331	3.527832
-39.7521	72.0435	3.54736
-39.7492	79.2297	3.56689
-39.7472	73.51226	3.58643
-39.7462	76.5989	3.605957
-39.7443	83.3329	3.62549
-39.7431	79.7062	3.64502
-39.7421	75.6108	3.66455
-39.7392	86.6496	3.684082
-39.7379	84.0224	3.70361
-39.7368	80.136	3.72314
-39.7344	87.2539	3.74268
-39.733	86.2625	3.762207
-39.7325	82.2804	3.78174
-39.7295	88.6174	3.80127
-39.7294	90.965	3.8208
-39.7268	85.7626	3.840332
-39.7258	91.2677	3.85986
-39.7234	92.516	3.87939
-39.72271	90.019	3.89893
-39.7203	89.8391	3.918457
-39.7194	97.3658	3.93799
-39.7174	95.4755	3.95752
-39.7158	95.2826	3.97705
-39.7144	96.7679	3.996582
-39.7125	99.2965	4.01611
-39.7106	94.38147	4.03564
-39.7096	102.898	4.05518
-39.7076	101.929	4.074707
-39.70517	98.7282	4.09424
-39.7049	101.157	4.11377
-39.7032	109.089	4.1333
-39.70113	100.167	4.152832
-39.6994	103.583	4.17236
-39.69709	108.774	4.19189
-39.697	106.38	4.21143
-39.6949	103.396	4.230957
-39.6929	112.3643	4.25049
-39.6909	108.919	4.27002
-39.6899	107.1451	4.28955
-39.688	114.64	4.309082
-39.6858	113.263	4.32861
-39.6849	108.417	4.34814
-39.6829	115.476	4.36768
-39.6811	117.551	4.387207
-39.6802	113.4158	4.40674
-39.6784	118.541	4.42627
-39.677	118.516	4.4458
-39.6752	116.787	4.465332
-39.67374	119.467	4.48486
-39.672	124.283	4.50439
-39.6703	121.752	4.52393
-39.6682	124.679	4.543457
-39.6669	126.165	4.56299
-39.6653	126.795	4.58252
-39.6645	121.418	4.60205
-39.6617	128.895	4.621582
-39.6605	129.619	4.64111
-39.658	127.52	4.66064
-39.6575	128.186	4.68018
-39.6549	134.314	4.699707
-39.6545	127.632	4.71924
-39.6534	134.839	4.73877
-39.6491	135.705	4.7583
-39.649	131.462	4.777832
-39.6477	132.106	4.79736
-39.6462	140.486	4.81689
-39.6442	135.2856	4.83643
-39.641	134.739	4.855957
-39.6404	142.563	4.87549
-39.6384	139.019	4.89502
-39.6372	135.88	4.91455
-39.6351	143.577	4.934082
-39.6344	142.348	4.95361
-39.6326	140.542	4.97314
-39.6309	150.0822	4.99268
-39.6289	146.307	5.012207
-39.6276	142.17	5.03174
-39.6261	147.006	5.05127
-39.6254	153.16	5.0708
-39.6237	146.8586	5.090332
-39.62138	150.173	5.10986
-39.62	150.723	5.12939
-39.6182	151.314	5.14893
-39.61692	149.6362	5.168457
-39.6157	156.316	5.18799
-39.613	152.532	5.20752
-39.6116	155.067	5.22705
-39.6085	156.801	5.246582
-39.6072	160.455	5.26611
-39.606	153.353	5.28564
-39.6046	161.405	5.30518
-39.60313	163.196	5.324707
-39.6021	160.686	5.34424
-39.5988	159.316	5.36377
-39.5997	165.989	5.3833
-39.5966	161.396	5.402832
-39.5954	164.509	5.42236
-39.5943	169.464	5.44189
-39.5924	163.662	5.46143
-39.5911	163.655	5.480957
-39.5889	173.097	5.50049
-39.5877	167.651	5.52002
-39.5868	165.756	5.53955
-39.58379	174.832	5.559082
-39.5822	173.068	5.57861
-39.5809	169.052	5.59814
-39.5796	174.891	5.61768
-39.5781	177.455	5.637207
-39.5759	172.356	5.65674
-39.5741	180.248	5.67627
-39.5735	177.587	5.6958
-39.57093	174.736	5.715332
-39.5699	178.446	5.73486
-39.5686	183.314	5.75439
-39.5666	179.298	5.77393
-39.5646	179.762	5.793457
-39.562	183.233	5.81299
-39.5607	186.248	5.83252
-39.5599	182.021	5.85205
-39.5578	188.35	5.871582
-39.5573	187.8748	5.89111
-39.5547	185.671	5.91064
-39.5526	186.959	5.93018
-39.5521	193	5.949707
-39.5493	184.467	5.96924
-39.5476	190.8019	5.98877
-39.5476	196.854	6.0083
-39.545	190.279	6.027832
-39.5425	190.556	6.04736
-39.5418	198.4017	6.06689
-39.5415	194.054	6.08643
-39.5385	193.894	6.105957
-39.5379	201.552	6.12549
-39.5355	196.889	6.14502
-39.5336	195.055	6.16455
-39.5327	202.893	6.184082
-39.5297	202.412	6.20361
-39.529	197.103	6.22314
-39.5281	205.105	6.24268
-39.526	203.993	6.262207
-39.52375	203.184	6.28174
-39.5228	205.152	6.30127
-39.52103	208.3501	6.3208
-39.5195	204.729	6.340332
-39.517	209.399	6.35986
-39.5163	209.619	6.37939
-39.5137	208.4095	6.39893
-39.5121	208.753	6.418457
-39.5114	216.029	6.43799
-39.509	213.414	6.45752
-39.5083	210.566	6.47705
-39.5064	214.162	6.496582
-39.5037	216.345	6.51611
-39.5019	210.672	6.53564
-39.5013	217.228	6.55518
-39.4995	218.468	6.574707
-39.4976	216.034	6.59424
-39.4957	217.781	6.61377
-39.4947	224.885	6.6333
-39.4931	216.686	6.652832
-39.492	219.281	6.67236
-39.4887	228.195	6.69189
-39.48877	222.087	6.71143
-39.4872	220.928	6.730957
-39.4848	228.391	6.75049
-39.4827	227.842	6.77002
-39.4814	224.619	6.78955
-39.4809	232.453	6.809082
-39.47847	227.728	6.82861
-39.47686	228.336	6.84814
-39.4761	233.876	6.86768
-39.4734	233.8876	6.887207
-39.472	228.964	6.90674
-39.4701	234.828	6.92627
-39.4674	235.753	6.9458
-39.4656	236.132	6.965332
-39.4661	233.68	6.98486
-39.46384	241.15	7.00439
-39.4619	236.676	7.02393
-39.4605	237.4122	7.043457
-39.4584	241.209	7.06299
-39.4571	239.619	7.08252
-39.4549	238.653	7.10205
-39.4538	246.335	7.121582
-39.4525	246.516	7.14111
-39.45129	240.496	7.16064
-39.4486	243.165	7.18018
-39.4472	248.1133	7.199707
-39.446	242.261	7.21924
-39.4443	245.67	7.23877
-39.4427	251.769	7.2583
-39.4404	245.181	7.277832
-39.4401	248.793	7.29736
-39.4372	252.793	7.31689
-39.4353	250.182	7.33643
-39.4344	249.7045	7.355957
-39.4327	258.4313	7.37549
-39.4318	252.838	7.39502
-39.4282	252.25	7.41455
-39.4279	256.554	7.434082
-39.4266	256.991	7.45361
-39.4249	254.9238	7.47314
-39.4222	262.565	7.49268
-39.4207	256.3902	7.512207
-39.4201	258.345	7.53174
-39.4181	261.37	7.55127
-39.4154	265.905	7.5708
-39.415	260.319	7.590332
-39.4131	263.959	7.60986
-39.41246	265.618	7.62939
-39.4102	265.803	7.64893
-39.4074	262.935	7.668457
-39.407	270.654	7.68799
-39.4052	267.6749	7.70752
-39.40374	266.917	7.72705
-39.4018	268.999	7.746582
-39.4005	270.793	7.76611
-39.3984	266.858	7.78564
-39.3974	274.244	7.80518
-39.3952	277.508	7.824707
-39.3938	269.191	7.84424
-39.3919	273.2262	7.86377
-39.39	279.302	7.8833
-39.3887	274.217	7.902832
-39.38673	275.541	7.92236
-39.3842	283.148	7.94189
-39.3834	276.904	7.96143
-39.3824	278.8176	7.980957
-39.3817	282.9343	8.00049
-39.38	279.511	8.02002
-39.3773	278.53	8.03955
-39.3751	287.679	8.059082
-39.3744	283.357	8.07861
-39.3725	282.757	8.09814
-39.3711	284.8389	8.11768
-39.369	290.002	8.137207
-39.368	285.158	8.15674
-39.3654	290.729	8.17627
-39.3645	288.217	8.1958
-39.363	288.092	8.215332
-39.36211	288.781	8.23486
-39.3598	294.533	8.25439
-39.3572	289.964	8.27393
-39.357	291.49	8.293457
-39.3539	294.0043	8.31299
-39.3536	294.128	8.33252
-39.3506	290.792	8.35205
-39.3499	298.846	8.371582
-39.3484	298.662	8.39111
-39.3472	294.419	8.41064
-39.3439	299.482	8.43018
-39.3434	299.763	8.449707
-39.342	297.249	8.46924
-39.3399	300.896	8.48877
-39.3387	306.968	8.5083
-39.33704	297	8.527832
-39.33522	300.5715	8.54736
-39.3329	305.139	8.56689
-39.3329	305.038	8.58643
-39.3307	303.63	8.605957
-39.3287	310.318	8.62549
-39.3275	304.005	8.64502
-39.3262	306.487	8.66455
-39.3234	310.4	8.684082
-39.3217	310.834	8.70361
-39.3195	307.762	8.72314
-39.3194	315.45	8.74268
-39.3165	311.125	8.762207
-39.31543	310.219	8.78174
-39.3136	310.769	8.80127
-39.31245	317.023	8.8208
-39.3104	313.8765	8.840332
-39.3089	316.575	8.85986
-39.3069	316.966	8.87939
-39.3054	317.119	8.89893
-39.305	316.364	8.918457
-39.3027	322.17	8.93799
-39.301	319.466	8.95752
-39.2999	316.398	8.97705
-39.2982	321.851	8.996582
-39.2954	322.8	9.01611
-39.2951	317.6803	9.03564
-39.2918	323.884	9.05518
-39.2912	327.115	9.074707
-39.29	319.697	9.09424
-39.2873	325.805	9.11377
-39.28574	329.0665	9.1333
-39.2848	324.383	9.152832
-39.28315	326.757	9.17236
-39.2819	332.66	9.19189
-39.2795	324.756	9.21143
-39.278	328.028	9.230957
-39.2759	333.3	9.25049
-39.27483	332.439	9.27002
-39.2747	330.14	9.28955
-39.2717	336.941	9.309082
-39.2709	331.698	9.32861
-39.2687	334.366	9.34814
-39.2686	337.1	9.36768
-39.2646	337.17	9.387207
-39.2634	334.559	9.40674
-39.2615	337.869	9.42627
-39.26025	340.7843	9.4458
-39.2578	337.489	9.465332
-39.2558	337.849	9.48486
-39.256	343.226	9.50439
-39.2538	340.201	9.52393
-39.252	340.55	9.543457
-39.251	341.843	9.56299
-39.2487	341.877	9.58252
-39.247	340.999	9.60205
-39.2456	345.935	9.621582
-39.2444	347.487	9.64111
-39.2421	340.872	9.66064
-39.2416	348.072	9.68018
-39.23933	351.094	9.699707
-39.2378	345.45	9.71924
-39.2367	347.524	9.73877
-39.2345	354.813	9.7583
-39.2309	346.002	9.777832
-39.2299	351.55	9.79736
-39.2303	353.639	9.81689
-39.2285	351.108	9.83643
-39.2266	352.067	9.855957
-39.2241	358.369	9.87549
-39.2219	351.432	9.89502
-39.2211	352.846	9.91455
-39.2194	356.502	9.934082
-39.2175	359.423	9.95361
-39.2159	354.3963	9.97314
-39.2142	359.838	9.99268
-39.2127	358.178	10.0122
-39.2117	357.309	10.0317
-39.2107	361.058	10.05127
-39.2078	363.682	10.0708
-39.2064	359.422	10.0903
-39.2045	361.928	10.1099
-39.2028	363.867	10.1294
-39.20195	361.655	10.1489
-39.1998	361.064	10.1685
-39.1998	366.349	10.188
-39.19849	367.1586	10.20752
-39.1954	362.417	10.2271
-39.1929	368.481	10.2466
-39.1914	369.446	10.2661
-39.1906	365.132	10.2856
-39.1886	370.841	10.3052
-39.187	372.786	10.3247
-39.1843	364.053	10.3442
-39.1839	372.712	10.36377
-39.1824	374.302	10.3833
-39.1803	369.508	10.4028
-39.1797	372.257	10.4224
-39.1784	378.02	10.4419
-39.1749	370.033	10.4614
-39.1746	373.305	10.481
-39.1731	375.296	10.5005
-39.1708	375.109	10.52002
-39.1683	375.088	10.5396
-39.1685	381.112	10.5591
-39.1653	375.787	10.5786
-39.164	376.225	10.5981
-39.16328	379.909	10.6177
-39.1614	382.849	10.6372
-39.1595	378.19	10.6567
-39.1571	379.757	10.67627
-39.1557	382.146	10.6958
-39.1551	380.759	10.7153
-39.1536	380.644	10.7349
-39.1515	385.298	10.7544
-39.14909	381.915	10.7739
-39.1475	380.923	10.7935
-39.1469	386.169	10.813
-39.14563	384.159	10.83252
-39.1431	382.147	10.8521
-39.1413	387.916	10.8716
-39.1397	391.053	10.8911
-39.1387	382.31	10.9106
-39.137	390.101	10.9302
-39.1348	390.929	10.9497
-39.1322	387.012	10.9692
-39.1317	390.391	10.98877
-39.1308	395.919	11.0083
-39.1283	385.641	11.0278
-39.1269	392.613	11.0474
-39.1241	394.604	11.0669
-39.1225	391.136	11.0864
-39.1223	390.649	11.106
-39.1204	397.997	11.1255
-39.1177	392.019	11.14502
-39.1175	393.164	11.1646
-39.1156	396.958	11.1841
-39.1141	396.04	11.2036
-39.1134	393.284	11.2231
-39.1108	399.238	11.2427
-39.1086	398.596	11.2622
-39.107	395.806	11.2817
-39.1066	399.173	11.30127
-39.1033	402.019	11.3208
-39.1029	400.041	11.3403
-39.0986	397.902	11.3599
-39.0993	403.327	11.3794
-39.0977	400.614	11.3989
-39.0959	398.66	11.4185
-39.095	404.768	11.438
-39.0928	402.559	11.45752
-39.09251	397.949	11.4771
-39.0895	407.573	11.4966
-39.0878	402.48	11.5161
-39.086	401.529	11.5356
-39.0841	407.224	11.5552
-39.0837	410.006	11.5747
-39.0808	401.866	11.5942
-39.0798	408.313	11.61377
-39.0785	407.5415	11.6333
-39.07589	405.448	11.6528
-39.076	408.019	11.6724
-39.07196	413.253	11.6919
-39.0725	404.438	11.7114
-39.06974	408.159	11.731
-39.0686	411.895	11.7505
-39.0672	410.6109	11.77002
-39.0653	407.32	11.7896
-39.06456	414.898	11.8091
-39.06226	408.699	11.8286
-39.0595	409.752	11.8481
-39.058	413.0098	11.8677
-39.0575	412.793	11.8872
-39.0552	410.122	11.9067
-39.0536	414.592	11.92627
-39.0525	414.3725	11.9458
-39.0501	410.909	11.9653
-39.04871	413.604	11.9849
-39.0471	417.131	12.0044
-39.0449	415.724	12.0239
-39.0439	410.776	12.0435
-39.043	418.6514	12.063
-39.041	417.661	12.08252
-39.0385	415.761	12.1021
-39.0375	419.078	12.1216
-39.0368	419.641	12.1411
-39.03413	412.4726	12.1606
-39.0328	422.817	12.1802
-39.031	420.832	12.1997
-39.03	415.255	12.2192
-39.0274	420.933	12.23877
-39.026	423.955	12.2583
-39.0247	414.383	12.2778
-39.0235	421.56	12.2974
-39.0213	423.652	12.3169
-39.0191	419.955	12.3364
-39.0179	420.6351	12.356
-39.0173	424.426	12.3755
-39.0137	418.124	12.39502
-39.0134	419.807	12.4146
-39.0123	425.188	12.4341
-39.0098	423.025	12.4536
-39.0085	420.092	12.4731
-39.006	424.567	12.4927
-39.0042	423.676	12.5122
-39.0037	422.824	12.5317
-39.00058	426.063	12.55127
-39.0003	425.4938	12.5708
-38.9982	423.1698	12.5903
-38.9968	423.22	12.6099
-38.9957	429.228	12.6294
-38.9936	421.758	12.6489
-38.99292	424.239	12.6685
-38.9903	430.723	12.688
-38.9875	427.759	12.70752
-38.9866	421.041	12.7271
-38.9853	429.406	12.7466
-38.9844	428.492	12.7661
-38.9809	425.3114	12.7856
-38.9799	429.687	12.8052
-38.97863	430.89	12.8247
-38.97673	421.517	12.8442
-38.97504	431.502	12.86377
-38.9734	431.786	12.8833
-38.97308	427	12.9028
-38.9701	427.9451	12.9224
-38.969	435.212	12.9419
-38.9685	425.825	12.9614
-38.9661	430.0238	12.981
-38.9646	430.241	13.0005
-38.9621	429.699	13.02002
-38.9609	429.195	13.0396
-38.959	434.114	13.0591
-38.95723	428.255	13.0786
-38.9565	429.679	13.0981
-38.9542	434.345	13.1177
-38.9528	432.146	13.1372
-38.95155	429.0954	13.1567
-38.9504	430.328	13.17627
-38.9476	434.607	13.1958
-38.9455	429.998	13.2153
-38.9448	431.8436	13.2349
-38.9428	433.261	13.2544
-38.9417	433.349	13.2739
-38.9401	428.484	13.2935
-38.9371	437.73	13.313
-38.9368	429.875	13.33252
-38.9361	428.048	13.3521
-38.9328	434.7796	13.3716
-38.931	435.53	13.3911
-38.93021	425.798	13.4106
-38.9289	434.57	13.4302
-38.9268	436.047	13.4497
-38.9238	431.557	13.4692
-38.924	433.512	13.48877
-38.9226	436.515	13.5083
-38.9201	428.015	13.5278
-38.9181	433.764	13.5474
-38.9177	437.19	13.5669
-38.91544	430.8331	13.5864
-38.9147	431.526	13.606
-38.9125	436.957	13.6255
-38.911	431.329	13.64502
-38.9085	431.746	13.6646
-38.9079	435.06	13.6841
-38.905	433.994	13.7036
-38.904	433.059	13.7231
-38.9031	435.502	13.7427
-38.9006	435.83	13.7622
-38.90007	431.042	13.7817
-38.8978	435.005	13.80127
-38.8952	437.976	13.8208
-38.89423	432.8866	13.8403
-38.8921	432.207	13.8599
-38.8915	439.732	13.8794
-38.8889	432.799	13.8989
-38.8885	434.4743	13.9185
-38.8861	438.73	13.938
-38.8839	436.1521	13.95752
-38.8823	430.5343	13.9771
-38.8816	438.637	13.9966
-38.8799	433.673	14.0161
-38.8781	432.128	14.0356
-38.8757	437.2807	14.0552
-38.87508	439.74	14.0747
-38.8723	429.311	14.0942
-38.8714	436.883	14.11377
-38.8695	437.556	14.1333
-38.868	434.071	14.1528
-38.8669	436.183	14.1724
-38.864	439.854	14.1919
-38.8631	431.818	14.2114
-38.8618	433.866	14.231
-38.85968	438.1759	14.2505
-38.8586	434.675	14.27002
-38.8585	434.223	14.2896
-38.8541	437.8035	14.3091
-38.8534	436.912	14.3286
-38.8516	431.437	14.3481
-38.8498	437.3024	14.3677
-38.8486	437.135	14.3872
-38.8469	435.559	14.4067
-38.8451	434.641	14.42627
-38.8445	436.809	14.4458
-38.8419	431.745	14.4653
-38.841	435.24	14.4849
-38.8386	440.3942	14.5044
-38.8377	434.161	14.5239
-38.8362	430.033	14.5435
-38.8335	440.812	14.563
-38.8325	435.185	14.58252
-38.8319	434.28	14.6021
-38.8292	438.5	14.6216
-38.8277	439.1492	14.6411
-38.8267	429.21	14.6606
-38.8242	439.657	14.6802
-38.8218	436.4928	14.6997
-38.8202	433.235	14.7192
-38.8206	437.481	14.73877
-38.81884	440.0416	14.7583
-38.8158	430.476	14.7778
-38.8147	435.253	14.7974
-38.813	438.776	14.8169
-38.8113	434.068	14.8364
-38.8096	435.302	14.856
-38.80735	437.973	14.8755
-38.8057	433.388	14.89502
-38.8041	432.767	14.9146
-38.803	439.372	14.9341
-38.8004	434.378	14.9536
-38.79974	432.697	14.9731
-38.798	436.1777	14.9927
-38.7967	438.574	15.0122
-38.7944	430.6778	15.0317
-38.7923	434.061	15.05127
-38.7916	438.221	15.0708
-38.7901	434.219	15.0903
-38.7884	432.35	15.1099
-38.7871	439.624	15.1294
-38.7859	432.002	15.1489
-38.7844	434.1004	15.1685
-38.782	439.693	15.188
-38.7797	436.199	15.20752
-38.778	428.963	15.2271
-38.776	438.5	15.2466
-38.7758	433.696	15.2661
-38.775	431.523	15.2856
-38.7732	437.596	15.3052
-38.77	437.558	15.3247
-38.7698	430.149	15.3442
-38.7672	435.937	15.36377
-38.7644	436.874	15.3833
-38.764	430.772	15.4028
-38.7625	435.547	15.4224
-38.7608	436.382	15.4419
-38.76033	430.111	15.4614
-38.7575	431.085	15.481
-38.7559	436.374	15.5005
-38.7542	432.9812	15.52002
-38.7531	432.203	15.5396
-38.7508	433.801	15.5591
-38.7499	433.089	15.5786
-38.7479	429.645	15.5981
-38.7455	435.308	15.6177
-38.745	434.061	15.6372
-38.7434	430.612	15.6567
-38.7407	429.9599	15.67627
-38.73951	438.313	15.6958
-38.739	427.977	15.7153
-38.7359	431.785	15.7349
-38.7349	436.807	15.7544
-38.7323	432.834	15.7739
-38.7311	428.49	15.7935
-38.7302	436.145	15.813
-38.7281	430.3233	15.83252
-38.727	431.218	15.8521
-38.7248	435.725	15.8716
-38.7233	432.279	15.8911
-38.7217	425.47	15.9106
-38.719	434.5	15.9302
-38.7183	431.43	15.9497
-38.7164	427.7572	15.9692
-38.7165	431.419	15.98877
-38.7136	433.221	16.0083
-38.71143	427.095	16.0278
-38.7108	430.979	16.0474
-38.70792	434.897	16.0669
-38.7066	427.418	16.0864
-38.7054	429.0816	16.106
-38.7039	433.346	16.1255
-38.70303	429.079	16.14502
-38.6994	426.0921	16.1646
-38.6981	434.6524	16.1841
-38.69743	432.593	16.2036
-38.6951	429.092	16.2231
-38.69442	428.082	16.2427
-38.69241	432.669	16.2622
-38.69043	425.868	16.2817
-38.6889	431.799	16.30127
-38.6873	432.6	16.3208
-38.68615	427.937	16.3403
-38.6837	427.386	16.3599
-38.6836	434.252	16.3794
-38.6817	427.09	16.3989
-38.6799	426.272	16.4185
-38.6778	432.991	16.438
-38.6766	431.171	16.45752
-38.675	425.882	16.4771
-38.6729	433.25	16.4966
-38.671	429.447	16.5161
-38.671	425.449	16.5356
-38.6687	432.091	16.5552
-38.66592	430.768	16.5747
-38.66386	423.821	16.5942
-38.6633	428.939	16.61377
-38.66198	431.769	16.6333
-38.6594	424.503	16.6528
-38.65868	428.672	16.6724
-38.6572	429.936	16.6919
-38.6546	427.3891	16.7114
-38.6536	425.932	16.731
-38.6521	431.0528	16.7505
-38.6496	426.482	16.77002
-38.6478	427.233	16.7896
-38.6455	428.679	16.8091
-38.6445	430.152	16.8286
-38.6429	422.628	16.8481
-38.6412	429.865	16.8677
-38.6396	431.655	16.8872
-38.6382	427.305	16.9067
-38.6373	425.507	16.92627
-38.6362	431.404	16.9458
-38.6334	423.0455	16.9653
-38.6327	427.71	16.9849
-38.6294	431.017	17.0044
-38.6295	425.174	17.0239
-38.6277	424.207	17.0435
-38.6246	433.424	17.063
-38.6241	427.518	17.08252
-38.6219	423.064	17.1021
-38.6209	430.843	17.1216
-38.6189	426.924	17.1411
-38.6167	420.336	17.1606
-38.6161	427.305	17.1802
-38.6145	428.766	17.1997
-38.6123	422.376	17.2192
-38.6111	429.174	17.23877
-38.6095	427.9823	17.2583
-38.6074	424.455	17.2778
-38.6058	425.348	17.2974
-38.6044	430.258	17.3169
-38.6023	422.993	17.3364
-38.601	422.176	17.356
-38.59935	425.992	17.3755
-38.5976	426.558	17.39502
-38.5967	421.626	17.4146
-38.59388	427.669	17.4341
-38.5927	426.055	17.4536
-38.5917	422.328	17.4731
-38.5908	425.868	17.4927
-38.5881	428.059	17.5122
-38.5873	419.732	17.5317
-38.58374	426.511	17.55127
-38.5827	429.957	17.5708
-38.5817	425.51	17.5903
-38.5796	421.68	17.6099
-38.5786	429.561	17.6294
-38.5769	423.044	17.6489
-38.575	424.42	17.6685
-38.5738	429.171	17.688
-38.5716	423.76	17.70752
-38.5699	419.958	17.7271
-38.5693	429.093	17.7466
-38.5671	427.234	17.7661
-38.5658	421.049	17.7856
-38.5629	427.799	17.8052
-38.5614	426.288	17.8247
-38.5595	422.085	17.8442
-38.5595	425.136	17.86377
-38.55724	428.31	17.8833
-38.5556	421.891	17.9028
-38.5544	423.73	17.9224
-38.55286	425.0105	17.9419
-38.5504	422.365	17.9614
-38.5491	421.544	17.981
-38.5483	428.34	18.0005
-38.5457	423.372	18.02002
-38.545	422.221	18.0396
-38.5436	424.376	18.0591
-38.54147	428.016	18.0786
-38.5392	419.668	18.0981
-38.5379	426.307	18.1177
-38.5358	426.944	18.1372
-38.5356	422.852	18.1567
-38.532	423.947	18.17627
-38.5318	427.9881	18.1958
-38.5301	419.211	18.2153
-38.5283	423.347	18.2349
-38.5264	429.463	18.2544
-38.5247	422.164	18.2739
-38.522	418.423	18.2935
-38.5217	427.494	18.313
-38.5196	423.677	18.33252
-38.5179	419.671	18.3521
-38.5168	427.712	18.3716
-38.515	422.0231	18.3911
-38.5127	420.06	18.4106
-38.512	425.038	18.4302
-38.5103	426.958	18.4497
-38.509	418.678	18.4692
-38.506	424.966	18.48877
-38.5049	426.01	18.5083
-38.504	420.553	18.5278
-38.5021	421.443	18.5474
-38.5006	426.311	18.5669
-38.4986	421.404	18.5864
-38.4968	422.454	18.606
-38.495	422.93	18.6255
-38.4944	424.1	18.64502
-38.4923	419.043	18.6646
-38.4907	426.709	18.6841
-38.4895	424.839	18.7036
-38.4869	419.697	18.7231
-38.4865	421.3	18.7427
-38.4841	428.167	18.7622
-38.4819	420.766	18.7817
-38.48106	423.361	18.80127
-38.47953	425.598	18.8208
-38.4777	420.302	18.8403
-38.4759	420.753	18.8599
-38.4744	426.778	18.8794
-38.4718	421.407	18.8989
-38.4712	420.579	18.9185
-38.4701	427.772	18.938
-38.4677	421.654	18.95752
-38.46666	419.666	18.9771
-38.4646	425.429	18.9966
-38.463	425.307	19.0161
-38.4608	418.69	19.0356
-38.4596	425.291	19.0552
-38.4588	421.8895	19.0747
-38.4566	419.57	19.0942
-38.4546	423.18	19.11377
-38.453	425.656	19.1333
-38.4511	419.662	19.1528
-38.4489	423.041	19.1724
-38.4489	423.104	19.1919
-38.4467	423.065	19.2114
-38.4449	416.9704	19.231
-38.4428	425.35	19.2505
-38.442	422.328	19.27002
-38.4405	420.061	19.2896
-38.4394	422.975	19.3091
-38.4353	423.487	19.3286
-38.4349	417.566	19.3481
-38.4344	424.713	19.3677
-38.4327	426.348	19.3872
-38.4303	418.3038	19.4067
-38.4292	419.974	19.42627
-38.42617	425.188	19.4458
-38.4258	420.323	19.4653
-38.4234	419.551	19.4849
-38.4229	426.564	19.5044
-38.4204	420.948	19.5239
-38.4183	418.374	19.5435
-38.4176	426.096	19.563
-38.4157	420.393	19.58252
-38.4148	417.043	19.6021
-38.4124	428.157	19.6216
-38.4102	422.395	19.6411
-38.4089	419.39	19.6606
-38.4086	423.43	19.6802
-38.4057	424.477	19.6997
-38.4036	420.089	19.7192
-38.4038	424.505	19.73877
-38.4017	421.641	19.7583
-38.3992	422.062	19.7778
-38.3978	420.094	19.7974
-38.3971	426.977	19.8169
-38.3937	420.148	19.8364
-38.3933	420.253	19.856
-38.3915	423.269	19.8755
-38.3901	423.959	19.89502
-38.3879	418.208	19.9146
-38.3855	424.309	19.9341
-38.3852	423.448	19.9536
-38.3833	420.474	19.9731
-38.38261	421.717	19.9927
-38.3802	425.722	20.0122
-38.3784	421.508	20.022

Data Header:			0.254_solid_uprint_typeiv_090_r0			Time:	26.7058	s	4/14/2019 1:02:43 AM
Data Acquisition:	Timed
Station Name:	ft40.cfg
Test File Name:	monotonic_0.2540_typeiv_solid_090_uprint.tst
Displacement	Force	Running Time
mm	N	s
-38.3782	417.667	20.0317
-38.3768	415.784	20.0415
-38.3762	422.0137	20.05127
-38.376	426.321	20.061
-38.3745	426.149	20.0708
-38.3729	420.698	20.0806
-38.3728	417.48	20.0903
-38.3723	420.967	20.1001
-38.3713	418.347	20.1099
-38.37	423.229	20.1196
-38.3712	425.295	20.1294
-38.3694	423.835	20.13916
-38.3684	420.381	20.1489
-38.3678	414.973	20.1587
-38.3673	417.712	20.1685
-38.3661	422.9292	20.1782
-38.3659	424.111	20.188
-38.3643	423.239	20.1978
-38.3647	418.858	20.20752
-38.3611	417.251	20.2173
-38.3618	419.28	20.2271
-38.3616	422.247	20.2368
-38.3604	423.12	20.2466
-38.3584	426.24	20.2563
-38.35873	421.971	20.2661
-38.357	417.205	20.2759
-38.3574	417.386	20.2856
-38.3575	419.587	20.29541
-38.3544	424.656	20.3052
-38.3545	421.953	20.3149
-38.353	422.1991	20.3247
-38.3524	419.267	20.3345
-38.352	418.4577	20.3442
-38.3516	419.457	20.354
-38.3512	421.231	20.36377
-38.3495	423.75	20.3735
-38.3489	425.971	20.3833
-38.348	418.765	20.3931
-38.347	420.789	20.4028
-38.3459	417.0928	20.4126
-38.345	421.801	20.4224
-38.3448	423.752	20.4321
-38.344	420.559	20.4419
-38.3433	422.161	20.45166
-38.3418	420.483	20.4614
-38.3427	418.065	20.4712
-38.3397	418.447	20.481
-38.3396	420.928	20.4907
-38.3377	424.814	20.5005
-38.3385	424.127	20.5103
-38.3383	421.073	20.52002
-38.3366	418.134	20.5298
-38.3367	418.558	20.5396
-38.335	420.924	20.5493
-38.334	422.391	20.5591
-38.3324	422.625	20.5688
-38.3328	423.485	20.5786
-38.3322	420.001	20.5884
-38.3307	415.99	20.5981
-38.33	417.186	20.60791
-38.3302	422.2048	20.6177
-38.3283	426.166	20.6274
-38.3279	424.676	20.6372
-38.3264	418.982	20.647
-38.3255	417.263	20.6567
-38.32449	418.528	20.6665
-38.3249	419.152	20.67627
-38.3249	426.313	20.686
-38.3235	423.659	20.6958
-38.3214	423.78	20.7056
-38.3211	418.584	20.7153
-38.3205	413.847	20.7251
-38.3189	419.851	20.7349
-38.3189	423.731	20.7446
-38.3171	426.669	20.7544
-38.317	421.054	20.76416
-38.31699	417.202	20.7739
-38.3151	418.073	20.7837
-38.3152	417.084	20.7935
-38.3134	423.2164	20.8032
-38.3135	424.81	20.813
-38.3129	424.254	20.8228
-38.3108	420.916	20.83252
-38.3101	414.765	20.8423
-38.3095	416.951	20.8521
-38.3102	420.217	20.8618
-38.3076	423.358	20.8716
-38.3074	423.531	20.8813
-38.3073	420.46	20.8911
-38.30698	417.727	20.9009
-38.3058	418.904	20.9106
-38.3034	419.174	20.92041
-38.3038	422.063	20.9302
-38.3034	424.99	20.9399
-38.3019	422.81	20.9497
-38.3015	417.298	20.9595
-38.3005	416.873	20.9692
-38.2993	418.761	20.979
-38.2988	423.6098	20.98877
-38.29752	424.579	20.9985
-38.2961	423.151	21.0083
-38.29607	419.399	21.0181
-38.2949	418.258	21.0278
-38.2946	419.414	21.0376
-38.29398	417.6752	21.0474
-38.2937	421.241	21.0571
-38.2924	425.3071	21.0669
-38.2914	418.698	21.07666
-38.2898	419.711	21.0864
-38.2908	416.1489	21.0962
-38.2887	420.221	21.106
-38.28809	422.452	21.1157
-38.2866	420.416	21.1255
-38.2863	422.379	21.1353
-38.286	420.678	21.14502
-38.28405	418.556	21.1548
-38.2841	418.981	21.1646
-38.2827	416.921	21.1743
-38.2826	424.46	21.1841
-38.2804	426.055	21.1938
-38.28117	421.096	21.2036
-38.2794	418.082	21.2134
-38.27927	416.892	21.2231
-38.2792	419.1	21.23291
-38.27718	420.664	21.2427
-38.2774	424.0831	21.2524
-38.2763	423.93	21.2622
-38.2755	421.167	21.272
-38.2738	416.979	21.2817
-38.2736	415.503	21.2915
-38.2717	419.052	21.30127
-38.2716	426.007	21.311
-38.2717	425.703	21.3208
-38.27	419.159	21.3306
-38.26939	416.0997	21.3403
-38.2688	416.238	21.3501
-38.2675	419.163	21.3599
-38.26688	422.834	21.3696
-38.2659	421.778	21.3794
-38.2647	424.111	21.38916
-38.2641	420.156	21.3989
-38.2637	415.3772	21.4087
-38.2621	418.514	21.4185
-38.2616	421.224	21.4282
-38.2614	425.815	21.438
-38.2608	422.753	21.4478
-38.2589	415.622	21.45752
-38.2588	417.9444	21.4673
-38.2565	418.085	21.4771
-38.257	421.794	21.4868
-38.2566	422.149	21.4966
-38.2553	422.998	21.5063
-38.2552	423.681	21.5161
-38.254	415.258	21.5259
-38.2536	417.4292	21.5356
-38.2522	420.238	21.54541
-38.252	423.063	21.5552
-38.2508	425.666	21.5649
-38.2493	420.5022	21.5747
-38.249	419.826	21.5845
-38.2484	419.154	21.5942
-38.2472	418.215	21.604
-38.2456	420.641	21.61377
-38.2449	422.0451	21.6235
-38.2449	422.878	21.6333
-38.245	420.276	21.6431
-38.2436	417.637	21.6528
-38.2421	416.53	21.6626
-38.2417	423.588	21.6724
-38.2399	421.307	21.6821
-38.2405	422.134	21.6919
-38.23888	421.601	21.70166
-38.2393	419.308	21.7114
-38.238	418.508	21.7212
-38.2369	417.906	21.731
-38.2354	420.1723	21.7407
-38.2337	424.753	21.7505
-38.2346	422.305	21.7603
-38.2332	422.062	21.77002
-38.2329	416.42	21.7798
-38.23209	418.6864	21.7896
-38.2311	421.363	21.7993
-38.2309	421.075	21.8091
-38.2287	425.286	21.8188
-38.228	422.354	21.8286
-38.2283	418.576	21.8384
-38.2262	416.384	21.8481
-38.2256	416.239	21.85791
-38.2253	421.183	21.8677
-38.2249	425.126	21.8774
-38.2249	422.921	21.8872
-38.2228	418.615	21.897
-38.2219	415.658	21.9067
-38.2204	419.0051	21.9165
-38.2203	420.195	21.92627
-38.2195	423.328	21.936
-38.2187	425.502	21.9458
-38.218	421.653	21.9556
-38.2178	420.543	21.9653
-38.2168	414.42	21.9751
-38.2157	417.118	21.9849
-38.2143	425.07	21.9946
-38.2129	424.536	22.0044
-38.2128	419.257	22.01416
-38.21167	417.876	22.0239
-38.2115	416.586	22.0337
-38.2098	420.201	22.0435
-38.2111	422.535	22.0532
-38.2083	421.317	22.063
-38.208	424.028	22.0728
-38.2079	419.503	22.08252
-38.2061	414.3956	22.0923
-38.2058	417	22.1021
-38.2055	419.504	22.1118
-38.20295	426.009	22.1216
-38.2031	422.289	22.1313
-38.2024	417.614	22.1411
-38.2017	418.136	22.1509
-38.2009	418.303	22.1606
-38.2004	419.87	22.17041
-38.2	420.5	22.1802
-38.1971	421.987	22.1899
-38.19812	423.135	22.1997
-38.1961	419.31	22.2095
-38.1963	416.61	22.2192
-38.1953	418.601	22.229
-38.1952	421.451	22.23877
-38.1936	424.794	22.2485
-38.1925	419.159	22.2583
-38.19128	418.755	22.2681
-38.191	420.279	22.2778
-38.1907	416.5889	22.2876
-38.1886	418.3576	22.2974
-38.1884	420.25	22.3071
-38.1889	422.135	22.3169
-38.187	422.875	22.32666
-38.1855	418.173	22.3364
-38.1851	414.14	22.3462
-38.18483	418.6825	22.356
-38.1846	420.2822	22.3657
-38.183	419.901	22.3755
-38.1823	422.285	22.3853
-38.1814	419.414	22.39502
-38.1815	417.306	22.4048
-38.1788	415.043	22.4146
-38.1783	417.33	22.4243
-38.1774	422.2673	22.4341
-38.17625	424.033	22.4438
-38.1768	421.678	22.4536
-38.1752	414.332	22.4634
-38.1745	415.617	22.4731
-38.1745	417.844	22.48291
-38.1724	419.6373	22.4927
-38.1733	422.8038	22.5024
-38.1717	420.965	22.5122
-38.1716	419.625	22.522
-38.1706	417.229	22.5317
-38.1687	412.8739	22.5415
-38.1677	419.597	22.55127
-38.1679	423.019	22.561
-38.1671	424.334	22.5708
-38.16555	419.892	22.5806
-38.1648	415.184	22.5903
-38.1642	417.06	22.6001
-38.1639	420.406	22.6099
-38.1618	421.484	22.6196
-38.1621	422.635	22.6294
-38.1605	421.233	22.63916
-38.1595	417.997	22.6489
-38.1593	413.616	22.6587
-38.1583	416.6	22.6685
-38.1571	422.188	22.6782
-38.1574	425.284	22.688
-38.1558	422.042	22.6978
-38.1557	416.1608	22.70752
-38.1543	414.887	22.7173
-38.1532	418.796	22.7271
-38.1517	420.13	22.7368
-38.1518	419.933	22.7466
-38.151	422.3895	22.7563
-38.15	419.057	22.7661
-38.1499	415.217	22.7759
-38.1502	416.771	22.7856
-38.148	415.297	22.79541
-38.1463	422.911	22.8052
-38.145	421.8591	22.8149
-38.1452	417.732	22.8247
-38.1437	417.132	22.8345
-38.1434	416.704	22.8442
-38.14349	417.892	22.854
-38.1419	419.722	22.86377
-38.1417	419.451	22.8735
-38.1406	423.156	22.8833
-38.1399	418.557	22.8931
-38.1377	417.0661	22.9028
-38.1392	416.225	22.9126
-38.1376	417.386	22.9224
-38.137	422.142	22.9321
-38.1347	421.392	22.9419
-38.1348	421.323	22.95166
-38.1337	419.1123	22.9614
-38.13316	416.827	22.9712
-38.1318	416.92	22.981
-38.1316	418.094	22.9907
-38.1307	420.155	23.0005
-38.1303	425.878	23.0103
-38.1293	418.82	23.02002
-38.1284	414.913	23.0298
-38.1282	415.8237	23.0396
-38.127	418.854	23.0493
-38.1267	420.947	23.0591
-38.1252	423.776	23.0688
-38.1247	420.492	23.0786
-38.1237	418.089	23.0884
-38.1232	413.832	23.0981
-38.1206	414.6156	23.10791
-38.12059	419.043	23.1177
-38.1198	423.934	23.1274
-38.1204	423.721	23.1372
-38.118	415.938	23.147
-38.1172	413.1568	23.1567
-38.1174	416.332	23.1665
-38.1169	419.037	23.17627
-38.1147	422.517	23.186
-38.1149	419.121	23.1958
-38.1132	418.62	23.2056
-38.1129	416.81	23.2153
-38.112	412.04	23.2251
-38.111	418.457	23.2349
-38.1111	421.837	23.2446
-38.1091	424.055	23.2544
-38.1088	419.425	23.26416
-38.1077	412.841	23.2739
-38.1068	413.512	23.2837
-38.1054	418.289	23.2935
-38.1059	421.136	23.3032
-38.1052	420.697	23.313
-38.1049	419.862	23.3228
-38.1026	419.048	23.33252
-38.1037	413.956	23.3423
-38.1008	413.656	23.3521
-38.101	418.31	23.3618
-38.1005	422.869	23.3716
-38.0993	421.2485	23.3813
-38.0993	418.606	23.3911
-38.0964	413.505	23.4009
-38.0963	418.6463	23.4106
-38.096	416.124	23.42041
-38.0948	418.571	23.4302
-38.0941	420.7066	23.4399
-38.0933	419.766	23.4497
-38.0925	417.927	23.4595
-38.0919	416.769	23.4692
-38.0916	413.763	23.479
-38.0899	419.076	23.48877
-38.089	420.856	23.4985
-38.0881	418.423	23.5083
-38.088	416.735	23.5181
-38.08596	416.003	23.5278
-38.0866	416.921	23.5376
-38.0853	415.313	23.5474
-38.0845	416.3483	23.5571
-38.083	421.3317	23.5669
-38.0821	419.548	23.57666
-38.0806	418.047	23.5864
-38.0816	412.14	23.5962
-38.0797	414.26	23.606
-38.0802	417.563	23.6157
-38.07917	418.4628	23.6255
-38.0777	420.787	23.6353
-38.0771	416.721	23.64502
-38.077	414.41	23.6548
-38.0754	414.823	23.6646
-38.0742	415.7	23.6743
-38.0738	418.004	23.6841
-38.07177	423.066	23.6938
-38.0719	418.788	23.7036
-38.0714	413.498	23.7134
-38.0704	411.6972	23.7231
-38.0708	415.359	23.73291
-38.0694	419.042	23.7427
-38.0682	421.737	23.7524
-38.0677	418.017	23.7622
-38.0668	417.927	23.772
-38.0646	414.288	23.7817
-38.0645	411.811	23.7915
-38.0633	416.712	23.80127
-38.0634	420.117	23.811
-38.0623	422.126	23.8208
-38.0625	415.375	23.8306
-38.0599	413.164	23.8403
-38.0597	412.7334	23.8501
-38.0592	416.597	23.8599
-38.0583	419.801	23.8696
-38.058	418.5162	23.8794
-38.0564	417.6311	23.88916
-38.0569	415.519	23.8989
-38.05592	409.003	23.9087
-38.0559	413.979	23.9185
-38.0531	416.968	23.9282
-38.0526	421.589	23.938
-38.0525	418.888	23.9478
-38.0523	412.374	23.95752
-38.04932	413.045	23.9673
-38.0496	414.365	23.9771
-38.04895	416.398	23.9868
-38.04739	418.117	23.9966
-38.049	418.03	24.0063
-38.04567	418.904	24.0161
-38.0451	413.301	24.0259
-38.0448	413.863	24.0356
-38.0442	414.67	24.04541
-38.0426	419.227	24.0552
-38.0424	418.596	24.0649
-38.0421	416.366	24.0747
-38.0405	414.978	24.0845
-38.0397	414.668	24.0942
-38.0387	415.46	24.104
-38.0381	413.756	24.11377
-38.0377	416.704	24.1235
-38.0365	417.7218	24.1333
-38.036	417.635	24.1431
-38.0342	413.72	24.1528
-38.0341	411.099	24.1626
-38.0335	414.308	24.1724
-38.0336	417.086	24.1821
-38.0312	418.071	24.1919
-38.0317	418.826	24.20166
-38.0292	412.725	24.2114
-38.0289	414.398	24.2212
-38.0283	413.101	24.231
-38.0277	413.591	24.2407
-38.0261	417.767	24.2505
-38.0255	418.188	24.2603
-38.0248	417.267	24.27002
-38.024	411.508	24.2798
-38.024	410.098	24.2896
-38.0216	415.376	24.2993
-38.0223	416.703	24.3091
-38.0204	419.969	24.3188
-38.02	415.896	24.3286
-38.0188	413.303	24.3384
-38.0187	411.738	24.3481
-38.017	411.128	24.35791
-38.0173	415.11	24.3677
-38.0154	420.895	24.3774
-38.0146	417.821	24.3872
-38.0147	413.4	24.397
-38.0144	407.63	24.4067
-38.01292	411.893	24.4165
-38.0121	415.23	24.42627
-38.012	418.6221	24.436
-38.0109	415.277	24.4458
-38.0095	415.615	24.4556
-38.0096	410.183	24.4653
-38.00729	407.821	24.4751
-38.0074	412.138	24.4849
-38.00787	415.604	24.4946
-38.00568	420.4949	24.5044
-38.005	414.43	24.51416
-38.0045	409.086	24.5239
-38.0028	409.2153	24.5337
-38.002	412.727	24.5435
-38.0017	415.937	24.5532
-38.0002	414.103	24.563
-37.9994	416.49	24.5728
-37.9988	413.156	24.58252
-37.99889	408.871	24.5923
-37.99778	411.653	24.6021
-37.9967	412.7821	24.6118
-37.9964	416.871	24.6216
-37.9949	417.034	24.6313
-37.9942	411.637	24.6411
-37.9937	410.133	24.6509
-37.9931	410.235	24.6606
-37.991	412.7	24.67041
-37.9905	412.921	24.6802
-37.9896	412.517	24.6899
-37.9891	414.489	24.6997
-37.989	412.313	24.7095
-37.9877	409.413	24.7192
-37.9852	408.513	24.729
-37.9872	412.906	24.73877
-37.9845	415.351	24.7485
-37.9833	414.42	24.7583
-37.9823	409.801	24.7681
-37.9826	409.262	24.7778
-37.9819	409.551	24.7876
-37.9813	408.0834	24.7974
-37.9801	410.105	24.8071
-37.9794	410.537	24.8169
-37.9791	412.7309	24.82666
-37.97813	407.766	24.8364
-37.97617	401.478	24.8462
-37.9763	404.966	24.856
-37.9748	405.499	24.8657
-37.9741	405.129	24.8755
-37.9706	34.6045	24.8853
-37.9699	-23.2537	24.89502
-37.96933	-36.7708	24.9048
-37.96973	-57.9703	24.9146
-37.9687	-39.9154	24.9243
-37.969	-33.6451	24.9341
-37.9678	-35.6447	24.9438
-37.9661	-37.8336	24.9536
-37.966	-41.7547	24.9634
-37.9655	-44.1013	24.9731
-37.9642	-40.8871	24.98291
-37.965	-36.9546	24.9927
-37.964	-35.3979	25.0024
-37.9627	-38.5853	25.0122
-37.9619	-43.1927	25.022
-37.9602	-42.12611	25.0317
-37.96003	-42.8065	25.0415
-37.9592	-40.2834	25.05127
-37.9584	-35.6672	25.061
-37.9574	-36.1447	25.0708
-37.9569	-39.7082	25.0806
-37.9568	-45.6281	25.0903
-37.9548	-43.1748	25.1001
-37.95475	-38.83321	25.1099
-37.9543	-36.8263	25.1196
-37.9532	-37.28175	25.1294
-37.9515	-36.8122	25.13916
-37.9504	-41.2473	25.1489
-37.9504	-44.6442	25.1587
-37.9488	-42.6849	25.1685
-37.9497	-40.65451	25.1782
-37.9482	-36.0181	25.188
-37.9481	-37.6606	25.1978
-37.9461	-43.2942	25.20752
-37.9459	-45.054	25.2173
-37.9446	-42.5812	25.2271
-37.9442	-38.2788	25.2368
-37.9431	-38.6099	25.2466
-37.943	-40.8361	25.2563
-37.9411	-38.0194	25.2661
-37.9412	-42.23983	25.2759
-37.9397	-43.7583	25.2856
-37.93919	-43.6933	25.29541
-37.9379	-37.726	25.3052
-37.9374	-35.1596	25.3149
-37.9366	-41.1646	25.3247
-37.9358	-39.5558	25.3345
-37.9351	-43.285	25.3442
-37.93449	-41.1872	25.354
-37.9336	-40.13644	25.36377
-37.9321	-40.4389	25.3735
-37.93132	-39.05262	25.3833
-37.9314	-38.04348	25.3931
-37.9312	-42.0944	25.4028
-37.9297	-44.40044	25.4126
-37.9286	-42.3029	25.4224
-37.92812	-37.3328	25.4321
-37.9267	-37.021	25.4419
-37.927	-39.1983	25.45166
-37.9261	-42.0564	25.4614
-37.9241	-41.5361	25.4712
-37.924	-41.9138	25.481
-37.9227	-41.8555	25.4907
-37.9228	-39.5589	25.5005
-37.92207	-34.8574	25.5103
-37.9205	-38.7695	25.52002
-37.9194	-46.8181	25.5298
-37.9191	-44.9053	25.5396
-37.9184	-41.5518	25.5493
-37.9172	-36.6425	25.5591
-37.9166	-35.9269	25.5688
-37.9165	-40.7937	25.5786
-37.9157	-41.6053	25.5884
-37.9147	-45.12558	25.5981
-37.9145	-43.235	25.60791
-37.91259	-36.7926	25.6177
-37.9114	-36.9051	25.6274
-37.9108	-35.90099	25.6372
-37.90929	-40.7781	25.647
-37.9106	-45.9433	25.6567
-37.9093	-42.9902	25.6665
-37.9064	-38.1176	25.67627
-37.907	-36.6328	25.686
-37.9066	-38.7732	25.6958
-37.9059	-41.7463	25.7056
-37.9047	-42.7469	25.7153
-37.9034	-45.08812	25.7251
-37.9022	-41.9101	25.7349
-37.9022	-39.075	25.7446
-37.9011	-37.5148	25.7544
-37.8998	-38.2223	25.76416
-37.8997	-46.2291	25.7739
-37.8993	-45.4313	25.7837
-37.8983	-41.107	25.7935
-37.897	-40.3903	25.8032
-37.8965	-38.3352	25.813
-37.8954	-40.2887	25.8228
-37.8944	-40.5567	25.83252
-37.8937	-43.808	25.8423
-37.8916	-43.5505	25.8521
-37.8913	-40.1436	25.8618
-37.8927	-36.2626	25.8716
-37.8914	-37.0126	25.8813
-37.8896	-41.41732	25.8911
-37.8897	-43.5612	25.9009
-37.8883	-43.2921	25.9106
-37.888	-41.3994	25.92041
-37.8871	-40.0142	25.9302
-37.8858	-39.2414	25.9399
-37.8853	-39.6465	25.9497
-37.8836	-40.6858	25.9595
-37.8832	-41.962	25.9692
-37.8822	-46.51088	25.979
-37.8816	-41.3548	25.98877
-37.87989	-37.6051	25.9985
-37.8802	-39.29493	26.0083
-37.8795	-38.658	26.0181
-37.8784	-43.8897	26.0278
-37.8785	-43.6874	26.0376
-37.8762	-40.2474	26.0474
-37.8748	-42.0807	26.0571
-37.87468	-37.3563	26.0669
-37.8743	-37.0486	26.07666
-37.8734	-41.9054	26.0864
-37.8733	-45.98587	26.0962
-37.8713	-45.7876	26.106
-37.8719	-38.85733	26.1157
-37.8718	-36.6378	26.1255
-37.8693	-38.7072	26.1353
-37.8686	-41.8155	26.14502
-37.8675	-43.70092	26.1548
-37.8661	-43.6278	26.1646
-37.8668	-42.19141	26.1743
-37.86602	-40.2672	26.1841
-37.8641	-35.9538	26.1938
-37.864	-39.7944	26.2036
-37.8641	-43.6423	26.2134
-37.8617	-47.1842	26.2231
-37.8606	-44.31918	26.23291
-37.8607	-38.5913	26.2427
-37.8589	-34.3871	26.2524
-37.858	-40.7507	26.2622
-37.8578	-42.8019	26.272
-37.85746	-42.91613	26.2817
-37.8566	-46.326	26.2915
-37.8557	-39.133	26.30127
-37.8549	-37.3162	26.311
-37.8543	-34.39994	26.3208
-37.8534	-40.8791	26.3306
-37.8516	-46.6723	26.3403
-37.8526	-45.0278	26.3501
-37.8504	-41.6849	26.3599
-37.8502	-35.7191	26.3696
-37.8495	-38.87674	26.3794
-37.84845	-41.7825	26.38916
-37.84795	-42.0325	26.3989
-37.8464	-44.6577	26.4087
-37.8455	-43.8125	26.4185
-37.8447	-38.7524	26.4282
-37.84409	-36.7833	26.438
-37.84341	-35.5081	26.4478
-37.8428	-43.5218	26.45752
-37.8425	-45.1056	26.4673
-37.8411	-41.3989	26.4771
-37.8402	-41.8095	26.4868
-37.84	-36.9546	26.4966
-37.8381	-39.96405	26.5063
-37.8371	-41.10067	26.5161
-37.8364	-41.2471	26.5259
-37.8352	-42.8215	26.5356
-37.8356	-43.4939	26.54541
-37.8345	-40.0405	26.5552
-37.8335	-37.4006	26.5649
-37.8327	-40.0621	26.5747
-37.832	-41.9197	26.5845
-37.832	-44.285	26.5942
-37.8307	-41.3617	26.604
-37.8299	-41.266	26.61377
-37.8295	-39.3998	26.6235
-37.8273	-38.5191	26.6333
-37.8267	-39.5946	26.6431
-37.82634	-41.3327	26.6528
-37.8241	-48.0099	26.6626
-37.8237	-42.38097	26.6724
-37.8234	-38.4264	26.6821
-37.8226	-38.2241	26.6919