File: data/processed_data_files/tensile/0.254_solid_dimension_typei_4545_r(5).dat
MTS793|BTW|ENU|1|2|.|/|:|1|0|0|A

Data Header:			0.254_solid_dimension_typei_4545_r0			Time:	20.0168	s	4/14/2019 4:55:12 AM
Data Acquisition:	Timed
Station Name:	ft40.cfg
Test File Name:	monotonic_0.2540_typei_solid_4545_dimension.tst
Displacement	Force	Running Time
mm	N	s
9.95812	-112.25	0.0222168
9.95752	-126.665	0.041748
9.95802	-133.0641	0.0612793
9.96068	-117.662	0.0808105
9.96152	-116.192	0.1003418
9.96248	-133.585	0.119873
9.9648	-114.628	0.1394043
9.96541	-113.509	0.158936
9.96758	-127.879	0.1784668
9.96917	-118.466	0.197998
9.97026	-107.579	0.2175293
9.97268	-122.415	0.237061
9.97408	-119.7873	0.2565918
9.97645	-107.231	0.276123
9.97699	-115.676	0.2956543
9.97899	-117.686	0.315186
9.98083	-104.263	0.3347168
9.98229	-108.187	0.354248
9.98432	-118.943	0.3737793
9.98553	-103.524	0.393311
9.987009	-102.9223	0.4128418
9.98852	-113.048	0.432373
9.99057	-106.8254	0.4519043
9.99179	-95.675	0.471436
9.99373	-111.398	0.4909668
9.99632	-103.582	0.510498
9.99707	-92.5996	0.5300293
9.99812	-103.751	0.549561
9.99938	-106.395	0.5690918
10.0022	-88.99955	0.588623
10.0041	-102.406	0.6081543
10.0056	-103.701	0.627686
10.006	-88.2719	0.6472168
10.00795	-90.5517	0.666748
10.00992	-107.336	0.6862793
10.0112	-87.6094	0.705811
10.0135	-88.5235	0.7253418
10.0147	-99.4928	0.744873
10.0166	-88.4327	0.7644043
10.0183	-81.7141	0.783936
10.02022	-99.3467	0.8034668
10.0211	-86.6684	0.822998
10.0226	-78.7382	0.8425293
10.0234	-91.4865	0.862061
10.0259	-88.0808	0.8815918
10.027	-75.4407	0.901123
10.0297	-84.4828	0.9206543
10.0307	-88.1975	0.940186
10.0332	-72.8079	0.9597168
10.0352	-78.0315	0.979248
10.03602	-85.4833	0.9987793
10.03652	-74.192	1.01831
10.0385	-71.922	1.03784
10.0401	-85.5752	1.057373
10.0427	-70.6456	1.0769
10.0451	-65.6473	1.09644
10.046	-78.42	1.11597
10.0483	-75.102	1.135498
10.0487	-60.5826	1.15503
10.0504	-74.8976	1.17456
10.0514	-74.216	1.19409
10.0531	-58.8885	1.213623
10.0548	-66.3849	1.23315
10.0568	-75.2318	1.25269
10.0578	-54.727	1.27222
10.0604	-63.1504	1.291748
10.061	-72.441	1.31128
10.0647	-54.932	1.33081
10.0656	-52.9831	1.35034
10.0659	-69.8066	1.369873
10.0683	-55.6165	1.3894
10.0704	-50.5078	1.40894
10.0721	-61.5213	1.42847
10.0735	-56.7523	1.447998
10.0749	-45.0943	1.46753
10.0767	-58.7136	1.48706
10.07841	-56.58839	1.50659
10.0791	-41.0497	1.526123
10.0816	-53.3421	1.54565
10.08243	-56.044	1.56519
10.0848	-41.7982	1.58472
10.0856	-42.6479	1.604248
10.0883	-56.2896	1.62378
10.0897	-41.3124	1.64331
10.0913	-39.3251	1.66284
10.0929	-48.2178	1.682373
10.09367	-41.5444	1.7019
10.0966	-30.5976	1.72144
10.0979	-47.4125	1.74097
10.0983	-40.7781	1.760498
10.1012	-27.61413	1.78003
10.1026	-40.0332	1.79956
10.1037	-42.9995	1.81909
10.1065	-23.0836	1.838623
10.1078	-33.7096	1.85815
10.1093	-39.0065	1.87769
10.1106	-23.7017	1.89722
10.1124	-25.9467	1.916748
10.11355	-38.56031	1.93628
10.116	-20.6229	1.95581
10.1169	-23.6808	1.97534
10.1203	-34.6953	1.994873
10.1197	-22.5597	2.0144
10.1222	-13.2021	2.03394
10.1232	-32.5906	2.05347
10.1244	-22.7196	2.072998
10.12731	-12.9127	2.09253
10.1287	-24.9907	2.11206
10.1307	-21.48811	2.13159
10.1315	-10.10736	2.151123
10.1333	-19.619	2.17065
10.1343	-22.156	2.19019
10.1374	-7.03329	2.20972
10.1379	-12.0569	2.229248
10.1396	-20.30855	2.24878
10.1416	-7.41107	2.26831
10.1435	-3.19717	2.28784
10.1446	-17.7541	2.307373
10.14684	-7.43225	2.3269
10.1473	0.637895	2.34644
10.1494	-9.62384	2.36597
10.1507	-7.93101	2.385498
10.152	7.36222	2.40503
10.1543	-9.55656	2.42456
10.1559	-5.62242	2.44409
10.1565	10.0768	2.463623
10.16	1.62375	2.48315
10.1602	-8.6828	2.50269
10.1623	10.439	2.52222
10.164	5.76618	2.541748
10.1665	-2.40943	2.56128
10.1667	10.9103	2.58081
10.1693	13.4753	2.60034
10.1704	-2.11272	2.619873
10.1725	13.2271	2.6394
10.17369	17.1058	2.65894
10.1755	3.50499	2.67847
10.1776	11.7361	2.697998
10.1794	23.337	2.71753
10.1806	10.2222	2.73706
10.18225	11.34	2.75659
10.1842	24.2896	2.776123
10.1852	16.7032	2.79565
10.1865	12.9596	2.81519
10.1887	26.7336	2.83472
10.1912	24.9915	2.854248
10.1915	13.9133	2.87378
10.1934	30.8408	2.89331
10.195	29.4472	2.91284
10.1962	18.1037	2.932373
10.1984	27.1719	2.9519
10.1995	39.0239	2.97144
10.202	21.6329	2.99097
10.2036	27.5159	3.010498
10.2049	40.8394	3.03003
10.2065	31.1587	3.04956
10.2077	27.0525	3.06909
10.21031	45.8737	3.088623
10.2112	33.26218	3.10815
10.213	30.8022	3.12769
10.2148	47.3693	3.14722
10.2167	43.1943	3.166748
10.2175	28.6471	3.18628
10.2196	47.4327	3.20581
10.2215	48.794	3.22534
10.2223	35.8159	3.244873
10.2244	45.7745	3.2644
10.2267	54.7411	3.28394
10.22678	37.5289	3.30347
10.2295	46.2129	3.322998
10.2313	57.9031	3.34253
10.2324	44.3733	3.36206
10.2347	46.9653	3.38159
10.2364	61.5648	3.401123
10.23735	53.0523	3.42065
10.2394	46.3179	3.44019
10.2407	63.4368	3.45972
10.2429	58.7422	3.479248
10.2441	51.4174	3.49878
10.2452	61.8473	3.51831
10.2471	65.223	3.53784
10.2487	52.1604	3.557373
10.2502	64.3063	3.5769
10.252	72.3336	3.59644
10.2542	59.1886	3.61597
10.2553	61.9109	3.635498
10.25649	79.1522	3.65503
10.2584	65.1138	3.67456
10.2593	64.3555	3.69409
10.2612	79.2799	3.713623
10.2637	73.6651	3.73315
10.2648	63.9351	3.75269
10.2663	83.83136	3.77222
10.2683	76.6034	3.791748
10.2697	67.3034	3.81128
10.271	83.19767	3.83081
10.2723	85.9355	3.85034
10.2736	67.7528	3.869873
10.2758	82.8007	3.8894
10.2778	89.6204	3.90894
10.2793	75.912	3.92847
10.2818	82.2485	3.947998
10.283	92.7185	3.96753
10.2854	80.1027	3.98706
10.2873	83.6984	4.00659
10.2875	96.45	4.026123
10.2895	87.32148	4.04565
10.2907	84.449	4.06519
10.29388	97.2712	4.08472
10.2953	97.193	4.104248
10.2963	83.9848	4.12378
10.2975	98.8611	4.14331
10.299	101.21	4.16284
10.3013	91.3539	4.182373
10.3026	98.2541	4.2019
10.3046	108.093	4.22144
10.3057	93.0584	4.24097
10.3078	99.471	4.260498
10.3087	113.113	4.28003
10.31	101.286	4.29956
10.312	96.5741	4.31909
10.3144	118.041	4.338623
10.3148	106.228	4.35815
10.31847	102.034	4.37769
10.3189	117.642	4.39722
10.3206	115.478	4.416748
10.3214	101.374	4.43628
10.3234	118.767	4.45581
10.3252	119.537	4.47534
10.327	104.875	4.494873
10.329	119.0348	4.5144
10.3293	126.218	4.53394
10.3313	110.899	4.55347
10.3332	116.472	4.572998
10.3356	129.203	4.59253
10.3366	117.8968	4.61206
10.3374	118.546	4.63159
10.3394	130.158	4.651123
10.3415	123.579	4.67065
10.3426	119.127	4.69019
10.3449	134.507	4.70972
10.3467	130.085	4.729248
10.34768	121.629	4.74878
10.3504	133.612	4.76831
10.3513	140.859	4.78784
10.35289	123.616	4.807373
10.355	134.556	4.8269
10.3557	144.654	4.84644
10.3578	134.209	4.86597
10.3591	132.398	4.885498
10.3621	150.024	4.90503
10.3636	134.211	4.92456
10.3644	134.566	4.94409
10.3653	151.778	4.963623
10.36736	143.157	4.98315
10.3678	133.577	5.00269
10.3715	153.027	5.02222
10.37268	148.857	5.041748
10.3746	139.438	5.06128
10.375	151.844	5.08081
10.37666	156.229	5.10034
10.3779	140.088	5.119873
10.3792	153.604	5.1394
10.3819	159.194	5.15894
10.3844	146.048	5.17847
10.3861	154.249	5.197998
10.3874	166.027	5.21753
10.3871	153.294	5.23706
10.391	151.502	5.25659
10.3921	169.664	5.276123
10.394	159.2496	5.29565
10.3945	154.53	5.31519
10.3966	167.58	5.33472
10.3989	168.423	5.354248
10.39952	156.251	5.37378
10.4007	172.2184	5.39331
10.4026	172.86	5.41284
10.4057	161.4288	5.432373
10.4062	169.008	5.4519
10.4087	183.009	5.47144
10.4094	163.614	5.49097
10.4113	171.0428	5.510498
10.4135	182.3028	5.53003
10.4158	173.417	5.54956
10.4167	168.823	5.56909
10.4177	188.171	5.588623
10.41978	176.729	5.60815
10.4206	172.069	5.62769
10.42263	190.045	5.64722
10.4248	187.87	5.666748
10.4255	170.716	5.68628
10.428	189.622	5.70581
10.4292	191.551	5.72534
10.4316	176.4487	5.744873
10.4319	188.896	5.7644
10.43357	195.296	5.78394
10.43648	181.549	5.80347
10.43722	188.674	5.822998
10.4383	199.9715	5.84253
10.4412	186.865	5.86206
10.4421	190.795	5.88159
10.4436	203.741	5.901123
10.4452	196.61	5.92065
10.4476	186.946	5.94019
10.4483	204.679	5.95972
10.4497	202.642	5.979248
10.452	194.536	5.99878
10.454	204.655	6.01831
10.4556	209.526	6.03784
10.4574	192.6051	6.057373
10.4583	207.935	6.0769
10.46	215.073	6.09644
10.4608	199.654	6.11597
10.4636	201.8365	6.135498
10.4653	221.3658	6.15503
10.467	205.064	6.17456
10.4666	206.061	6.19409
10.46997	223.0036	6.213623
10.4721	216.265	6.23315
10.4726	205.84	6.25269
10.4745	224.606	6.27222
10.4758	219.915	6.291748
10.4782	207.978	6.31128
10.4793	225.81	6.33081
10.4814	228.516	6.35034
10.4826	209.948	6.369873
10.484	224.743	6.3894
10.4865	233.465	6.40894
10.4876	218.573	6.42847
10.4899	225.216	6.447998
10.4914	235.141	6.46753
10.492	224.0289	6.48706
10.4955	223.799	6.50659
10.4959	239.6837	6.526123
10.4977	228.832	6.54565
10.4987	227.055	6.56519
10.4998	241.314	6.58472
10.5025	241.296	6.604248
10.5035	225.742	6.62378
10.5052	242.112	6.64331
10.5083	246.445	6.66284
10.50806	233.4	6.682373
10.51207	239.825	6.7019
10.5118	251.628	6.72144
10.514	234.003	6.74097
10.5144	242.988	6.760498
10.5169	254.897	6.78003
10.5187	242.915	6.79956
10.5196	239.166	6.81909
10.5213	260.346	6.838623
10.52381	250.152	6.85815
10.5251	243.87	6.87769
10.5278	259.0936	6.89722
10.5301	257.186	6.916748
10.5311	244.105	6.93628
10.5319	260.7	6.95581
10.5332	260.07	6.97534
10.5355	247.32	6.994873
10.53716	261.044	7.0144
10.53812	268.755	7.03394
10.5396	252.683	7.05347
10.5413	258.842	7.072998
10.5432	272.57	7.09253
10.5451	261.107	7.11206
10.5461	260.836	7.13159
10.5477	273.551	7.151123
10.5489	266.408	7.17065
10.551	260.459	7.19019
10.5534	278.011	7.20972
10.5557	273.125	7.229248
10.5558	263.3912	7.24878
10.5582	275.582	7.26831
10.5602	284.155	7.28784
10.5609	265.109	7.307373
10.5621	275.039	7.3269
10.5643	287.278	7.34644
10.5663	275.573	7.36597
10.5676	274.831	7.385498
10.5691	290.525	7.40503
10.5713	276.4747	7.42456
10.5722	277.622	7.44409
10.5735	294.697	7.463623
10.5764	286.925	7.48315
10.579	274.643	7.50269
10.5788	295.85	7.52222
10.5806	292.83	7.541748
10.5824	280.674	7.56128
10.5835	293.1496	7.58081
10.5846	298.456	7.60034
10.5868	283.06	7.619873
10.5882	294.4664	7.6394
10.5908	304.7475	7.65894
10.5921	288.018	7.67847
10.5937	293.883	7.697998
10.5953	308.869	7.71753
10.597	296.38	7.73706
10.5978	292.495	7.75659
10.6007	310.056	7.776123
10.601	303.356	7.79565
10.6032	297.487	7.81519
10.6063	309.6636	7.83472
10.606	310.489	7.854248
10.6084	295.5079	7.87378
10.60951	311.678	7.89331
10.6107	316.458	7.91284
10.6136	302.011	7.932373
10.61407	307.381	7.9519
10.6156	324.781	7.97144
10.6171	306.195	7.99097
10.6187	307.656	8.010498
10.6211	327.49	8.03003
10.6232	317.387	8.04956
10.6246	308.044	8.06909
10.62539	327.361	8.088623
10.6272	320.7742	8.10815
10.6287	310.136	8.12769
10.6309	329.17	8.14722
10.633	330.224	8.166748
10.63531	311.955	8.18628
10.6362	328.069	8.20581
10.6366	334.463	8.22534
10.6378	318.214	8.244873
10.6414	327.438	8.2644
10.6417	339.43	8.28394
10.644	325.025	8.30347
10.646	326.4213	8.322998
10.6475	342.451	8.34253
10.6483	329.416	8.36206
10.6508	328.524	8.38159
10.65174	344.122	8.401123
10.6539	339.974	8.42065
10.6549	324.7045	8.44019
10.6567	344.541	8.45972
10.65891	345.627	8.479248
10.6599	333.253	8.49878
10.6612	341.303	8.51831
10.6638	353.873	8.53784
10.6658	337.357	8.557373
10.6661	344.4722	8.5769
10.66859	358.389	8.59644
10.6695	342.547	8.61597
10.6719	340.277	8.635498
10.6731	364.427	8.65503
10.6751	349.153	8.67456
10.6761	343.2948	8.69409
10.678	361.4292	8.713623
10.6794	359.227	8.73315
10.6817	343.616	8.75269
10.68311	363.648	8.77222
10.6847	361.143	8.791748
10.6862	346.197	8.81128
10.688	364.003	8.83081
10.6897	371.516	8.85034
10.6909	350.85	8.869873
10.6923	360.574	8.8894
10.6943	374.367	8.90894
10.697	359.231	8.92847
10.69728	361.447	8.947998
10.6989	376.3894	8.96753
10.7011	366.963	8.98706
10.70175	359.978	9.00659
10.704	379.751	9.026123
10.7052	372.116	9.04565
10.7078	364.424	9.06519
10.7094	377.864	9.08472
10.7105	381.925	9.104248
10.71148	365.205	9.12378
10.7133	377.911	9.14331
10.7155	387.903	9.16284
10.7178	372.411	9.182373
10.7185	376.893	9.2019
10.7208	394.497	9.22144
10.72088	375.6326	9.24097
10.723	377.209	9.260498
10.7253	397.848	9.28003
10.7271	385.242	9.29956
10.72942	375.795	9.31909
10.7303	398.08	9.338623
10.7315	390.69	9.35815
10.7332	379.341	9.37769
10.7343	396.836	9.39722
10.7358	401.213	9.416748
10.7378	382.401	9.43628
10.7392	396.67	9.45581
10.7403	403.252	9.47534
10.7432	386.5607	9.494873
10.7454	396.391	9.5144
10.7463	411.1709	9.53394
10.74703	393.078	9.55347
10.7494	394.043	9.572998
10.7513	412.319	9.59253
10.7538	402.002	9.61206
10.7547	397.896	9.63159
10.7553	412.271	9.651123
10.7583	408.818	9.67065
10.759	397.335	9.69019
10.7614	414.7117	9.70972
10.7633	414.945	9.729248
10.7641	402.656	9.74878
10.7656	411.715	9.76831
10.7667	425.078	9.78784
10.7683	404.173	9.807373
10.7708	412.4783	9.8269
10.7729	428.325	9.84644
10.77312	413.154	9.86597
10.7755	409.511	9.885498
10.7776	430.781	9.90503
10.7789	418.217	9.92456
10.779	411.479	9.94409
10.7823	432.681	9.963623
10.78431	428.93	9.98315
10.7844	411.517	10.0027
10.7862	433.175	10.0222
10.7888	432.969	10.0417
10.7906	415.339	10.0613
10.7909	429.642	10.0808
10.79411	441.021	10.1003
10.7956	420.175	10.1199
10.7969	430.349	10.1394
10.7986	443.6254	10.1589
10.8017	426.507	10.1785
10.802	429.929	10.198
10.8032	447.433	10.2175
10.8047	435.599	10.2371
10.8067	426.351	10.2566
10.80746	447.867	10.2761
10.8098	443.597	10.2957
10.8118	431.516	10.3152
10.8127	445.433	10.3347
10.8147	452.706	10.3542
10.8164	433.99	10.3738
10.8176	449.218	10.3933
10.8196	456.575	10.4128
10.8207	439.894	10.4324
10.8231	444.07	10.4519
10.8232	464.146	10.4714
10.8253	444.45	10.491
10.8275	443.009	10.5105
10.8285	464.19	10.53
10.8313	454.716	10.5496
10.83342	443.229	10.5691
10.83451	465.28	10.5886
10.8362	458.31	10.6082
10.8375	447.082	10.6277
10.8393	466.304	10.6472
10.8404	467.877	10.6667
10.8418	447.746	10.6863
10.8432	465.044	10.7058
10.8458	472.3815	10.7253
10.8474	454.349	10.7449
10.849	461.724	10.7644
10.8508	476.772	10.7839
10.8516	461.812	10.8035
10.8543	461.652	10.823
10.8554	479.374	10.8425
10.8576	467.849	10.8621
10.8576	462.822	10.8816
10.8603	481.2807	10.9011
10.8621	477.219	10.9207
10.8639	461.279	10.9402
10.8661	480.01	10.9597
10.8666	483.5975	10.9792
10.8688	470.359	10.9988
10.8694	477.297	11.0183
10.8714	490.554	11.0378
10.8721	471.955	11.0574
10.8752	480.417	11.0769
10.8759	495.784	11.0964
10.8784	479.1163	11.116
10.879	476.525	11.1355
10.8802	500.315	11.155
10.8839	486.0957	11.1746
10.8845	477.704	11.1941
10.8869	499.569	11.2136
10.88778	496.689	11.2332
10.8902	478.3808	11.2527
10.8899	499.549	11.2722
10.8934	500.069	11.2917
10.8948	483.0614	11.3113
10.8958	497.925	11.3308
10.89711	508.099	11.3503
10.89872	487.691	11.3699
10.8999	494.853	11.3894
10.9025	511.241	11.4089
10.9031	495.1333	11.4285
10.9058	495.635	11.448
10.9086	513.503	11.4675
10.908	503.204	11.4871
10.9115	494.931	11.5066
10.9125	514.157	11.5261
10.9136	509.5101	11.5457
10.9157	498.646	11.5652
10.9171	513.533	11.5847
10.9191	518.477	11.6042
10.9207	498.601	11.6238
10.9222	512.64	11.6433
10.9234	523.938	11.6628
10.925	507.46	11.6824
10.9267	510.921	11.7019
10.9291	528.958	11.7214
10.9303	510.851	11.741
10.9323	511.856	11.7605
10.93311	531.987	11.78
10.9356	522.283	11.7996
10.9357	507.924	11.8191
10.9392	532.846	11.8386
10.93994	527.37	11.8582
10.9405	513.665	11.8777
10.9432	530.212	11.8972
10.945	534.955	11.9167
10.9461	516.239	11.9363
10.948	532.045	11.9558
10.949	539.613	11.9753
10.9514	521.135	11.9949
10.953	530.867	12.0144
10.9543	545.528	12.0339
10.956	528.281	12.0535
10.95734	526.43	12.073
10.9608	547.0379	12.0925
10.9608	535.018	12.1121
10.9618	528.302	12.1316
10.9643	545.967	12.1511
10.9666	542.09	12.1707
10.9675	529.04	12.1902
10.9689	547.3786	12.2097
10.971	550.298	12.2292
10.9726	535.121	12.2488
10.9743	544.443	12.2683
10.9751	559.758	12.2878
10.9786	539.081	12.3074
10.9791	543.918	12.3269
10.9806	560.3175	12.3464
10.9822	547.944	12.366
10.9837	540.415	12.3855
10.9853	563.764	12.405
10.9873	550.261	12.4246
10.9881	544.603	12.4441
10.9907	564.609	12.4636
10.9912	562.489	12.4832
10.994	541.837	12.5027
10.9961	564.912	12.5222
10.9969	567.314	12.5417
10.9993	549.246	12.5613
10.9997	562.253	12.5808
11.0028	571.8927	12.6003
11.0041	553.498	12.6199
11.0051	560.294	12.6394
11.0068	575.7182	12.6589
11.008	558.428	12.6785
11.0104	561.052	12.698
11.0114	579.329	12.7175
11.0134	567.112	12.7371
11.0135	558.63	12.7566
11.0161	578.784	12.7761
11.0187	574.498	12.7957
11.0194	563.553	12.8152
11.0213	577.168	12.8347
11.023	582.153	12.8542
11.0244	565.133	12.8738
11.02592	577.491	12.8933
11.0271	586.784	12.9128
11.029	571.105	12.9324
11.0313	572.668	12.9519
11.0335	593.488	12.9714
11.0339	575.122	12.991
11.0364	575.092	13.0105
11.0372	594.081	13.03
11.0394	585.862	13.0496
11.0407	572.953	13.0691
11.0425	596.135	13.0886
11.0439	589.466	13.1082
11.0459	575.303	13.1277
11.0469	596.796	13.1472
11.049	600.545	13.1667
11.0517	578.577	13.1863
11.05191	593.754	13.2058
11.0542	602.869	13.2253
11.0555	585.109	13.2449
11.0568	592.105	13.2644
11.0583	608.6687	13.2839
11.0601	591.794	13.3035
11.0618	591.901	13.323
11.0637	610.245	13.3425
11.0641	597.177	13.3621
11.0668	592.3241	13.3816
11.0691	610.388	13.4011
11.0706	605.0733	13.4207
11.0713	591.384	13.4402
11.07269	609.781	13.4597
11.0752	612.661	13.4792
11.0764	597.405	13.4988
11.0776	607.15	13.5183
11.0799	619.534	13.5378
11.0813	598.576	13.5574
11.0846	607.278	13.5769
11.0855	623.563	13.5964
11.0864	608.425	13.616
11.088	602.497	13.6355
11.08858	628.082	13.655
11.0907	614.266	13.6746
11.0916	606.714	13.6941
11.0938	626.613	13.7136
11.0954	624.178	13.7332
11.0974	604.401	13.7527
11.1009	626.942	13.7722
11.1012	627.825	13.7917
11.1019	611.53	13.8113
11.1042	625.804	13.8308
11.1056	637.869	13.8503
11.1066	613.182	13.8699
11.1095	622.701	13.8894
11.1105	639.479	13.9089
11.11299	623.9588	13.9285
11.113	624.316	13.948
11.1163	641.352	13.9675
11.1174	629.837	13.9871
11.11936	622.132	14.0066
11.1206	643.039	14.0261
11.12084	636.534	14.0457
11.1243	624.983	14.0652
11.125	638.293	14.0847
11.1267	646.459	14.1042
11.1282	626.403	14.1238
11.1294	639.255	14.1433
11.1319	650.096	14.1628
11.1335	633.857	14.1824
11.1352	635.847	14.2019
11.1371	657.012	14.2214
11.1376	637.505	14.241
11.1399	637.58	14.2605
11.1411	657.6933	14.28
11.1433	647.503	14.2996
11.1444	631.994	14.3191
11.1454	659.296	14.3386
11.1478	653.148	14.3582
11.1498	638.835	14.3777
11.1512	656.346	14.3972
11.153	660.937	14.4167
11.1538	640.466	14.4363
11.1565	656.322	14.4558
11.158	665.135	14.4753
11.1592	647.696	14.4949
11.1621	655.906	14.5144
11.1632	671.012	14.5339
11.1647	652.153	14.5535
11.1663	651.435	14.573
11.1677	672.978	14.5925
11.1689	661.537	14.6121
11.1713	654.668	14.6316
11.1729	671.384	14.6511
11.1736	669.008	14.6707
11.17595	653.387	14.6902
11.1782	672.586	14.7097
11.179	674.2132	14.7292
11.1804	658.365	14.7488
11.18204	668.427	14.7683
11.1839	682.936	14.7878
11.1848	661.4964	14.8074
11.1865	667.177	14.8269
11.1904	684.835	14.8464
11.1911	671.458	14.866
11.1915	665.88	14.8855
11.19422	688.917	14.905
11.19452	674.0802	14.9246
11.1982	668.456	14.9441
11.1988	690.206	14.9636
11.2011	684.767	14.9832
11.2036	666.818	15.0027
11.2029	688.748	15.0222
11.2057	690.486	15.0417
11.20713	672.0304	15.0613
11.207	684.597	15.0808
11.209	697.151	15.1003
11.212	676.525	15.1199
11.2138	685.475	15.1394
11.2154	699.374	15.1589
11.2173	682.153	15.1785
11.2181	683.217	15.198
11.2193	702.916	15.2175
11.2208	691.56	15.2371
11.2232	681.508	15.2566
11.2248	701.412	15.2761
11.2261	698.073	15.2957
11.2281	686.394	15.3152
11.2304	700.69	15.3347
11.2319	705.464	15.3542
11.2328	688.25	15.3738
11.2346	701.325	15.3933
11.2356	711.4054	15.4128
11.2384	695.117	15.4324
11.2393	696.39	15.4519
11.2409	717.49	15.4714
11.2426	698.231	15.491
11.2427	696.3667	15.5105
11.2467	716.574	15.53
11.2472	707.494	15.5496
11.2485	695.528	15.5691
11.2505	719.9906	15.5886
11.253	710.137	15.6082
11.2531	698.348	15.6277
11.2549	717.302	15.6472
11.2568	720.551	15.6667
11.2589	699.679	15.6863
11.2601	715.8313	15.7058
11.2619	724.311	15.7253
11.2636	707.1369	15.7449
11.2659	713.51	15.7644
11.2671	728.554	15.7839
11.26889	711.671	15.8035
11.2711	713.163	15.823
11.2722	730.468	15.8425
11.2743	718.0119	15.8621
11.2744	712.202	15.8816
11.2778	731.404	15.9011
11.2781	727.325	15.9207
11.2798	711.943	15.9402
11.2818	729.695	15.9597
11.2832	733.372	15.9792
11.2848	720.046	15.9988
11.28661	727.402	16.0183
11.2882	739.979	16.0378
11.2896	720.953	16.0574
11.29219	727.737	16.0769
11.2933	745.0387	16.0964
11.2946	728.582	16.116
11.2959	724.137	16.1355
11.2988	747.197	16.155
11.2989	733.773	16.1746
11.3005	725.195	16.1941
11.3033	746.169	16.2136
11.3038	742.755	16.2332
11.3062	725.996	16.2527
11.307	747.006	16.2722
11.30892	746.663	16.2917
11.3113	730.431	16.3113
11.31189	744.796	16.3308
11.3144	755.831	16.3503
11.3153	735.118	16.3699
11.317	742.456	16.3894
11.3194	756.765	16.4089
11.3196	741.613	16.4285
11.3222	741.523	16.448
11.3232	758.23	16.4675
11.3249	748.667	16.4871
11.3279	742.252	16.5066
11.3292	760.418	16.5261
11.33077	755.2326	16.5457
11.3321	741.801	16.5652
11.3348	758.475	16.5847
11.3354	764.921	16.6042
11.3367	744.389	16.6238
11.3388	756.678	16.6433
11.3403	767.793	16.6628
11.3418	753.5083	16.6824
11.3436	755.281	16.7019
11.3444	773.63	16.7214
11.3472	754.309	16.741
11.349	756.312	16.7605
11.3503	775.576	16.78
11.3506	765.659	16.7996
11.35195	752.664	16.8191
11.355	776.29	16.8386
11.3564	770.034	16.8582
11.358	755.071	16.8777
11.3605	773.186	16.8972
11.3608	777.643	16.9167
11.36235	756.122	16.9363
11.36572	774.089	16.9558
11.3662	782.812	16.9753
11.3683	762.159	16.9949
11.36883	770.671	17.0144
11.3714	786.673	17.0339
11.3719	769.825	17.0535
11.3735	767.849	17.073
11.3759	787.448	17.0925
11.3778	776.11	17.1121
11.37969	770.117	17.1316
11.3812	785.835	17.1511
11.3818	782.974	17.1707
11.38341	769.317	17.1902
11.3848	788.036	17.2097
11.3867	789.761	17.2292
11.3883	773.743	17.2488
11.39182	783.111	17.2683
11.3927	797.45	17.2878
11.3946	776.51	17.3074
11.3951	783.622	17.3269
11.3965	799.474	17.3464
11.3982	785.833	17.366
11.3998	780.094	17.3855
11.40172	802.585	17.405
11.404	788.114	17.4246
11.4035	782.412	17.4441
11.4065	803.706	17.4636
11.4083	798.375	17.4832
11.4104	780.03	17.5027
11.4121	801.626	17.5222
11.4131	801.685	17.5417
11.4161	786.926	17.5613
11.41645	798.834	17.5808
11.4183	808.527	17.6003
11.4193	788.181	17.6199
11.4213	799.44	17.6394
11.423	811.739	17.6589
11.4244	794.56	17.6785
11.4265	797.517	17.698
11.429	814.245	17.7175
11.4295	804.319	17.7371
11.4306	796.7594	17.7566
11.4316	814.016	17.7761
11.4342	809.698	17.7957
11.4365	798.6676	17.8152
11.4376	812.201	17.8347
11.4389	816.427	17.8542
11.4412	800.058	17.8738
11.4434	814.147	17.8933
11.4452	821.465	17.9128
11.4453	805.683	17.9324
11.4485	808.802	17.9519
11.4494	827.029	17.9714
11.45036	808.492	17.991
11.4526	810.187	18.0105
11.4543	826.679	18.03
11.4548	818.845	18.0496
11.457	807.6203	18.0691
11.4597	829.762	18.0886
11.4605	821.087	18.1082
11.4629	808.022	18.1277
11.4644	829.941	18.1472
11.4648	830.723	18.1667
11.4668	809.47	18.1863
11.4685	825.625	18.2058
11.4698	834.393	18.2253
11.4718	817.026	18.2449
11.4731	824.807	18.2644
11.4748	838.615	18.2839
11.476	821.601	18.3035
11.4779	823.607	18.323
11.4801	841.985	18.3425
11.4814	827.246	18.3621
11.4833	822.007	18.3816
11.4849	841.755	18.4011
11.4857	836.681	18.4207
11.4886	821.8739	18.4402
11.4899	840.833	18.4597
11.492	840.878	18.4792
11.493	826.439	18.4988
11.4952	836.691	18.5183
11.4957	848.394	18.5378
11.498	828.278	18.5574
11.4999	838.14	18.5769
11.5012	851.895	18.5964
11.5024	837.185	18.616
11.504	832.896	18.6355
11.5059	856.6322	18.655
11.5076	841.0979	18.6746
11.508	836.51	18.6941
11.5118	854	18.7136
11.5134	850.956	18.7332
11.51499	834.163	18.7527
11.516	855.354	18.7722
11.517	852.856	18.7917
11.5186	837.137	18.8113
11.5215	853.104	18.8308
11.5222	861.724	18.8503
11.5237	841.339	18.8699
11.525	849.604	18.8894
11.527	864.719	18.9089
11.52884	846.428	18.9285
11.5286	849.208	18.948
11.5319	864.39	18.9675
11.534	851.923	18.9871
11.536	848.613	19.0066
11.53729	865.271	19.0261
11.5382	858.4729	19.0457
11.5402	848.267	19.0652
11.5413	864.525	19.0847
11.5443	869.811	19.1042
11.54479	850.737	19.1238
11.5459	864.556	19.1433
11.5491	872.054	19.1628
11.5501	856.439	19.1824
11.5514	859.9126	19.2019
11.5537	877.479	19.2214
11.55437	858.8338	19.241
11.5564	861.116	19.2605
11.5577	879.467	19.28
11.5596	869.617	19.2996
11.5604	856.885	19.3191
11.5623	879.854	19.3386
11.5641	873.335	19.3582
11.56689	860.3877	19.3777
11.5687	879.373	19.3972
11.5688	879.916	19.4167
11.5712	860.95	19.4363
11.5727	877.622	19.4558
11.5755	883.99	19.4753
11.5762	865.0224	19.4949
11.5779	877.041	19.5144
11.5792	888.4812	19.5339
11.5801	872.092	19.5535
11.5823	872.682	19.573
11.5844	888.586	19.5925
11.5859	878.102	19.6121
11.5876	872.956	19.6316
11.589	891.0802	19.6511
11.5908	885.029	19.6707
11.59325	872.703	19.6902
11.5939	890.014	19.7097
11.5955	890.329	19.7292
11.59721	874.647	19.7488
11.5988	886.8089	19.7683
11.60128	899.187	19.7878
11.60237	879.772	19.8074
11.6029	886.49	19.8269
11.6058	899.439	19.8464
11.60699	885.682	19.866
11.6088	882.9256	19.8855
11.60917	903.608	19.905
11.61132	886.176	19.9246
11.6144	885.819	19.9441
11.6152	903.848	19.9636
11.6167	897.62	19.9832
11.6186	882.989	20.0027
11.6178	891.4386	20.0125

Data Header:			0.254_solid_dimension_typei_4545_r0			Time:	40.0168	s	4/14/2019 4:55:32 AM
Data Acquisition:	Timed
Station Name:	ft40.cfg
Test File Name:	monotonic_0.2540_typei_solid_4545_dimension.tst
Displacement	Force	Running Time
mm	N	s
11.62064	902.997	20.0222
11.622	902.149	20.0417
11.6223	887.814	20.0613
11.62462	901.179	20.0808
11.626	908.4978	20.1003
11.6284	889.066	20.1199
11.62951	898.782	20.1394
11.6307	910.03	20.1589
11.6325	892.431	20.1785
11.6333	897.994	20.198
11.6365	913.403	20.2175
11.6375	902.362	20.2371
11.6385	894.922	20.2566
11.6406	914.298	20.2761
11.6429	906.546	20.2957
11.6449	897.6507	20.3152
11.6456	912.006	20.3347
11.6481	913.476	20.3542
11.6497	897.26	20.3738
11.6499	911.551	20.3933
11.6527	918.596	20.4128
11.6542	901.971	20.4324
11.6554	906.519	20.4519
11.6579	924.117	20.4714
11.6596	905.812	20.491
11.6598	907.528	20.5105
11.6617	924.9986	20.53
11.6645	913.085	20.5496
11.6654	904.668	20.5691
11.6673	927.0343	20.5886
11.66935	916.938	20.6082
11.67	907.269	20.6277
11.6715	924.877	20.6472
11.6739	925.082	20.6667
11.6742	906.912	20.6863
11.67733	924.012	20.7058
11.6778	928.577	20.7253
11.6804	910.909	20.7449
11.6818	921.211	20.7644
11.6828	931.4303	20.7839
11.6858	915.944	20.8035
11.68679	918.658	20.823
11.6884	935.76	20.8425
11.6888	921.331	20.8621
11.6915	919.156	20.8816
11.6934	935.959	20.9011
11.69564	930.482	20.9207
11.696	917.402	20.9402
11.6973	935.449	20.9597
11.6992	934.356	20.9792
11.7008	921.271	20.9988
11.70211	931.482	21.0183
11.7052	939.379	21.0378
11.7069	920.811	21.0574
11.7081	932.608	21.0769
11.7092	944.099	21.0964
11.7108	928.787	21.116
11.7128	926.888	21.1355
11.7145	946.7287	21.155
11.7165	933.9729	21.1746
11.7178	928.521	21.1941
11.7188	945.986	21.2136
11.7205	940.182	21.2332
11.7224	927.087	21.2527
11.7237	948.438	21.2722
11.7251	943.207	21.2917
11.7272	929.954	21.3113
11.7294	944.376	21.3308
11.73068	952.119	21.3503
11.73175	931.627	21.3699
11.7338	942.44	21.3894
11.7353	953.2912	21.4089
11.7381	936.427	21.4285
11.7391	941.637	21.448
11.7408	954.703	21.4675
11.7414	941.847	21.4871
11.7435	938.633	21.5066
11.7449	956.832	21.5261
11.7469	949.342	21.5457
11.7481	939.881	21.5652
11.7503	953.988	21.5847
11.7517	956.982	21.6042
11.7539	938.948	21.6238
11.7546	953.886	21.6433
11.7569	958.661	21.6628
11.7577	945.409	21.6824
11.7597	949.705	21.7019
11.7619	965.1	21.7214
11.76305	945.563	21.741
11.7655	951.182	21.7605
11.767	967.173	21.78
11.7676	953.96	21.7996
11.7699	944.49	21.8191
11.7715	969.373	21.8386
11.774	957.909	21.8582
11.7732	948.665	21.8777
11.7756	964.696	21.8972
11.7779	966.1073	21.9167
11.7788	948.025	21.9363
11.7817	966.781	21.9558
11.7828	968.611	21.9753
11.784	951.041	21.9949
11.7853	962.471	22.0144
11.7886	973.376	22.0339
11.7894	955.792	22.0535
11.79	958.689	22.073
11.7919	975.436	22.0925
11.7938	961.838	22.1121
11.796	960.392	22.1316
11.79638	975.046	22.1511
11.7981	968.536	22.1707
11.8004	958.4693	22.1902
11.8021	977.317	22.2097
11.80501	972.557	22.2292
11.8057	959.949	22.2488
11.8077	971.156	22.2683
11.8088	981.035	22.2878
11.8097	961.614	22.3074
11.8131	971.317	22.3269
11.8141	981.794	22.3464
11.8157	968.132	22.366
11.8164	968.166	22.3855
11.8185	985.209	22.405
11.8207	968.511	22.4246
11.822	967.569	22.4441
11.8227	985.823	22.4636
11.825	979.8548	22.4832
11.8265	963.239	22.5027
11.8291	985.778	22.5222
11.8299	982.591	22.5417
11.8301	968.127	22.5613
11.8322	981.966	22.5808
11.8346	988.42	22.6003
11.8367	968.087	22.6199
11.83756	981.263	22.6394
11.8389	991.082	22.6589
11.84083	972.932	22.6785
11.8432	978.661	22.698
11.8437	994.284	22.7175
11.8457	978.848	22.7371
11.8465	975.147	22.7566
11.8495	993.632	22.7761
11.8501	985.14	22.7957
11.8525	977.697	22.8152
11.8538	990.935	22.8347
11.8565	990.883	22.8542
11.8571	976.2334	22.8738
11.8582	991.706	22.8933
11.8603	997.816	22.9128
11.8614	981.386	22.9324
11.86357	985.66	22.9519
11.8664	1001.34	22.9714
11.8666	982.047	22.991
11.8695	986.785	23.0105
11.8702	1001.627	23.03
11.8721	990.474	23.0496
11.8743	982.911	23.0691
11.8749	1004.53	23.0886
11.8763	993.411	23.1082
11.8783	985.766	23.1277
11.8797	1003.02	23.1472
11.8816	1000.7	23.1667
11.8841	982.165	23.1863
11.8846	998.462	23.2058
11.8866	1003.16	23.2253
11.88764	987.868	23.2449
11.8899	998.309	23.2644
11.891	1005.98	23.2839
11.8929	990.223	23.3035
11.8949	996.94	23.323
11.8951	1011.7	23.3425
11.8981	994.476	23.3621
11.9005	992.92	23.3816
11.901	1009.02	23.4011
11.9035	1003.04	23.4207
11.9052	990.975	23.4402
11.9052	1008.82	23.4597
11.9072	1005.38	23.4792
11.9096	995.522	23.4988
11.9103	1005.63	23.5183
11.9126	1012.95	23.5378
11.9137	992.965	23.5574
11.9161	1004.89	23.5769
11.9179	1016.63	23.5964
11.9188	1001.28	23.616
11.9199	999.061	23.6355
11.9231	1019.86	23.655
11.9237	1003.51	23.6746
11.9254	1001.97	23.6941
11.9276	1017.77	23.7136
11.9291	1011.14	23.7332
11.9301	998.292	23.7527
11.9325	1019.69	23.7722
11.9341	1013.23	23.7917
11.9353	1001.23	23.8113
11.9363	1017.02	23.8308
11.9386	1021.16	23.8503
11.9399	1001.56	23.8699
11.9423	1013.25	23.8894
11.9434	1022.62	23.9089
11.9443	1005.69	23.9285
11.9471	1011.03	23.948
11.9491	1023.21	23.9675
11.9504	1010.84	23.9871
11.9513	1007.52	24.0066
11.9535	1025.17	24.0261
11.95585	1015.48	24.0457
11.9574	1007.88	24.0652
11.95937	1023.54	24.0847
11.9594	1023.52	24.1042
11.9616	1007.05	24.1238
11.9624	1021.34	24.1433
11.9647	1026.39	24.1628
11.9664	1012.07	24.1824
11.969	1018.12	24.2019
11.9686	1031.71	24.2214
11.9715	1012.32	24.241
11.97353	1016.69	24.2605
11.9745	1033.56	24.28
11.97605	1021.06	24.2996
11.9794	1012.93	24.3191
11.9802	1032.17	24.3386
11.9807	1023.02	24.3582
11.9818	1014.54	24.3777
11.985	1029.86	24.3972
11.986	1029.36	24.4167
11.98741	1012.75	24.4363
11.9884	1031.14	24.4558
11.9908	1031.91	24.4753
11.9934	1014.68	24.4949
11.9939	1027.816	24.5144
11.9955	1036.724	24.5339
11.997	1018.99	24.5535
11.9997	1021.38	24.573
11.9993	1038.29	24.5925
12.0025	1023.56	24.6121
12.0052	1023.8	24.6316
12.0052	1037.55	24.6511
12.0074	1031.32	24.6707
12.0087	1020.52	24.6902
12.0108	1037.74	24.7097
12.01091	1034.2	24.7292
12.0136	1022.05	24.7488
12.0163	1033.89	24.7683
12.0162	1042.69	24.7878
12.0184	1023.28	24.8074
12.0197	1031.85	24.8269
12.022	1042.27	24.8464
12.0239	1029.25	24.866
12.0254	1029.4	24.8855
12.0263	1045.43	24.905
12.028	1028.58	24.9246
12.0298	1028.78	24.9441
12.0312	1045.96	24.9636
12.0328	1036.48	24.9832
12.0345	1024.13	25.0027
12.037	1043.55	25.0222
12.0385	1039.94	25.0417
12.0395	1026.54	25.0613
12.0411	1041.92	25.0808
12.0428	1044	25.1003
12.045	1028.897	25.1199
12.0464	1040.05	25.1394
12.0478	1048.46	25.1589
12.0498	1028.02	25.1785
12.0516	1035.745	25.198
12.053	1050.07	25.2175
12.0544	1037.73	25.2371
12.0563	1032.2	25.2566
12.0585	1051.17	25.2761
12.0598	1041.76	25.2957
12.06	1034.64	25.3152
12.0621	1048.02	25.3347
12.065	1047.32	25.3542
12.066	1031.56	25.3738
12.0669	1048.91	25.3933
12.0694	1050.629	25.4128
12.0707	1034.89	25.4324
12.0713	1042.11	25.4519
12.0742	1055.54	25.4714
12.0751	1036.475	25.491
12.0774	1041.82	25.5105
12.0789	1055.11	25.53
12.08022	1044.252	25.5496
12.0824	1038.28	25.5691
12.0845	1058.59	25.5886
12.0852	1045.26	25.6082
12.0869	1037.67	25.6277
12.0873	1056.44	25.6472
12.0892	1052.8	25.6667
12.092	1036.51	25.6863
12.093	1052.68	25.7058
12.0944	1055.545	25.7253
12.0967	1038.89	25.7449
12.0989	1051.38	25.7644
12.1001	1056.97	25.7839
12.1021	1042.23	25.8035
12.1042	1046.42	25.823
12.1046	1060.52	25.8425
12.1064	1044.24	25.8621
12.1086	1045	25.8816
12.1094	1059.9	25.9011
12.1118	1052.58	25.9207
12.1137	1040.5	25.9402
12.1146	1059.49	25.9597
12.1162	1057.25	25.9792
12.1175	1045.14	25.9988
12.1183	1055.15	26.0183
12.1208	1060.51	26.0378
12.1225	1042.89	26.0574
12.125	1054.46	26.0769
12.1262	1064.03	26.0964
12.1276	1050	26.116
12.1295	1048.04	26.1355
12.1314	1067.46	26.155
12.1328	1049.825	26.1746
12.1345	1048.14	26.1941
12.1359	1065.59	26.2136
12.1371	1056.2	26.2332
12.1389	1045.76	26.2527
12.1402	1065.66	26.2722
12.1427	1058.34	26.2917
12.1437	1046.34	26.3113
12.1453	1062.38	26.3308
12.148	1065.29	26.3503
12.1477	1047.4	26.3699
12.15001	1057.31	26.3894
12.1518	1067.83	26.4089
12.1529	1051.56	26.4285
12.1548	1056.33	26.448
12.158	1066.42	26.4675
12.1579	1052.65	26.4871
12.16	1051.891	26.5066
12.1615	1070.33	26.5261
12.1634	1059	26.5457
12.165	1051.632	26.5652
12.1661	1066.79	26.5847
12.1691	1066.37	26.6042
12.1701	1050	26.6238
12.1711	1065.35	26.6433
12.173	1067.99	26.6628
12.175	1055.21	26.6824
12.176	1060.29	26.7019
12.1772	1072.89	26.7214
12.1795	1054.2	26.741
12.1818	1059.52	26.7605
12.1834	1073.028	26.78
12.1854	1058.99	26.7996
12.18651	1054	26.8191
12.1877	1073.26	26.8386
12.1895	1062.94	26.8582
12.1915	1054.436	26.8777
12.1918	1071.16	26.8972
12.1934	1068.56	26.9167
12.1951	1052.791	26.9363
12.1967	1069.77	26.9558
12.1982	1069.55	26.9753
12.2016	1052.33	26.9949
12.2029	1068.42	27.0144
12.2041	1075.03	27.0339
12.20474	1057.291	27.0535
12.2063	1061.01	27.073
12.209	1075.356	27.0925
12.2108	1061.7	27.1121
12.2118	1061.1	27.1316
12.21367	1073.01	27.1511
12.21474	1066.74	27.1707
12.218	1056.87	27.1902
12.22	1076.25	27.2097
12.2197	1070.03	27.2292
12.2213	1058.21	27.2488
12.2224	1068.5	27.2683
12.2245	1077.91	27.2878
12.2272	1057.27	27.3074
12.2283	1068.17	27.3269
12.2308	1076.8	27.3464
12.2315	1063.79	27.366
12.2342	1064.59	27.3855
12.2346	1080.9	27.405
12.2368	1060.65	27.4246
12.2384	1061.1	27.4441
12.2389	1078.8	27.4636
12.2411	1070.03	27.4832
12.244	1057.81	27.5027
12.2443	1077.84	27.5222
12.2463	1073.37	27.5417
12.2476	1059.93	27.5613
12.2494	1075.105	27.5808
12.2507	1075.56	27.6003
12.2523	1060.2	27.6199
12.2541	1072.41	27.6394
12.2561	1078.81	27.6589
12.2586	1060.85	27.6785
12.2596	1069.01	27.698
12.2599	1081.03	27.7175
12.2628	1068.64	27.7371
12.2647	1063.05	27.7566
12.26622	1079.72	27.7761
12.2673	1070.72	27.7957
12.2693	1064.85	27.8152
12.2713	1078.22	27.8347
12.2729	1077.48	27.8542
12.2732	1060.16	27.8738
12.2763	1078.56	27.8933
12.2779	1079.31	27.9128
12.2785	1065.69	27.9324
12.28	1070.88	27.9519
12.2823	1084.97	27.9714
12.2838	1065.68	27.991
12.284	1070.11	28.0105
12.2867	1084.1	28.03
12.2893	1070.19	28.0496
12.2906	1065.5	28.0691
12.2929	1083.73	28.0886
12.2933	1072.74	28.1082
12.2944	1063.39	28.1277
12.2968	1083.75	28.1472
12.2985	1078.498	28.1667
12.3002	1060.77	28.1863
12.3018	1079.59	28.2058
12.304	1080.99	28.2253
12.3038	1065.94	28.2449
12.3056	1076.48	28.2644
12.3082	1082.92	28.2839
12.3088	1068.02	28.3035
12.3115	1073.77	28.323
12.3121	1085.27	28.3425
12.3148	1070.82	28.3621
12.3157	1071.11	28.3816
12.3169	1084.243	28.4011
12.3203	1078.69	28.4207
12.3204	1065.65	28.4402
12.3231	1083.26	28.4597
12.3242	1078.72	28.4792
12.326	1069.73	28.4988
12.3276	1077.99	28.5183
12.3293	1082.89	28.5378
12.3302	1065.657	28.5574
12.3329	1078.44	28.5769
12.3335	1086.825	28.5964
12.3353	1068.41	28.616
12.3368	1071	28.6355
12.3384	1089.1	28.655
12.3403	1072.5	28.6746
12.342	1071.32	28.6941
12.3433	1087.37	28.7136
12.3458	1077.54	28.7332
12.3464	1066.88	28.7527
12.34819	1086.12	28.7722
12.35102	1080.69	28.7917
12.3521	1068.95	28.8113
12.3537	1083.73	28.8308
12.3552	1085.72	28.8503
12.3564	1066.98	28.8699
12.358	1078.29	28.8894
12.3604	1086.93	28.9089
12.3626	1072.24	28.9285
12.3633	1076.47	28.948
12.3643	1087.46	28.9675
12.3672	1075.12	28.9871
12.3679	1072.23	29.0066
12.3699	1089.953	29.0261
12.3713	1078.21	29.0457
12.3724	1072.21	29.0652
12.3762	1084.96	29.0847
12.3764	1084.32	29.1042
12.3781	1068.12	29.1238
12.37945	1082.43	29.1433
12.3811	1085.88	29.1628
12.383	1074.27	29.1824
12.3833	1075.7	29.2019
12.3871	1090.26	29.2214
12.3881	1069.25	29.241
12.3899	1077.37	29.2605
12.3908	1091.29	29.28
12.3927	1077.91	29.2996
12.3936	1071.02	29.3191
12.3958	1092.16	29.3386
12.3985	1078.46	29.3582
12.3984	1070.543	29.3777
12.4019	1087.77	29.3972
12.4023	1084.53	29.4167
12.4042	1069.41	29.4363
12.4051	1085.11	29.4558
12.4074	1086.95	29.4753
12.4091	1068.76	29.4949
12.41	1081.74	29.5144
12.4117	1089.04	29.5339
12.4137	1074.72	29.5535
12.4155	1077.08	29.573
12.4179	1092.21	29.5925
12.4194	1077.5	29.6121
12.4205	1076.8	29.6316
12.4216	1088	29.6511
12.4237	1082.16	29.6707
12.4256	1071.51	29.6902
12.4264	1090.86	29.7097
12.428	1085.79	29.7292
12.42953	1073.7	29.7488
12.4311	1083.46	29.7683
12.4329	1090.431	29.7878
12.4356	1072.38	29.8074
12.4362	1082.33	29.8269
12.4379	1091.35	29.8464
12.4398	1076.58	29.866
12.4412	1077.894	29.8855
12.443	1091.81	29.905
12.4442	1077.4	29.9246
12.44588	1076.64	29.9441
12.4476	1092.2	29.9636
12.4493	1081.91	29.9832
12.4506	1071.181	30.0027
12.4529	1090.53	30.0222
12.45423	1085.64	30.0417
12.4549	1071.194	30.0613
12.4576	1087.37	30.0808
12.4598	1088.615	30.1003
12.46023	1071.92	30.1199
12.4623	1082.248	30.1394
12.4642	1089.49	30.1589
12.4657	1073.96	30.1785
12.468	1080.39	30.198
12.4691	1091.9	30.2175
12.47088	1080.77	30.2371
12.4722	1075.61	30.2566
12.4729	1092.89	30.2761
12.4756	1081.59	30.2957
12.4769	1075.86	30.3152
12.4787	1086.43	30.3347
12.4812	1086.68	30.3542
12.4814	1073.46	30.3738
12.4837	1087.77	30.3933
12.4853	1091.35	30.4128
12.4878	1074.62	30.4324
12.4869	1080.05	30.4519
12.4907	1094.59	30.4714
12.4917	1074.88	30.491
12.4939	1079.54	30.5105
12.4946	1093.824	30.53
12.4961	1080.14	30.5496
12.4978	1076.07	30.5691
12.5001	1093.57	30.5886
12.5018	1082.95	30.6082
12.5024	1073.59	30.6277
12.5047	1092.326	30.6472
12.5063	1088.71	30.6667
12.5083	1071.049	30.6863
12.5096	1087.77	30.7058
12.5114	1089.83	30.7253
12.5143	1073.36	30.7449
12.5149	1085.58	30.7644
12.5171	1091.1	30.7839
12.518	1076.49	30.8035
12.5204	1080.28	30.823
12.5211	1094.73	30.8425
12.523	1077.54	30.8621
12.5249	1078.77	30.8816
12.5256	1092.425	30.9011
12.5287	1085.07	30.9207
12.529	1073.49	30.9402
12.5304	1090.66	30.9597
12.5325	1088.49	30.9792
12.5335	1075.9	30.9988
12.5362	1084.71	31.0183
12.5368	1091.188	31.0378
12.5392	1073.05	31.0574
12.5405	1086.47	31.0769
12.5412	1092.91	31.0964
12.5443	1078.93	31.116
12.5455	1077.85	31.1355
12.54869	1096.308	31.155
12.5487	1079.32	31.1746
12.5504	1076.72	31.1941
12.5526	1094.39	31.2136
12.5535	1086.34	31.2332
12.5552	1076.67	31.2527
12.5568	1092.198	31.2722
12.5594	1086.22	31.2917
12.5599	1074.37	31.3113
12.5611	1091.81	31.3308
12.564	1091.537	31.3503
12.565	1074.48	31.3699
12.5663	1086.1	31.3894
12.5682	1095.28	31.4089
12.5696	1076.52	31.4285
12.5705	1082.67	31.448
12.5742	1093.74	31.4675
12.5752	1083.29	31.4871
12.5767	1078.64	31.5066
12.5786	1094.76	31.5261
12.58021	1084.41	31.5457
12.5813	1077.52	31.5652
12.5822	1091.72	31.5847
12.5843	1091.03	31.6042
12.58583	1073.79	31.6238
12.5877	1089.47	31.6433
12.591	1093.72	31.6628
12.5913	1078.23	31.6824
12.5932	1083.82	31.7019
12.59376	1095.72	31.7214
12.5965	1076.96	31.741
12.5976	1083.1	31.7605
12.5992	1097.39	31.78
12.6007	1081.63	31.7996
12.6031	1077.04	31.8191
12.605	1094.99	31.8386
12.6064	1085.39	31.8582
12.6074	1075.64	31.8777
12.6091	1093.91	31.8972
12.6104	1088.25	31.9167
12.6119	1075.39	31.9363
12.613	1088.53	31.9558
12.6155	1090.68	31.9753
12.6172	1074.3	31.9949
[...]
13.4108	1074.66	41.5066
13.4106	1087.67	41.5261
13.4119	1080.41	41.5457
13.4149	1074.22	41.5652
13.4162	1087.25	41.5847
13.4179	1084.25	41.6042
13.4195	1070.98	41.6238
13.422	1084.08	41.6433
13.4219	1089.1	41.6628
13.4236	1071.21	41.6824
13.4258	1081.23	41.7019
13.4267	1089.43	41.7214
13.4281	1075.07	41.741
13.43	1078.3	41.7605
13.4328	1091.57	41.78
13.4336	1075.55	41.7996
13.4354	1076.93	41.8191
13.4366	1090.67	41.8386
13.4377	1080.75	41.8582
13.4402	1071.47	41.8777
13.4428	1089.09	41.8972
13.443	1081.9	41.9167
13.4441	1071.55	41.9363
13.4474	1083.53	41.9558
13.4484	1088.26	41.9753
13.4496	1073.04	41.9949
13.452	1082.93	42.0144
13.4524	1085.24	42.0339
13.4552	1075.18	42.0535
13.4571	1077.16	42.073
13.4591	1091.01	42.0925
13.4608	1076.98	42.1121
13.4611	1073.8	42.1316
13.4633	1088.1	42.1511
13.4651	1082.7	42.1707
13.4664	1073.01	42.1902
13.468	1086.833	42.2097
13.4695	1086.54	42.2292
13.4713	1071.86	42.2488
13.4734	1085.1	42.2683
13.4748	1086.94	42.2878
13.4765	1071.37	42.3074
13.478	1079.81	42.3269
13.4793	1091.51	42.3464
13.4811	1073.05	42.366
13.4823	1076.85	42.3855
13.485	1089.057	42.405
13.48601	1078.07	42.4246
13.4881	1074.1	42.4441
13.4897	1090.91	42.4636
13.49	1077.78	42.4832
13.494	1075.85	42.5027
13.4942	1088.3	42.5222
13.4955	1083.47	42.5417
13.4972	1070.78	42.5613
13.4987	1087.08	42.5808
13.5011	1083.95	42.6003
13.502	1071.97	42.6199
13.504	1078.46	42.6394
13.5061	1088.4	42.6589
13.5067	1075.53	42.6785
13.51	1079.37	42.698
13.5104	1087.13	42.7175
13.5117	1077.15	42.7371
13.5141	1075.04	42.7566
13.51462	1088.61	42.7761
13.5173	1079.48	42.7957
13.5187	1070.981	42.8152
13.52008	1086.62	42.8347
13.5213	1083.248	42.8542
13.5236	1069.67	42.8738
13.5244	1082.68	42.8933
13.5269	1086.67	42.9128
13.5276	1070.68	42.9324
13.5304	1081.07	42.9519
13.5313	1087.33	42.9714
13.53308	1072.53	42.991
13.5343	1076.95	43.0105
13.5366	1092.61	43.03
13.5384	1073.98	43.0496
13.5402	1072.981	43.0691
13.5408	1088.11	43.0886
13.5431	1080.36	43.1082
13.545	1071.99	43.1277
13.546	1086.68	43.1472
13.5489	1080.63	43.1667
13.5485	1072.049	43.1863
13.5516	1083.33	43.2058
13.552	1086.37	43.2253
13.5547	1071.97	43.2449
13.5556	1081.44	43.2644
13.5579	1086.637	43.2839
13.5582	1073.58	43.3035
13.5612	1074.85	43.323
13.5623	1087.74	43.3425
13.5643	1077.33	43.3621
13.5654	1074.39	43.3816
13.5665	1087.09	43.4011
13.5691	1079.04	43.4207
13.5705	1071.282	43.4402
13.57265	1085.66	43.4597
13.5736	1085.01	43.4792
13.575	1068.24	43.4988
13.5769	1083.01	43.5183
13.578	1085.68	43.5378
13.5806	1071.87	43.5574
13.5809	1078.98	43.5769
13.584	1089.63	43.5964
13.5848	1071.77	43.616
13.5859	1078.47	43.6355
13.5887	1088.23	43.655
13.5903	1075.92	43.6746
13.59234	1074.68	43.6941
13.5936	1089.66	43.7136
13.5953	1075.49	43.7332
13.5967	1071.61	43.7527
13.5982	1084.38	43.7722
13.6006	1084.504	43.7917
13.6004	1072.03	43.8113
13.6031	1085.3	43.8308
13.6048	1083.78	43.8503
13.6056	1072.983	43.8699
13.6084	1080.17	43.8894
13.609	1087.16	43.9089
13.6113	1073.178	43.9285
13.6131	1077.27	43.948
13.614	1086.98	43.9675
13.6161	1074.59	43.9871
13.6178	1073.48	44.0066
13.6199	1086.783	44.0261
13.6209	1079.83	44.0457
13.6218	1071.01	44.0652
13.6239	1085.96	44.0847
13.6259	1081.12	44.1042
13.628	1071.32	44.1238
13.6292	1084.47	44.1433
13.631	1086.92	44.1628
13.6324	1068.83	44.1824
13.6341	1082.21	44.2019
13.6361	1088.34	44.2214
13.6367	1074.67	44.241
13.6377	1076.62	44.2605
13.6407	1089.26	44.28
13.6418	1072.72	44.2996
13.6443	1075.2	44.3191
13.6453	1086.83	44.3386
13.64784	1079.24	44.3582
13.6494	1072.28	44.3777
13.6502	1088.76	44.3972
13.6525	1080.8	44.4167
13.6535	1071.15	44.4363
13.6554	1082.71	44.4558
13.6569	1085.58	44.4753
13.6582	1072.83	44.4949
13.6599	1080.33	44.5144
13.6621	1085.18	44.5339
13.6637	1074.22	44.5535
13.6649	1075.9	44.573
13.6659	1089.28	44.5925
13.6679	1075.85	44.6121
13.6702	1073.09	44.6316
13.6714	1087.86	44.6511
13.6727	1078.08	44.6707
13.67469	1070.74	44.6902
13.67638	1083.27	44.7097
13.6775	1085.44	44.7292
13.68008	1069.66	44.7488
13.6812	1082.97	44.7683
13.6822	1084.1	44.7878
13.6844	1071.63	44.8074
13.6855	1080.481	44.8269
13.6874	1088.9	44.8464
13.6883	1068.7	44.866
13.6908	1078.71	44.8855
13.69282	1087.11	44.905
13.6946	1077.51	44.9246
13.6962	1072.99	44.9441
13.69681	1088.18	44.9636
13.7004	1076.41	44.9832
13.7013	1073.29	45.0027
13.70235	1084.52	45.0222
13.7045	1081.189	45.0417
13.7056	1072.2	45.0613
13.7073	1083.47	45.0808
13.7096	1084.03	45.1003
13.7107	1070.23	45.1199
13.7125	1079.07	45.1394
13.7135	1087.3	45.1589
13.7158	1073.29	45.1785
13.7175	1074.27	45.198
13.7183	1088.14	45.2175
13.7208	1074.38	45.2371
13.7219	1073.55	45.2566
13.7239	1086.02	45.2761
13.7251	1078.02	45.2957
13.7278	1068.775	45.3152
13.7273	1088.04	45.3347
13.7296	1082.39	45.3542
13.7311	1069.92	45.3738
13.7341	1083.072	45.3933
13.7348	1085.48	45.4128
13.7361	1069.49	45.4324
13.7372	1080.98	45.4519
13.739	1084.99	45.4714
13.7408	1072.44	45.491
13.74297	1077.34	45.5105
13.7443	1089.95	45.53
13.7472	1073.24	45.5496
13.748	1074.671	45.5691
13.7495	1086.44	45.5886
13.7509	1079.52	45.6082
13.7533	1070.75	45.6277
13.7545	1085.61	45.6472
13.7566	1080.18	45.6667
13.7573	1071.624	45.6863
13.76016	1081.13	45.7058
13.7617	1081.55	45.7253
13.7626	1070.77	45.7449
13.7642	1079.03	45.7644
13.7661	1086.58	45.7839
13.7668	1071.56	45.8035
13.7687	1074.61	45.823
13.7693	1087.95	45.8425
13.7718	1077.66	45.8621
13.7739	1070.74	45.8816
13.77595	1086.72	45.9011
13.778	1078.17	45.9207
13.778	1072.262	45.9402
13.7794	1086.71	45.9597
13.7823	1082.97	45.9792
13.7832	1067.34	45.9988
13.7865	1083.63	46.0183
13.7869	1084.51	46.0378
13.7879	1070.27	46.0574
13.7901	1078.52	46.0769
13.792	1089.12	46.0964
13.79379	1070.19	46.116
13.7953	1078.56	46.1355
13.7963	1086.19	46.155
13.7979	1075.66	46.1746
13.8005	1074.11	46.1941
13.8008	1090.02	46.2136
13.8036	1074.454	46.2332
13.8055	1071.28	46.2527
13.8068	1086.95	46.2722
13.8078	1081.798	46.2917
13.8092	1071.09	46.3113
13.8122	1081.97	46.3308
13.81293	1084.39	46.3503
13.81449	1070.75	46.3699
13.8159	1078.3	46.3894
13.8172	1085.9	46.4089
13.819	1073.98	46.4285
13.8219	1076.46	46.448
13.8222	1089.32	46.4675
13.8242	1073.702	46.4871
13.8268	1074.25	46.5066
13.8266	1087.52	46.5261
13.82892	1080.82	46.5457
13.8303	1067.35	46.5652
13.8325	1086.52	46.5847
13.8337	1081.32	46.6042
13.83616	1071.94	46.6238
13.837	1083.52	46.6433
13.8394	1085.692	46.6628
13.8426	1066.78	46.6824
13.8433	1081.68	46.7019
13.8439	1086.118	46.7214
13.84529	1071.86	46.741
13.8471	1077	46.7605
13.84917	1089.18	46.78
13.8513	1071.22	46.7996
13.8519	1073.14	46.8191
13.8537	1087.13	46.8386
13.8556	1078.2	46.8582
13.8567	1073.4	46.8777
13.8588	1086.18	46.8972
13.8601	1080.16	46.9167
13.8619	1070.88	46.9363
13.86372	1083.98	46.9558
13.8651	1084.55	46.9753
13.8665	1071.15	46.9949
13.8687	1076.7	47.0144
13.8694	1085.52	47.0339
13.8721	1071.26	47.0535
13.87254	1076.31	47.073
13.8753	1086.46	47.0925
13.8765	1075.02	47.1121
13.8793	1071.17	47.1316
13.8795	1090.03	47.1511
13.8815	1075.32	47.1707
13.8833	1069.44	47.1902
13.8836	1085.517	47.2097
13.8858	1082.541	47.2292
13.8873	1066.63	47.2488
13.8898	1083.78	47.2683
13.8907	1082.13	47.2878
13.8931	1071.8	47.3074
13.8943	1078.34	47.3269
13.8961	1087.14	47.3464
13.8979	1069.36	47.366
13.89935	1077.64	47.3855
13.9014	1088.53	47.405
13.9028	1073.64	47.4246
13.9041	1072.75	47.4441
13.9062	1087.54	47.4636
13.907	1077.03	47.4832
13.91	1071.1	47.5027
13.9111	1082.7	47.5222
13.9122	1079.696	47.5417
13.9146	1072.57	47.5613
13.91595	1081.715	47.5808
13.9176	1083.16	47.6003
13.9191	1069.58	47.6199
13.9212	1078.46	47.6394
13.92275	1087.06	47.6589
13.92329	1072.65	47.6785
13.9255	1071.4	47.698
13.9261	1088.026	47.7175
13.9287	1073.12	47.7371
13.9296	1071.8	47.7566
13.9318	1086.11	47.7761
13.9332	1078.36	47.7957
13.9357	1067.62	47.8152
13.9368	1088.17	47.8347
13.938	1079.22	47.8542
13.9391	1068.307	47.8738
13.9408	1082.42	47.8933
13.9436	1084.84	47.9128
13.94502	1066.38	47.9324
13.9459	1080.23	47.9519
13.9481	1084.59	47.9714
13.95	1071.43	47.991
13.9518	1076	48.0105
13.9531	1086.916	48.03
13.9549	1071.13	48.0496
13.9564	1074.067	48.0691
13.9577	1086.8	48.0886
13.9595	1075.589	48.1082
13.9606	1070.74	48.1277
13.9631	1084.45	48.1472
13.9636	1082.04	48.1667
13.9656	1069.66	48.1863
13.9671	1080.93	48.2058
13.969	1082.62	48.2253
13.9701	1072.15	48.2449
13.9722	1078.92	48.2644
13.974	1085.93	48.2839
13.9757	1068.95	48.3035
13.9777	1074.72	48.323
13.9786	1087.69	48.3425
13.9806	1074.48	48.3621
13.9822	1067.91	48.3816
13.9843	1088.52	48.4011
13.9854	1075.12	48.4207
13.9869	1070.48	48.4402
13.9889	1083.9	48.4597
13.9906	1080.6	48.4792
13.9926	1066.42	48.4988
13.9939	1083.91	48.5183
13.9953	1080.65	48.5378
13.9974	1067.613	48.5574
13.9991	1080.03	48.5769
14.0003	1087.14	48.5964
14.0027	1069.6	48.616
14.0031	1075.26	48.6355
14.0051	1086.63	48.655
14.0067	1072.93	48.6746
14.0087	1072.34	48.6941
14.0101	1084.08	48.7136
14.0112	1075.57	48.7332
14.0135	1069.91	48.7527
14.0151	1085.687	48.7722
14.0168	1078.93	48.7917
14.0187	1069.58	48.8113
14.0197	1080.42	48.8308
14.0213	1085.67	48.8503
14.0231	1068.15	48.8699
14.0229	1077.65	48.8894
14.0271	1086.73	48.9089
14.0282	1073.21	48.9285
14.029	1072.63	48.948
14.0308	1088.06	48.9675
14.0332	1071.7	48.9871
14.0348	1071.39	49.0066
14.0349	1086.62	49.0261
14.0379	1077.95	49.0457
14.04	1066.62	49.0652
14.0408	1086.51	49.0847
14.0418	1079.5	49.1042
14.0438	1067.76	49.1238
14.0466	1082.65	49.1433
14.0473	1082.19	49.1628
14.0494	1067.92	49.1824
14.0501	1080.54	49.2019
14.0517	1085.65	49.2214
14.0553	1068.71	49.241
14.055	1074.4	49.2605
14.0572	1087.12	49.28
14.0593	1073.6	49.2996
14.0593	1070.87	49.3191
14.062	1086.99	49.3386
14.0632	1075.48	49.3582
14.0649	1071.67	49.3777
14.06699	1082.54	49.3972
14.0687	1079.9	49.4167
14.0704	1067.89	49.4363
14.0718	1082.501	49.4558
14.0735	1082.94	49.4753
14.0754	1068.5	49.4949
14.0772	1077.19	49.5144
14.0782	1087.7	49.5339
14.0806	1069.527	49.5535
14.0803	1074.58	49.573
14.0835	1087.07	49.5925
14.0851	1074.89	49.6121
14.0863	1068.84	49.6316
14.0882	1087.229	49.6511
14.0898	1075.123	49.6707
14.0919	1069.26	49.6902
14.0934	1085.88	49.7097
14.0943	1079.81	49.7292
14.0966	1064.39	49.7488
14.0967	1082.95	49.7683
14.0996	1083.4	49.7878
14.1005	1067.6	49.8074
14.103	1078.53	49.8269
14.1054	1085.06	49.8464
14.106	1069.696	49.866
14.1074	1075.07	49.8855
14.1091	1086.014	49.905
14.1115	1070.37	49.9246
14.1135	1071.14	49.9441
14.1149	1085.36	49.9636
14.1159	1077.161	49.9832
14.1166	1065.67	50.0027
14.1197	1084.09	50.0222
14.1195	1079.24	50.0417
14.1222	1071.33	50.0613
14.124	1078.04	50.0808
14.1265	1084.66	50.1003
14.1263	1067.1	50.1199
14.1288	1078.47	50.1394
14.1311	1086.62	50.1589
14.1323	1070.25	50.1785
14.1338	1070.666	50.198
14.136	1088.17	50.2175
14.137	1071.13	50.2371
14.138	1069.79	50.2566
14.14	1086.517	50.2761
14.1421	1077.38	50.2957
14.1437	1067.92	50.3152
14.1459	1084.68	50.3347
14.1464	1079.32	50.3542
14.148	1066.827	50.3738
14.1501	1082.675	50.3933
14.151	1082.17	50.4128
14.1526	1065.69	50.4324
14.1544	1077.22	50.4519
14.1566	1084.5	50.4714
14.1587	1068.76	50.491
14.1598	1075.8	50.5105
14.1609	1082.92	50.53
14.1628	1073.27	50.5496
14.16439	1070.4	50.5691
14.1659	1084.8	50.5886
14.1676	1073.23	50.6082
14.1692	1070.179	50.6277
14.1708	1081.61	50.6472
14.1721	1081.65	50.6667
14.1746	1066.19	50.6863
14.17539	1081.66	50.7058
14.17774	1082.5	50.7253
14.1789	1070.04	50.7449
14.1815	1073.87	50.7644
14.1817	1084.58	50.7839
14.18328	1069.02	50.8035
14.1864	1074.24	50.823
14.1866	1085.13	50.8425
14.1887	1071.53	50.8621
14.1911	1068.96	50.8816
14.1918	1085.94	50.9011
14.1937	1073.81	50.9207
14.1957	1066.7	50.9402
14.19663	1083.859	50.9597
14.1988	1080.54	50.9792
14.19883	1066.3	50.9988
14.2013	1080.33	51.0183
14.2042	1080.62	51.0378
14.2042	1066.41	51.0574
14.2067	1079.74	51.0769
14.2095	1083.23	51.0964
14.2099	1066.6	51.116
14.2122	1072.04	51.1355
14.213	1085.43	51.155
14.21491	1071.9	51.1746
14.216	1071.46	51.1941
14.2185	1081.99	51.2136
14.2206	1076.88	51.2332
14.2216	1068.25	51.2527
14.2234	1081.34	51.2722
14.2249	1078.17	51.2917
14.2256	1068.46	51.3113
14.2267	1077.55	51.3308
14.2299	1082.72	51.3503
14.2309	1065.47	51.3699
14.2324	1075.83	51.3894
14.2348	1084.77	51.4089
14.2366	1070.34	51.4285
14.238	1070.08	51.448
14.2398	1085.49	51.4675
14.2408	1071.34	51.4871
14.2425	1070.31	51.5066
14.24366	1085.74	51.5261
14.2459	1073.79	51.5457
14.2474	1065.24	51.5652
14.249	1083.62	51.5847
14.2514	1077.88	51.6042
14.252	1065.14	51.6238
14.2543	1082.12	51.6433
14.2553	1079.14	51.6628
14.2575	1067.2	51.6824
14.2596	1075.28	51.7019
14.2601	1083.56	51.7214
14.2627	1067.9	51.741
14.2628	1076.38	51.7605
14.2659	1082.36	51.78
14.266	1071.55	51.7996
14.2683	1068.09	51.8191
14.2707	1084.74	51.8386
14.27148	1074.8	51.8582
14.2734	1068.12	51.8777
14.2743	1079.54	51.8972
14.2767	1080.359	51.9167
14.2781	1064.9	51.9363
14.2796	1080.21	51.9558
14.2819	1081.39	51.9753
14.284	1068.73	51.9949
14.2852	1075.59	52.0144
14.2866	1085.28	52.0339
14.2885	1066.32	52.0535
14.2884	1072.455	52.073
14.2906	1086.81	52.0925
14.292	1073.17	52.1121
14.2947	1068.81	52.1316
14.2966	1082.32	52.1511
14.2985	1073.28	52.1707
14.2994	1066.75	52.1902
14.3019	1083.74	52.2097
14.3025	1076.45	52.2292
14.3038	1065.8	52.2488
14.30672	1081.65	52.2683
14.3074	1082.46	52.2878
14.3108	1065.31	52.3074
14.3106	1077.9	52.3269
14.3126	1081.68	52.3464
14.3141	1071.14	52.366
14.3163	1071.9	52.3855
14.3175	1083.79	52.405
14.3184	1072.57	52.4246
14.3201	1072.8	52.4441
14.3229	1081.58	52.4636
14.3234	1075.16	52.4832
14.3264	1064.67	52.5027
14.3271	1082.89	52.5222
14.3296	1080.36	52.5417
14.32958	1067.152	52.5613
14.3319	1075.511	52.5808
14.333	1084.79	52.6003
14.3351	1066.59	52.6199
14.3368	1075.694	52.6394
14.3385	1082.92	52.6589
14.34	1068.35	52.6785
14.34227	1072.3	52.698
14.3433	1085.05	52.7175
14.3448	1070.54	52.7371
14.3466	1067.93	52.7566
14.349	1085.52	52.7761
14.3495	1074.33	52.7957
14.3519	1066.1	52.8152
14.3532	1081.83	52.8347
14.3554	1077.57	52.8542
14.3561	1066.37	52.8738
14.3574	1080.93	52.8933
14.3596	1078.41	52.9128
14.3613	1066.83	52.9324
14.3627	1074.82	52.9519
14.3647	1083.27	52.9714
14.3665	1067.24	52.991
14.3682	1073.46	53.0105
14.3693	1079.91	53.03
14.3719	1073.35	53.0496
14.3731	1068.42	53.0691
14.373	1083.17	53.0886
14.3766	1075.77	53.1082
14.3777	1069.64	53.1277
14.38028	1078.63	53.1472
14.3804	1078.58	53.1667
14.3818	1063.56	53.1863
14.385	1079.58	53.2058
14.3856	1081.86	53.2253
14.3873	1066.37	53.2449
14.3885	1072.26	53.2644
14.3902	1083.47	53.2839
14.3921	1067.36	53.3035
14.39258	1071.25	53.323
14.3947	1082.83	53.3425
14.3966	1069.82	53.3621
14.3988	1068.24	53.3816
14.4013	1083.36	53.4011
14.4016	1072.76	53.4207
14.4037	1064.79	53.4402
14.4045	1082.68	53.4597
14.4076	1074.83	53.4792
14.4095	1065.02	53.4988
14.411	1076.95	53.5183
14.4109	1080.55	53.5378
14.4128	1066.13	53.5574
14.4142	1074.76	53.5769
14.4165	1078.78	53.5964
14.4181	1067.28	53.616
14.4197	1071.51	53.6355
14.4221	1082.69	53.655
14.4226	1069.43	53.6746
14.4249	1070.66	53.6941
14.4274	1079.24	53.7136
14.4279	1074.705	53.7332
14.4294	1063.95	53.7527
14.4308	1080.509	53.7722
14.43261	1077.19	53.7917
14.4348	1065.48	53.8113
14.437	1075.2	53.8308
14.4383	1078.68	53.8503
14.43912	1064.56	53.8699
14.44067	1074.2	53.8894
14.4424	1083.95	53.9089
14.443	1065.61	53.9285
14.4453	1068.35	53.948
14.4473	1081.89	53.9675
14.4487	1070.22	53.9871
14.4514	1066.19	54.0066
14.4522	1081.76	54.0261
14.4546	1070.17	54.0457
14.4561	1065.31	54.0652
14.4572	1079.04	54.0847
14.4591	1076.13	54.1042
14.4606	1064.82	54.1238
14.4625	1080.2	54.1433
14.4631	1076.66	54.1628
14.4662	1067.12	54.1824
14.4662	1071.44	54.2019
14.4693	1081.839	54.2214
14.4695	1067.303	54.241
14.4717	1071.973	54.2605
14.4743	1078.74	54.28
14.4753	1071.25	54.2996
14.4774	1067.37	54.3191
14.47777	1081.79	54.3386
14.4801	1073.56	54.3582
14.4814	1065.07	54.3777
14.4839	1077.23	54.3972
14.4848	1076.139	54.4167
14.4862	1063.07	54.4363
14.4886	1075.57	54.4558
14.4902	1078.104	54.4753
14.4918	1064.32	54.4949
14.4932	1072.09	54.5144
14.4943	1079.4	54.5339
14.4963	1064.38	54.5535
14.4973	1067.57	54.573
14.4999	1082.47	54.5925
14.5022	1065.63	54.6121
14.5033	1066.73	54.6316
14.5042	1080	54.6511
14.5072	1072.6	54.6707
14.5063	1063.74	54.6902
14.51	1079.223	54.7097
14.512	1069.4	54.7292
14.5125	1063.064	54.7488
14.5134	1075.36	54.7683
14.5145	1077.58	54.7878
14.5173	1060.27	54.8074
14.5192	1073	54.8269
14.5211	1076.72	54.8464
14.5221	1064.39	54.866
14.5245	1065.78	54.8855
14.5267	1080.41	54.905
14.528	1065.26	54.9246
14.5291	1064.981	54.9441
14.5312	1076.28	54.9636
14.5323	1069.86	54.9832
14.5343	1059.68	55.0027
14.5348	1075.19	55.0222
14.5372	1070.47	55.0417
14.5386	1058.67	55.0613
14.53823	1072.061	55.0808
14.5416	1074	55.1003
14.5431	1059.02	55.1199
14.5454	1065.93	55.1394
14.547	1073.61	55.1589
14.54847	1056.994	55.1785
14.5505	1062.6	55.198
14.5504	1070.29	55.2175
14.5534	1054.78	55.2371
14.5629	-116.611	55.2566
14.5632	-17.9734	55.2761
14.5628	-34.8918	55.2957
14.5638	-47.2301	55.3152
14.564	-34.5132	55.3347
14.56504	-34.9998	55.3542
14.56667	-50.4091	55.3738
14.5686	-36.1084	55.3933
14.5699	-34.4521	55.4128
14.5711	-49.6258	55.4324
14.57254	-42.9171	55.4519
14.575	-30.42318	55.4714
14.5749	-46.3035	55.491
14.5772	-44.5775	55.5105
14.57944	-30.92445	55.53
14.5809	-42.7762	55.5496
14.583	-49.9501	55.5691
14.5838	-30.607	55.5886
14.5844	-38.0184	55.6082
14.5869	-49.2687	55.6277
14.5887	-35.1306	55.6472
14.59	-35.2012	55.6667
14.5917	-48.4534	55.6863
14.59269	-35.6468	55.7058
14.5946	-32.156	55.7253
14.5973	-50.291	55.7449
14.59933	-40.4161	55.7644
14.5993	-30.193	55.7839
14.6017	-46.6905	55.8035
14.6018	-44.2474	55.823
14.6045	-27.9461	55.8425
14.6064	-43.6087	55.8621
14.6077	-44.1651	55.8816
14.6097	-34.3896	55.9011
14.61003	-38.5788	55.9207
14.6115	-47.2057	55.9402
14.614	-29.53966	55.9597
14.6146	-40.4132	55.9792
14.6172	-48.6741	55.9988
14.6183	-36.78791	56.0183
14.62211	-32.6582	56.0378
14.62187	-46.1156	56.0574
14.624	-39.8745	56.0769
14.626	-34.625	56.0964
14.6269	-44.9003	56.116
14.6284	-45.33633	56.1355
14.6295	-32.2421	56.155
14.632	-42.5465	56.1746
14.6333	-46.1992	56.1941
14.6366	-30.9743	56.2136
14.63753	-39.6029	56.2332
14.6379	-48.8285	56.2527
14.64079	-34.7193	56.2722
14.6411	-35.63979	56.2917
14.6434	-50.5793	56.3113
14.6449	-37.2044	56.3308
14.6472	-36.1807	56.3503
14.6476	-47.4874	56.3699
14.6496	-39.8449	56.3894
14.6519	-31.4153	56.4089
14.6538	-51.2827	56.4285
14.6547	-42.3517	56.448
14.6561	-32.6076	56.4675
14.6577	-44.8171	56.4871
14.6588	-46.5261	56.5066
14.6605	-31.6927	56.5261
14.6632	-42.77914	56.5457
14.6642	-45.44677	56.5652
14.6663	-34.8699	56.5847
14.66788	-37.969	56.6042
14.6693	-48.151	56.6238
14.6707	-34.5589	56.6433
14.6726	-37.9497	56.6628
14.6742	-48.4177	56.6824
14.676	-42.6829	56.7019
14.67765	-32.3576	56.7214
14.6782	-46.207	56.741
14.6811	-43.5628	56.7605
14.6831	-32.6675	56.78
14.68323	-43.0325	56.7996
14.6858	-44.9626	56.8191
14.6878	-34.8543	56.8386
14.689	-40.68462	56.8582
14.6911	-49.2582	56.8777
14.6923	-32.3822	56.8972
14.6942	-39.3732	56.9167
14.6948	-49.9093	56.9363
14.6972	-37.9649	56.9558
14.6984	-33.5583	56.9753
14.7005	-50.0756	56.9949
14.7024	-40.648	57.0144
14.7037	-33.271	57.0339
14.7052	-46.99881	57.0535
14.7071	-42.3524	57.073
14.7076	-32.1426	57.0925
14.711	-47.9933	57.1121
14.7116	-43.4343	57.1316
14.7141	-31.7887	57.1511
14.71384	-40.6476	57.1707
14.7164	-47.0738	57.1902
14.7177	-33.239	57.2097
14.7201	-40.3258	57.2292
14.7205	-48.21096	57.2488
14.7222	-38.6932	57.2683
14.7257	-35.3344	57.2878
14.7271	-47.8332	57.3074
14.7282	-39.3718	57.3269
14.7297	-36.2898	57.3464
14.7313	-48.1316	57.366
14.7318	-44.8966	57.3855
14.7339	-33.9018	57.405
14.73531	-44.324	57.4246
14.73704	-47.4693	57.4441
14.7384	-33.1634	57.4636
14.7408	-41.455	57.4832
14.7414	-46.5698	57.5027
14.7439	-34.07449	57.5222
14.7458	-36.2126	57.5417
14.74692	-51.9134	57.5613
14.7496	-35.1937	57.5808
14.7515	-37.0935	57.6003
14.752	-49.2662	57.6199
14.7543	-41.0489	57.6394
14.7554	-31.3591	57.6589
14.7559	-49.83403	57.6785
14.7589	-41.5786	57.698
14.7601	-33.4208	57.7175
14.7631	-44.7462	57.7371
14.7629	-50.0641	57.7468