File: data/processed_data_files/tensile/0.254_hd_uprint_typeiv_4545_r(2).dat
MTS793|BTW|ENU|1|2|.|/|:|1|0|0|A

Data Header:			0.254_hd_uprint_typeiv_4545_r0			Time:	20.0303	s	4/13/2019 7:14:06 PM
Data Acquisition:	Timed
Station Name:	ft40.cfg
Test File Name:	monotonic_0.2540_typeiv_hd_4545_uprint.tst
Displacement	Force	Running Time
mm	N	s
-40.0399	-145.983	0.03515625
-40.0403	-118.737	0.0546875
-40.0407	-132.251	0.07421875
-40.0387	-143.609	0.09375
-40.037	-123.363	0.113281
-40.0352	-123.9396	0.1328125
-40.0342	-141.517	0.152344
-40.0319	-123.648	0.171875
-40.0318	-121.455	0.191406
-40.0292	-135.6739	0.2109375
-40.0279	-125.313	0.230469
-40.0266	-111.586	0.25
-40.0246	-132.003	0.269531
-40.0227	-127.717	0.2890625
-40.0213	-112.6136	0.308594
-40.0199	-121.197	0.328125
-40.0173	-129.436	0.347656
-40.0163	-108.267	0.3671875
-40.0149	-115.844	0.386719
-40.0121	-126.145	0.40625
-40.0097	-110.794	0.425781
-40.0085	-109.66	0.4453125
-40.0069	-125.867	0.464844
-40.0069	-108.558	0.484375
-40.0062	-100.972	0.503906
-40.0028	-122.971	0.5234375
-40.0008	-113.743	0.542969
-39.99963	-96.7192	0.5625
-39.9972	-114.0357	0.582031
-39.9971	-113.704	0.6015625
-39.9947	-92.7391	0.621094
-39.9931	-109.72	0.640625
-39.9923	-113.514	0.660156
-39.9901	-91.67646	0.6796875
-39.98811	-100.642	0.699219
-39.9872	-113.248	0.71875
-39.9856	-90.43074	0.738281
-39.9833	-93.9053	0.7578125
-39.9827	-109.7246	0.777344
-39.9804	-94.6019	0.796875
-39.9785	-86.4954	0.816406
-39.9759	-105.313	0.8359375
-39.975	-94.0456	0.855469
-39.9738	-85.6098	0.875
-39.9718	-98.6924	0.894531
-39.96957	-99.0879	0.9140625
-39.9689	-77.9492	0.933594
-39.9666	-92.4101	0.953125
-39.9664	-98.2604	0.972656
-39.964	-78.7533	0.9921875
-39.9628	-83.2741	1.01172
-39.9603	-97.5261	1.03125
-39.9597	-77.4795	1.05078
-39.9583	-78.6664	1.07031
-39.9552	-95.1173	1.08984
-39.9537	-81.4602	1.109375
-39.9538	-69.6453	1.12891
-39.9512	-91.2124	1.14844
-39.95042	-82.0717	1.16797
-39.9475	-64.8955	1.1875
-39.9462	-85.6688	1.20703
-39.9444	-84.5369	1.22656
-39.9432	-61.7519	1.24609
-39.9406	-77.0586	1.265625
-39.9406	-83.8893	1.28516
-39.9383	-59.5981	1.30469
-39.9372	-71.19429	1.32422
-39.9356	-82.16964	1.34375
-39.9326	-61.2384	1.36328
-39.9301	-61.3178	1.38281
-39.9305	-79.9516	1.40234
-39.9289	-64.0464	1.421875
-39.9258	-58.6813	1.44141
-39.9256	-74.1425	1.46094
-39.9235	-69.38102	1.48047
-39.9211	-50.346	1.5
-39.9197	-69.4092	1.51953
-39.9188	-66.02993	1.53906
-39.9159	-49.8023	1.55859
-39.9152	-60.8632	1.578125
-39.9133	-70.9256	1.59766
-39.9126	-47.1821	1.61719
-39.911	-53.9263	1.63672
-39.9096	-67.81559	1.65625
-39.9065	-51.2754	1.67578
-39.9059	-46.1027	1.69531
-39.9038	-65.5808	1.71484
-39.9026	-48.91	1.734375
-39.9004	-39.5773	1.75391
-39.8993	-59.9932	1.77344
-39.8988	-53.7351	1.79297
-39.89584	-34.3128	1.8125
-39.89497	-57.0489	1.83203
-39.89312	-54.0622	1.85156
-39.8917	-31.4353	1.87109
-39.8899	-46.9389	1.890625
-39.8879	-55.8704	1.91016
-39.8857	-33.9901	1.92969
-39.8843	-39.4567	1.94922
-39.8828	-53.9345	1.96875
-39.8808	-31.609	1.98828
-39.88	-35.3735	2.00781
-39.8781	-47.8006	2.02734
-39.8768	-35.4118	2.046875
-39.8742	-25.2074	2.06641
-39.87384	-47.1235	2.08594
-39.8707	-35.3807	2.10547
-39.8697	-23.9572	2.125
-39.8679	-37.8303	2.14453
-39.8678	-40.655	2.16406
-39.8652	-18.5755	2.18359
-39.8638	-31.887	2.203125
-39.8619	-37.5885	2.22266
-39.8609	-20.4427	2.24219
-39.8588	-23.1286	2.26172
-39.8565	-38.78614	2.28125
-39.8553	-17.181	2.30078
-39.8548	-16.2391	2.32031
-39.8521	-35.56554	2.33984
-39.8494	-22.9479	2.359375
-39.8486	-9.90726	2.37891
-39.8467	-31.5832	2.39844
-39.846	-23.11062	2.41797
-39.8446	-5.23434	2.4375
-39.8423	-23.83	2.45703
-39.8418	-24.3732	2.47656
-39.8388	-3.36089	2.49609
-39.8372	-18.2245	2.515625
-39.8351	-26.3288	2.53516
-39.8342	-1.04138	2.55469
-39.8325	-10.2534	2.57422
-39.8303	-23.6062	2.59375
-39.8299	-6.66885	2.61328
-39.82729	-1.07109	2.63281
-39.826	-20.3208	2.65234
-39.8247	-4.44777	2.671875
-39.8243	0.660722	2.69141
-39.82132	-13.93314	2.71094
-39.8191	-8.28217	2.73047
-39.8179	9.19359	2.75
-39.81617	-9.86362	2.76953
-39.8139	-8.06467	2.78906
-39.81337	8.57482	2.80859
-39.81086	-1.095143	2.828125
-39.8104	-11.6067	2.84766
-39.8092	11.9469	2.86719
-39.80827	7.37013	2.88672
-39.8066	-9.052269	2.90625
-39.8035	8.83603	2.92578
-39.8013	13.973	2.94531
-39.8012	-6.34583	2.96484
-39.7986	9.70847	2.984375
-39.7975	20.6154	3.00391
-39.7958	-1.27587	3.02344
-39.7929	3.18043	3.04297
-39.7919	25.2343	3.0625
-39.7904	5.3826	3.08203
-39.7893	4.29859	3.10156
-39.7876	26.3264	3.12109
-39.7863	11.5979	3.140625
-39.7843	3.43251	3.16016
-39.7814	27.676	3.17969
-39.7807	20.2915	3.19922
-39.7795	4.9669	3.21875
-39.7771	27.7648	3.23828
-39.7762	25.3975	3.25781
-39.7743	10.8132	3.27734
-39.77203	21.9027	3.296875
-39.7713	34.9803	3.31641
-39.7701	14.9318	3.33594
-39.768	23.18877	3.35547
-39.767	35.4123	3.375
-39.7648	20.4538	3.39453
-39.7618	19.6019	3.41406
-39.7612	43.2553	3.43359
-39.7598	27.8157	3.453125
-39.75835	20.0796	3.47266
-39.7566	39.24	3.49219
-39.75457	39.2893	3.51172
-39.754	20.25103	3.53125
-39.7516	40.6683	3.55078
-39.7496	44.1764	3.57031
-39.7478	24.4847	3.58984
-39.74654	36.4672	3.609375
-39.7436	50.4822	3.62891
-39.7434	27.802	3.64844
-39.7422	35.51825	3.66797
-39.739	56.123	3.6875
-39.73922	35.6242	3.70703
-39.7375	31.6291	3.72656
-39.7354	58.0008	3.74609
-39.7327	44.9079	3.765625
-39.7321	35.026	3.78516
-39.7297	56.8419	3.80469
-39.7283	48.5756	3.82422
-39.7276	36.0588	3.84375
-39.7255	56.4437	3.86328
-39.7235	59.5537	3.88281
-39.7223	38.9658	3.90234
-39.7207	56.4471	3.921875
-39.7189	62.5447	3.94141
-39.7165	45.5267	3.96094
-39.716	48.0178	3.98047
-39.7146	69.6874	4
-39.713	51.1105	4.01953
-39.7101	50.9119	4.03906
-39.7104	67.0097	4.05859
-39.7075	59.2149	4.078125
-39.7056	48.0833	4.09766
-39.7036	73.2	4.11719
-39.7033	68.3616	4.13672
-39.6997	50.8698	4.15625
-39.6983	65.7741	4.17578
-39.6973	75.22599	4.19531
-39.6966	53.1064	4.21484
-39.6943	68.13475	4.234375
-39.6929	79.9892	4.25391
-39.69088	57.6666	4.27344
-39.6897	64.2079	4.29297
-39.688	83.9498	4.3125
-39.6866	66.5884	4.33203
-39.6851	62.9966	4.35156
-39.6827	89.151	4.37109
-39.6827	71.6338	4.390625
-39.6797	62.6018	4.41016
-39.6781	85.0246	4.42969
-39.6764	81.3004	4.44922
-39.6749	65.1682	4.46875
-39.6734	85.8084	4.48828
-39.6725	84.72699	4.50781
-39.6703	68.6052	4.52734
-39.6682	82.2534	4.546875
-39.6678	95.5891	4.56641
-39.66568	74.342	4.58594
-39.6634	82.2536	4.60547
-39.66188	95.4422	4.625
-39.6606	83.8445	4.64453
-39.6584	77.57618	4.66406
-39.6566	101.222	4.68359
-39.6564	90.69265	4.703125
-39.654	79.0556	4.72266
-39.6522	96.8012	4.74219
-39.6512	95.7593	4.76172
-39.6485	79.7383	4.78125
-39.6485	99.6865	4.80078
-39.6448	103.505	4.82031
-39.6441	83.2372	4.83984
-39.6431	94.2027	4.859375
-39.6402	110.183	4.87891
-39.6385	89.684	4.89844
-39.6372	94.0315	4.91797
-39.6356	112.339	4.9375
-39.6335	93.2397	4.95703
-39.6329	91.5578	4.97656
-39.6305	114.621	4.99609
-39.6298	102.036	5.015625
-39.6267	91.5692	5.03516
-39.6254	116.0412	5.05469
-39.6245	110.644	5.07422
-39.6225	93.0384	5.09375
-39.6211	113.893	5.11328
-39.6208	118.417	5.13281
-39.6182	97.4594	5.15234
-39.6159	112.675	5.171875
-39.6154	119.954	5.19141
-39.6128	105.2005	5.21094
-39.6123	109.189	5.23047
-39.6094	129.581	5.25
-39.6083	110.267	5.26953
-39.6068	108.149	5.28906
-39.6048	128.351	5.30859
-39.6025	120.217	5.328125
-39.6016	105.596	5.34766
-39.59996	128.949	5.36719
-39.5985	124.737	5.38672
-39.5968	110.18	5.40625
-39.59536	125.581	5.42578
-39.5929	133.625	5.44531
-39.5924	111.186	5.46484
-39.5904	124.573	5.484375
-39.5891	138.997	5.50391
-39.5871	116.745	5.52344
-39.5862	121.616	5.54297
-39.5839	142.433	5.5625
-39.5824	124.486	5.58203
-39.5808	122.1306	5.60156
-39.5786	143.188	5.62109
-39.5765	130.094	5.640625
-39.577	121.9	5.66016
-39.5742	143.934	5.67969
-39.5726	138.832	5.69922
-39.5701	123.371	5.71875
-39.5682	144.17	5.73828
-39.5674	145.538	5.75781
-39.5663	127.726	5.77734
-39.5638	138.831	5.796875
-39.5619	153.924	5.81641
-39.5619	134.352	5.83594
-39.55991	140.7191	5.85547
-39.5571	152.943	5.875
-39.5565	140.554	5.89453
-39.5549	135.737	5.91406
-39.55302	158.331	5.93359
-39.55164	147.768	5.953125
-39.54961	137.813	5.97266
-39.5488	155.033	5.99219
-39.5464	156.34	6.01172
-39.5447	137.041	6.03125
-39.5435	156.732	6.05078
-39.54158	161.724	6.07031
-39.5403	142.212	6.08984
-39.539	152.432	6.109375
-39.5361	168.859	6.12891
-39.53418	145.978	6.14844
-39.5331	152.143	6.16797
-39.5314	171.298	6.1875
-39.53104	152.704	6.20703
-39.5283	149.334	6.22656
-39.5264	171.493	6.24609
-39.5253	162.902	6.265625
-39.5239	150.454	6.28516
-39.523	172.9537	6.30469
-39.52002	165.79	6.32422
-39.5186	151.837	6.34375
-39.5172	171.813	6.36328
-39.515	175.893	6.38281
-39.5133	155.526	6.40234
-39.5114	169.939	6.421875
-39.5101	178.014	6.44141
-39.5087	163.728	6.46094
-39.5073	163.996	6.48047
-39.5065	185.508	6.5
-39.5039	167.684	6.51953
-39.5021	167.7289	6.53906
-39.5022	182.649	6.55859
-39.4999	175.231	6.578125
-39.498	163.699	6.59766
-39.4958	186.293	6.61719
-39.4942	184.1	6.63672
-39.4933	166.902	6.65625
-39.491	181.268	6.67578
-39.4904	190.925	6.69531
-39.4881	171.173	6.71484
-39.4866	182.005	6.734375
-39.4846	195.086	6.75391
-39.4831	175.434	6.77344
-39.4819	179.069	6.79297
-39.4802	199.089	6.8125
-39.4783	180.86	6.83203
-39.4752	177.6032	6.85156
-39.4747	201.449	6.87109
-39.4719	188.081	6.890625
-39.4719	177.717	6.91016
-39.4708	199.005	6.92969
-39.4681	198.693	6.94922
-39.4675	182.315	6.96875
-39.4652	201.496	6.98828
-39.4639	201.306	7.00781
-39.4635	184.85	7.02734
-39.4609	197.316	7.046875
-39.4604	209.734	7.06641
-39.4563	190.032	7.08594
-39.4555	195.639	7.10547
-39.4537	210.629	7.125
-39.4516	197.823	7.14453
-39.4514	191.008	7.16406
-39.4477	216.081	7.18359
-39.4468	204.959	7.203125
-39.4463	195.182	7.22266
-39.4436	212.003	7.24219
-39.4422	210.829	7.26172
-39.4405	193.4032	7.28125
-39.4399	214.782	7.30078
-39.4365	219.08	7.32031
-39.4362	197.686	7.33984
-39.434	208.314	7.359375
-39.4331	225.085	7.37891
-39.4314	203.521	7.39844
-39.4294	207.991	7.41797
-39.4274	227.5455	7.4375
-39.42646	210.338	7.45703
-39.4246	204.163	7.47656
-39.4222	229.504	7.49609
-39.42115	218.155	7.515625
-39.4213	205.978	7.53516
-39.41721	230.589	7.55469
-39.41703	223.734	7.57422
-39.4153	208.737	7.59375
-39.4123	226.395	7.61328
-39.41103	232.339	7.63281
-39.4101	212.018	7.65234
-39.4083	226.218	7.671875
-39.406	233.878	7.69141
-39.4054	219.476	7.71094
-39.4035	221.022	7.73047
-39.4022	242.31	7.75
-39.39962	223.973	7.76953
-39.399	221.9064	7.78906
-39.3961	240.472	7.80859
-39.3948	234.899	7.828125
-39.3938	220.031	7.84766
-39.3922	241.695	7.86719
-39.3909	240.789	7.88672
-39.3886	224.126	7.90625
-39.3864	238.769	7.92578
-39.3864	245.418	7.94531
-39.3843	226.0874	7.96484
-39.3822	239.516	7.984375
-39.3811	252.62	8.00391
-39.379	231.57	8.02344
-39.3776	233.235	8.04297
-39.3761	254.818	8.0625
-39.375	239.257	8.08203
-39.37336	234.455	8.10156
-39.3706	258.525	8.12109
-39.3693	244.8643	8.140625
-39.3673	233.961	8.16016
-39.3659	256.2883	8.17969
-39.3643	253.704	8.19922
-39.362	235.924	8.21875
-39.3612	255.954	8.23828
-39.3599	257.863	8.25781
-39.3578	241.986	8.27734
-39.3561	251.423	8.296875
-39.3549	266.62	8.31641
-39.3533	246.063	8.33594
-39.35154	251.0179	8.35547
-39.3506	265.458	8.375
-39.3473	252.8452	8.39453
-39.3457	247.293	8.41406
-39.34433	271.803	8.43359
-39.3431	261.324	8.453125
-39.3411	248.209	8.47266
-39.3388	266.6239	8.49219
-39.3375	269.007	8.51172
-39.3361	250.501	8.53125
-39.3354	267.975	8.55078
-39.33366	274.54	8.57031
-39.3306	254.946	8.58984
-39.3294	265.31	8.609375
-39.3288	279.7211	8.62891
-39.328	259.24	8.64844
-39.3252	264.808	8.66797
-39.3233	283.254	8.6875
-39.3225	265.149	8.70703
-39.3204	260.251	8.72656
-39.3195	281.64	8.74609
-39.31741	273.087	8.765625
-39.3154	263.349	8.78516
-39.3142	285.225	8.80469
-39.3123	277.609	8.82422
-39.3126	262.859	8.84375
-39.3085	280.908	8.86328
-39.30722	287.811	8.88281
-39.3058	265.707	8.90234
-39.3038	279.916	8.921875
-39.3024	289.914	8.94141
-39.3006	274.28	8.96094
-39.2982	274.863	8.98047
-39.2976	295.493	9
-39.2964	279.3782	9.01953
-39.2949	277.273	9.03906
-39.2929	292.769	9.05859
-39.2913	289.729	9.078125
-39.2894	273.47	9.09766
-39.2874	296.107	9.11719
-39.2862	294.721	9.13672
-39.285	277.4	9.15625
-39.2831	290.691	9.17578
-39.2813	302.517	9.19531
-39.28	282.016	9.21484
-39.2787	290.601	9.234375
-39.2771	305.044	9.25391
-39.2764	286.645	9.27344
-39.2725	288.022	9.29297
-39.2712	308.156	9.3125
-39.271	294.484	9.33203
-39.2683	286.3255	9.35156
-39.2666	310.778	9.37109
-39.2654	300.154	9.390625
-39.2638	288.597	9.41016
-39.2611	306.519	9.42969
-39.2608	309.114	9.44922
-39.2598	291.642	9.46875
-39.2563	306.3696	9.48828
-39.2543	310.746	9.50781
-39.2549	295.554	9.52734
-39.252	302.368	9.546875
-39.2508	320.111	9.56641
-39.24926	301.806	9.58594
-39.2469	301.988	9.60547
-39.246	317.83	9.625
-39.2443	310.159	9.64453
-39.2427	299.43	9.66406
-39.2406	320.929	9.68359
-39.2386	316.413	9.703125
-39.2378	303.42	9.72266
-39.2355	317.839	9.74219
-39.2334	321.741	9.76172
-39.2331	304.009	9.78125
-39.2302	318.728	9.80078
-39.229	329.633	9.82031
-39.2278	308.43	9.83984
-39.2253	312.567	9.859375
-39.2255	332.176	9.87891
-39.2234	317.027	9.89844
-39.2209	313.784	9.91797
-39.2198	336.062	9.9375
-39.2179	321.136	9.95703
-39.21764	312.099	9.97656
-39.2147	334.448	9.99609
-39.2135	329.2699	10.0156
-39.2122	313.193	10.0352
-39.2088	334.375	10.0547
-39.2077	333.65	10.0742
-39.2073	317.018	10.09375
-39.2052	327.7168	10.1133
-39.2035	341.215	10.1328
-39.2026	321.698	10.1523
-39.1999	329.749	10.1719
-39.1991	340.116	10.1914
-39.1956	327.772	10.2109
-39.1954	326.033	10.2305
-39.19371	347.418	10.25
-39.1919	334.939	10.2695
-39.1911	326.335	10.2891
-39.1875	344.131	10.3086
-39.188	343.9939	10.3281
-39.1859	326.211	10.3477
-39.1831	346.366	10.3672
-39.18185	347.993	10.3867
-39.1814	330.328	10.40625
-39.1794	342.3176	10.4258
-39.1781	354.356	10.4453
-39.1753	331.941	10.4648
-39.1731	340.071	10.4844
-39.1738	358.5907	10.5039
-39.1709	339.996	10.5234
-39.1693	335.924	10.543
-39.1663	358.177	10.5625
-39.1667	347.004	10.582
-39.1646	337.418	10.6016
-39.1631	359.385	10.6211
-39.1606	353.87	10.6406
-39.1598	338.163	10.6602
-39.1589	357.642	10.6797
-39.1565	360.623	10.6992
-39.1548	341.126	10.71875
-39.1531	355.419	10.7383
-39.1518	363.7	10.7578
-39.1499	347.5603	10.7773
-39.1481	351.353	10.7969
-39.1463	369.808	10.8164
-39.1455	353.139	10.8359
-39.1428	352.7785	10.8555
-39.1414	367.656	10.875
-39.1401	359.413	10.8945
-39.1388	350.073	10.9141
-39.1364	372.865	10.9336
-39.1342	367.072	10.9531
-39.1335	351.989	10.9727
-39.1322	366.424	10.9922
-39.1295	373.49	11.0117
-39.1281	354.604	11.03125
-39.1265	367.796	11.0508
-39.1253	377.441	11.0703
-39.1245	359.932	11.0898
-39.123	361.986	11.1094
-39.1201	381.835	11.1289
-39.1188	364.027	11.1484
-39.1168	362.929	11.168
-39.1156	384.118	11.1875
-39.1143	371.178	11.207
-39.1125	359.396	11.2266
-39.1113	382.097	11.2461
-39.1095	377.819	11.2656
-39.1069	362.044	11.2852
-39.1068	382.87	11.3047
-39.1037	383.048	11.3242
-39.1029	365.644	11.34375
-39.101	376.952	11.3633
-39.099	391.737	11.3828
-39.0975	370.885	11.4023
-39.0958	376.748	11.4219
-39.0946	391.436	11.4414
-39.0919	378.604	11.4609
-39.09166	373.145	11.4805
-39.0888	395.16	11.5
-39.08865	383.659	11.5195
-39.0855	375.057	11.5391
-39.085	391.2894	11.5586
-39.0831	391.811	11.5781
-39.0812	374.475	11.5977
-39.0787	392.97	11.6172
-39.0779	396.693	11.6367
-39.0761	378.755	11.65625
-39.0753	387.494	11.6758
-39.0734	401.797	11.6953
-39.0715	381.709	11.7148
-39.0706	388.493	11.7344
-39.0683	404.822	11.7539
-39.067	388.069	11.7734
-39.0659	383.273	11.793
-39.06279	407.203	11.8125
-39.0617	393.9	11.832
-39.05991	382.7489	11.8516
-39.0585	407.701	11.8711
-39.0566	401.306	11.8906
-39.05547	385.901	11.9102
-39.0529	401.805	11.9297
-39.0526	407.24	11.9492
-39.0497	388.437	11.96875
-39.0481	404.658	11.9883
-39.0469	409.384	12.0078
-39.0459	394.231	12.0273
-39.0441	397.413	12.0469
-39.0415	416.107	12.0664
-39.0405	400.658	12.0859
-39.0402	397.312	12.1055
-39.0365	414.095	12.125
-39.0357	408.803	12.1445
-39.0345	395.248	12.1641
-39.0306	416.737	12.1836
-39.0311	413.041	12.2031
-39.0299	397.617	12.2227
-39.0283	412.697	12.2422
-39.0259	419.7114	12.2617
-39.0246	399.009	12.28125
-39.0219	412.951	12.3008
-39.0214	425.389	12.3203
-39.0199	404.621	12.3398
-39.017	405.578	12.3594
-39.0162	427.5307	12.3789
-39.014	409.687	12.3984
-39.0129	407.985	12.418
-39.011	429.378	12.4375
-39.0097	417.618	12.457
-39.0085	405.174	12.4766
-39.0062	428.785	12.4961
-39.0047	423.35	12.5156
-39.0036	406.307	12.5352
-39.0022	426.5817	12.5547
-39.0005	427.672	12.5742
-38.9986	410.735	12.59375
-38.9967	423.035	12.6133
-38.99527	434.378	12.6328
-38.9931	416.174	12.6523
-38.99226	421.421	12.6719
-38.9902	434.107	12.6914
-38.9889	421.517	12.7109
-38.9873	417.6	12.7305
-38.9847	440.5105	12.75
-38.9837	427.675	12.7695
-38.9827	417.608	12.7891
-38.9805	434.667	12.8086
-38.9786	435.732	12.8281
-38.9771	418.364	12.8477
-38.975	435.157	12.8672
-38.9738	440.724	12.8867
-38.9721	423.013	12.90625
-38.9706	430.746	12.9258
-38.9684	446.51	12.9453
-38.968	424.119	12.9648
-38.9665	431.357	12.9844
-38.96384	448.681	13.0039
-38.9625	432.051	13.0234
-38.9608	426.482	13.043
-38.95895	448.492	13.0625
-38.9568	438.447	13.082
-38.9561	426.941	13.1016
-38.9542	447.5762	13.1211
-38.9537	442.752	13.1406
-38.9515	427.792	13.1602
-38.9498	446.347	13.1797
-38.9486	449.276	13.1992
-38.94595	429.6384	13.21875
-38.9461	443.263	13.2383
-38.9431	452.559	13.2578
-38.9409	436.643	13.2773
-38.9401	440.091	13.2969
-38.9388	457.081	13.3164
-38.9375	441.348	13.3359
-38.9355	439.295	13.3555
-38.9328	455.312	13.375
-38.9316	447.065	13.3945
-38.9291	434.916	13.4141
-38.9284	457.096	13.4336
-38.9268	454.768	13.4531
-38.9249	438.985	13.4727
-38.9232	452.423	13.4922
-38.9214	461.208	13.5117
-38.9212	440.8775	13.53125
-38.9178	453.4715	13.5508
-38.9161	463.683	13.5703
-38.9151	444.521	13.5898
-38.9132	447.091	13.6094
-38.9127	468.338	13.6289
-38.9104	448.368	13.6484
-38.9095	445.5527	13.668
-38.9068	468.979	13.6875
-38.906	456.913	13.707
-38.9043	444.372	13.7266
-38.9017	466.074	13.7461
-38.9014	463.897	13.7656
-38.9001	447.563	13.7852
-38.8979	466.161	13.8047
-38.8959	467.087	13.8242
-38.8943	448.236	13.84375
-38.8928	460.829	13.8633
-38.8908	474.458	13.8828
-38.8897	453.777	13.9023
-38.8882	458.48	13.9219
-38.8852	473.583	13.9414
-38.8844	460.243	13.9609
-38.8831	454.163	13.9805
-38.8817	475.444	14
-38.8799	466.203	14.0195
-38.8783	456.371	14.0391
-38.8756	471.713	14.0586
-38.8758	472.976	14.0781
-38.8721	453.407	14.0977
-38.8715	473.482	14.1172
-38.8695	477.3653	14.1367
-38.8686	459.083	14.15625
-38.86631	465.362	14.1758
-38.8641	483.164	14.1953
-38.8637	461.465	14.2148
-38.8622	465.977	14.2344
-38.8604	483.98	14.2539
-38.8582	467.972	14.2734
-38.8565	460.522	14.293
-38.8546	487.066	14.3125
-38.8532	474.307	14.332
-38.852	461.271	14.3516
-38.8509	482.989	14.3711
-38.8486	479.288	14.3906
-38.8474	461.008	14.4102
-38.8452	478.959	14.4297
-38.84486	485.411	14.4492
-38.8415	464.424	14.46875
-38.8401	479.684	14.4883
-38.839	486.789	14.5078
-38.8382	470.616	14.5273
-38.8356	472.583	14.5469
-38.8346	492.517	14.5664
-38.8334	475.386	14.5859
-38.8315	471.764	14.6055
-38.8284	489.879	14.625
-38.8264	481.675	14.6445
-38.826	468.777	14.6641
-38.8249	489.726	14.6836
-38.8226	485.329	14.7031
-38.82	471.836	14.7227
-38.8198	484.745	14.7422
-38.8184	492.126	14.7617
-38.8163	469.865	14.78125
-38.8148	483.417	14.8008
-38.8122	495.8504	14.8203
-38.81171	476.307	14.8398
-38.8093	475.828	14.8594
-38.8079	498.6951	14.8789
-38.8056	482.026	14.8984
-38.8042	478.302	14.918
-38.8025	497.957	14.9375
-38.8017	486.411	14.957
-38.7998	474.4054	14.9766
-38.7976	496.403	14.9961
-38.7965	492.597	15.0156
-38.795	475.605	15.0352
-38.7941	494.082	15.0547
-38.7919	496.744	15.0742
-38.7894	476.8927	15.09375
-38.7886	488.82	15.1133
-38.7876	500.33	15.1328
-38.7859	481.43	15.1523
-38.7837	487.499	15.1719
-38.7817	501.804	15.1914
-38.78072	487.491	15.2109
-38.77895	481.251	15.2305
-38.7762	503.224	15.25
-38.7753	493.035	15.2695
-38.7745	480.959	15.2891
-38.7727	497.4581	15.3086
-38.77034	499.289	15.3281
-38.7698	479.831	15.3477
-38.7678	498.9426	15.3672
-38.766	502.513	15.3867
-38.7642	483.114	15.40625
-38.7625	490.572	15.4258
-38.7605	508.298	15.4453
-38.7591	483.991	15.4648
-38.7572	490.736	15.4844
-38.75626	507.179	15.5039
-38.7535	494.52	15.5234
-38.75259	484.995	15.543
-38.7505	507.182	15.5625
-38.7501	496.297	15.582
-38.7484	484.681	15.6016
-38.7455	506.718	15.6211
-38.7434	500.187	15.6406
-38.7428	483.242	15.6602
-38.7408	502.809	15.6797
-38.7393	506.018	15.6992
-38.7387	486.07	15.71875
-38.7371	498.61	15.7383
-38.7351	507.5885	15.7578
-38.7331	489.22	15.7773
-38.7315	493.399	15.7969
-38.7313	510.251	15.8164
-38.7271	493.881	15.8359
-38.7271	491.9512	15.8555
-38.7247	507.685	15.875
-38.7232	500.5141	15.8945
-38.7208	486.941	15.9141
-38.7212	508.357	15.9336
-38.7184	506.048	15.9531
-38.7168	487.758	15.9727
-38.7146	500.217	15.9922
-38.7129	509.988	16.0117
-38.7122	488.249	16.03125
-38.7107	501.297	16.0508
-38.7093	511.791	16.0703
-38.7074	491.836	16.0898
-38.7054	493.6619	16.1094
-38.7037	513.945	16.1289
-38.7019	494.389	16.1484
-38.7002	490.518	16.168
-38.6988	512.515	16.1875
-38.6973	501.471	16.207
-38.6961	488.641	16.2266
-38.6934	510	16.2461
-38.6932	505.329	16.2656
-38.6911	490.363	16.2852
-38.6891	507.999	16.3047
-38.6879	509.153	16.3242
-38.68502	488.24	16.34375
-38.68404	502.185	16.3633
-38.6826	514.002	16.3828
-38.6807	493.002	16.4023
-38.6796	497.589	16.4219
-38.6764	512.498	16.4414
-38.6768	499.963	16.4609
-38.6744	492.664	16.4805
-38.6737	513.234	16.5
-38.6722	501.93	16.5195
-38.6701	492.422	16.5391
-38.6667	508.662	16.5586
-38.665	509.495	16.5781
-38.6654	488.551	16.5977
-38.6641	508.8483	16.6172
-38.6617	511.722	16.6367
-38.6602	493.504	16.65625
-38.65834	500.215	16.6758
-38.6565	515.56	16.6953
-38.6542	494.8	16.7148
-38.6546	498.846	16.7344
-38.6509	514.448	16.7539
-38.651	500.076	16.7734
-38.6483	490.985	16.793
-38.6476	515.178	16.8125
-38.6458	502.992	16.832
-38.64304	489.558	16.8516
-38.6425	511.411	16.8711
-38.6416	508.474	16.8906
-38.6398	489.8739	16.9102
-38.6376	507.38	16.9297
-38.6362	510.876	16.9492
-38.6343	490.629	16.96875
-38.633	504.113	16.9883
-38.6304	514.341	17.0078
-38.6286	493.15	17.0273
-38.6267	498.08	17.0469
-38.6258	515.408	17.0664
-38.6241	498.1171	17.0859
-38.6229	494.253	17.1055
-38.6203	511.431	17.125
-38.6196	502.903	17.1445
-38.6178	491.505	17.1641
-38.6156	511.829	17.1836
-38.6142	506.9	17.2031
-38.6129	492.016	17.2227
-38.6112	505.197	17.2422
-38.6098	513.236	17.2617
-38.608	488.599	17.28125
-38.6073	502.901	17.3008
-38.6044	514.998	17.3203
-38.60265	495.704	17.3398
-38.6002	494.0972	17.3594
-38.5985	514.088	17.3789
-38.597	495.793	17.3984
-38.5965	492.709	17.418
-38.5954	513.243	17.4375
-38.5936	501.494	17.457
-38.5912	486.788	17.4766
-38.5895	511.447	17.4961
-38.589	507.122	17.5156
-38.587	488.628	17.5352
-38.5855	506.158	17.5547
-38.5833	508.873	17.5742
-38.5819	488.468	17.59375
-38.5808	501.018	17.6133
-38.5782	512.524	17.6328
-38.577	491.4541	17.6523
-38.5753	497.76	17.6719
-38.5723	512.347	17.6914
-38.5723	497.992	17.7109
-38.571	492.477	17.7305
-38.5689	512.123	17.75
-38.568	502.7	17.7695
-38.56599	490.251	17.7891
-38.5632	506.643	17.8086
-38.5637	506.066	17.8281
-38.5615	487.519	17.8477
-38.5582	505.216	17.8672
-38.5567	509.288	17.8867
-38.5546	490.107	17.90625
-38.5551	496.505	17.9258
-38.5537	513.441	17.9453
-38.5512	489.996	17.9648
-38.5503	493.831	17.9844
-38.5475	512.644	18.0039
-38.5466	496.896	18.0234
-38.54491	488.058	18.043
-38.5429	510.06	18.0625
-38.5418	499.348	18.082
-38.54	488.755	18.1016
-38.5364	509.9082	18.1211
-38.536	504.037	18.1406
-38.5351	485.988	18.1602
-38.5319	505.892	18.1797
-38.5308	507.644	18.1992
-38.5303	487.474	18.21875
-38.5279	499.406	18.2383
-38.5267	508.896	18.2578
-38.5243	490.109	18.2773
-38.5234	494.772	18.2969
-38.5207	510.846	18.3164
-38.5199	493.232	18.3359
-38.5179	492.9512	18.3555
-38.5179	507.714	18.375
-38.5158	499.4	18.3945
-38.5139	485.76	18.4141
-38.51194	507.707	18.4336
-38.5091	504.077	18.4531
-38.5083	489.133	18.4727
-38.5073	498.762	18.4922
-38.5051	508.398	18.5117
-38.50444	488.367	18.53125
-38.50119	499.263	18.5508
-38.5006	510.627	18.5703
-38.4996	491.009	18.5898
-38.4975	490.046	18.6094
-38.4959	511.754	18.6289
-38.4949	493.851	18.6484
-38.4925	488.897	18.668
-38.4908	508.812	18.6875
-38.4886	498.656	18.707
-38.4881	484.568	18.7266
-38.4863	507.724	18.7461
-38.4836	501.844	18.7656
-38.48278	484.713	18.7852
-38.4811	502.6	18.8047
-38.4799	505.903	18.8242
-38.4775	484.79	18.84375
-38.4771	497.732	18.8633
-38.4731	508.022	18.8828
-38.472	487.986	18.9023
-38.47094	493.072	18.9219
-38.4684	507.13	18.9414
-38.468	493.332	18.9609
-38.4669	487.282	18.9805
-38.4655	507.857	19
-38.4635	495.9357	19.0195
-38.4606	486.626	19.0391
-38.46	503.194	19.0586
-38.4584	502.839	19.0781
-38.456	483.916	19.0977
-38.45438	500.984	19.1172
-38.4521	505.242	19.1367
-38.4514	488.31	19.15625
-38.4491	492.913	19.1758
-38.4492	507.743	19.1953
-38.4464	486.185	19.2148
-38.4459	493	19.2344
-38.4438	509.054	19.2539
-38.4425	493.3493	19.2734
-38.4412	484.654	19.293
-38.4376	508.573	19.3125
-38.43671	496.775	19.332
-38.4359	485.317	19.3516
-38.4341	504.875	19.3711
-38.4324	501.666	19.3906
-38.4303	482.853	19.4102
-38.4283	501.795	19.4297
-38.4272	503.866	19.4492
-38.4257	483.997	19.46875
-38.4235	495.917	19.4883
-38.4219	505.881	19.5078
-38.4206	484.638	19.5273
-38.4187	489.815	19.5469
-38.4175	507.426	19.5664
-38.4157	490.959	19.5859
-38.4134	487.284	19.6055
-38.4119	504.0397	19.625
-38.41	494.985	19.6445
-38.4097	483.868	19.6641
-38.4076	503.929	19.6836
-38.4054	498.801	19.7031
-38.405	484.008	19.7227
-38.4026	496.848	19.7422
-38.40099	505.476	19.7617
-38.4003	482.505	19.78125
-38.3978	493.994	19.8008
-38.396	505.118	19.8203
-38.3952	487.751	19.8398
-38.3927	487.175	19.8594
-38.3915	506.628	19.8789
-38.3903	488.592	19.8984
-38.3881	486.203	19.918
-38.3869	504.664	19.9375
-38.3846	496.196	19.957
-38.38446	481.192	19.9766
-38.3832	502.873	19.9961
-38.3802	500.483	20.0156
-38.3789	486.022	20.0254

Data Header:			0.254_hd_uprint_typeiv_4545_r0			Time:	40.0303	s	4/13/2019 7:14:26 PM
Data Acquisition:	Timed
Station Name:	ft40.cfg
Test File Name:	monotonic_0.2540_typeiv_hd_4545_uprint.tst
Displacement	Force	Running Time
mm	N	s
-38.37923	481.945	20.0352
-38.377	498.591	20.0547
-38.3746	501.7619	20.0742
-38.3739	481.497	20.09375
-38.372	494.693	20.1133
-38.3701	504.413	20.1328
-38.369	484.199	20.1523
-38.3674	490.164	20.1719
-38.3659	505.251	20.1914
-38.3638	488.03	20.2109
-38.362	484.68	20.2305
-38.3611	504.447	20.25
-38.3587	495.301	20.2695
-38.3577	484.352	20.2891
-38.3557	500.126	20.3086
-38.354	498.228	20.3281
-38.3527	482.257	20.3477
-38.3509	498.769	20.3672
-38.3492	502.663	20.3867
-38.3464	483.58	20.40625
-38.3448	488.788	20.4258
-38.3436	505.766	20.4453
-38.3428	483.841	20.4648
-38.3401	487.885	20.4844
-38.3383	504.212	20.5039
-38.3369	489.445	20.5234
-38.3365	481.109	20.543
-38.3347	504.551	20.5625
-38.3326	491.229	20.582
-38.3308	481.216	20.6016
-38.3299	500.932	20.6211
-38.3282	498.633	20.6406
-38.3263	477.343	20.6602
-38.3248	496.487	20.6797
-38.3237	500.189	20.6992
-38.3218	482.209	20.71875
-38.3205	491.689	20.7383
-38.3178	502.167	20.7578
-38.31665	481.679	20.7773
-38.3163	487.8465	20.7969
-38.3127	503.93	20.8164
-38.312	485.295	20.8359
-38.3109	481.277	20.8555
-38.3083	503.335	20.875
-38.3058	493.008	20.8945
-38.3043	480.145	20.9141
-38.3049	500.507	20.9336
-38.302	495.288	20.9531
-38.3008	482.132	20.9727
-38.3	494.192	20.9922
-38.2974	501.054	21.0117
-38.2956	480.034	21.03125
-38.29435	492.036	21.0508
-38.2921	503.348	21.0703
-38.29002	485.0116	21.0898
-38.2886	483.744	21.1094
-38.2875	506.891	21.1289
-38.286	486.445	21.1484
-38.28426	483.208	21.168
-38.2819	501.0575	21.1875
-38.2808	493.298	21.207
-38.2779	478.6709	21.2266
-38.2761	501.415	21.2461
-38.2762	493.609	21.2656
-38.2744	478.975	21.2852
-38.2723	497.378	21.3047
-38.2709	502.147	21.3242
-38.2693	476.901	21.34375
-38.269	491.14	21.3633
-38.267	502.794	21.3828
-38.2646	482.925	21.4023
-38.2634	486.772	21.4219
-38.2618	501.778	21.4414
-38.2584	484.195	21.4609
-38.2589	481.57	21.4805
-38.2567	501.701	21.5
-38.25576	489.982	21.5195
-38.2529	480.221	21.5391
-38.25024	497.063	21.5586
-38.2486	495.44	21.5781
-38.249	479.533	21.5977
-38.2475	494.543	21.6172
-38.2454	499.185	21.6367
-38.2431	482.018	21.65625
-38.2412	489.559	21.6758
-38.2397	503.317	21.6953
-38.2386	480.542	21.7148
-38.2373	486.967	21.7344
-38.2345	504.218	21.7539
-38.2341	487.805	21.7734
-38.2322	477.756	21.793
-38.2292	500.665	21.8125
-38.2284	490.93	21.832
-38.2275	479.97	21.8516
-38.2249	499.422	21.8711
-38.2243	496.148	21.8906
-38.2214	475.54	21.9102
-38.22121	496.756	21.9297
-38.2187	498.84	21.9492
-38.2186	477.743	21.96875
-38.2156	489.163	21.9883
-38.2132	501.612	22.0078
-38.2121	478.958	22.0273
-38.2104	485.779	22.0469
-38.2084	500.421	22.0664
-38.2081	485.605	22.0859
-38.2065	483.021	22.1055
-38.2048	498.617	22.125
-38.20261	488.382	22.1445
-38.2011	479.119	22.1641
-38.2002	498.505	22.1836
-38.19849	493.932	22.2031
-38.1964	478.636	22.2227
-38.1956	491.839	22.2422
-38.1931	498.2485	22.2617
-38.1911	477.961	22.28125
-38.191	488.23	22.3008
-38.18721	498.839	22.3203
-38.1868	482.689	22.3398
-38.1847	481.668	22.3594
-38.1832	502.543	22.3789
-38.181	484.546	22.3984
-38.18	482.418	22.418
-38.1788	501.5	22.4375
-38.1767	491.838	22.457
-38.1747	474.287	22.4766
-38.175	497.838	22.4961
-38.1723	492.922	22.5156
-38.1701	478.455	22.5352
-38.1691	493.457	22.5547
-38.1658	498.434	22.5742
-38.16584	475.799	22.59375
-38.1629	488.62	22.6133
-38.1614	499.029	22.6328
-38.161	480.098	22.6523
-38.1586	483.8624	22.6719
-38.1566	500.553	22.6914
-38.1555	483.623	22.7109
-38.1539	478.731	22.7305
-38.152	497.32	22.75
-38.15131	488.524	22.7695
-38.1483	478.938	22.7891
-38.147	495.494	22.8086
-38.1451	491.528	22.8281
-38.14439	475.716	22.8477
-38.1425	493.61	22.8672
-38.1419	496.343	22.8867
-38.1393	478.72	22.90625
-38.1376	486.563	22.9258
-38.13533	500.891	22.9453
-38.1338	480.203	22.9648
-38.1318	486.486	22.9844
-38.1309	500.45	23.0039
-38.1303	486.239	23.0234
-38.12875	477.329	23.043
-38.1264	501.6514	23.0625
-38.1245	487.154	23.082
-38.1229	477.355	23.1016
-38.1214	495.827	23.1211
-38.11932	494.857	23.1406
-38.1192	472.423	23.1602
-38.1171	492.035	23.1797
-38.114	495.98	23.1992
-38.1131	478.443	23.21875
-38.1119	487.485	23.2383
-38.1099	499.322	23.2578
-38.1094	477.805	23.2773
-38.1067	484.45	23.2969
-38.1053	498.943	23.3164
-38.1038	483.352	23.3359
-38.1027	479.1004	23.3555
-38.1014	497.809	23.375
-38.0993	487.9653	23.3945
-38.0974	478.782	23.4141
-38.0947	495.181	23.4336
-38.093	491.896	23.4531
-38.0922	477.64	23.4727
-38.08987	489.972	23.4922
-38.089	495.464	23.5117
-38.0873	476.5224	23.53125
-38.0868	487.538	23.5508
-38.0836	498.756	23.5703
-38.08176	482.389	23.5898
-38.0802	478.119	23.6094
-38.0796	500.382	23.6289
-38.0772	483.406	23.6484
-38.0743	479.841	23.668
-38.07531	498.172	23.6875
-38.07259	489.336	23.707
-38.0704	474.731	23.7266
-38.0695	496.959	23.7461
-38.0669	491.345	23.7656
-38.06609	476.59	23.7852
-38.0647	492.639	23.8047
-38.0629	497.7041	23.8242
-38.06163	474.69	23.84375
-38.059	487.583	23.8633
-38.0573	496.529	23.8828
-38.0554	478.814	23.9023
-38.05484	483.05	23.9219
-38.0534	498.505	23.9414
-38.0512	481.0217	23.9609
-38.0499	479.046	23.9805
-38.0485	497.479	24
-38.0462	488.153	24.0195
-38.0451	475.144	24.0391
-38.043	493.612	24.0586
-38.0413	491.245	24.0781
-38.03957	474.388	24.0977
-38.0393	490.004	24.1172
-38.0371	494.07	24.1367
-38.0358	477.528	24.15625
-38.0339	485.5242	24.1758
-38.03167	497.448	24.1953
-38.0304	477.892	24.2148
-38.0287	481.438	24.2344
-38.0278	497.155	24.2539
-38.0258	483.796	24.2734
-38.0246	475.277	24.293
-38.0215	498.726	24.3125
-38.0203	485.948	24.332
-38.0187	476.102	24.3516
-38.0177	495.0105	24.3711
-38.0155	493.336	24.3906
-38.0141	472.273	24.4102
-38.0131	492.891	24.4297
-38.0106	494.856	24.4492
-38.0087	476.643	24.46875
-38.0068	485.254	24.4883
-38.0056	498.749	24.5078
-38.0041	475.89	24.5273
-38.003	483.7569	24.5469
-37.9997	496.431	24.5664
-37.9989	481.637	24.5859
-37.99757	479.762	24.6055
-37.9957	498.1424	24.625
-37.9936	484.219	24.6445
-37.9936	474.377	24.6641
-37.9914	494.313	24.6836
-37.99	489.987	24.7031
-37.9875	475.878	24.7227
-37.9873	488.523	24.7422
-37.9848	494.0195	24.7617
-37.9818	474.429	24.78125
-37.9818	486.374	24.8008
-37.9792	495.591	24.8203
-37.9783	479.265	24.8398
-37.9766	478.691	24.8594
-37.9756	498.965	24.8789
-37.97374	481.963	24.8984
-37.9712	476.584	24.918
-37.9697	496.085	24.9375
-37.9688	488.424	24.957
-37.967	471.933	24.9766
-37.9648	494.794	24.9961
-37.9641	489.298	25.0156
-37.9622	475.797	25.0352
-37.9601	490.869	25.0547
-37.95826	497.229	25.0742
-37.9578	472.253	25.09375
-37.9553	487.741	25.1133
-37.9538	496.473	25.1328
-37.9513	478.542	25.1523
-37.9501	481.6272	25.1719
-37.9486	498.656	25.1914
-37.94783	478.908	25.2109
-37.9463	478.599	25.2305
-37.9451	494.712	25.25
-37.9424	485.314	25.2695
-37.9398	475.3573	25.2891
-37.9377	495.456	25.3086
-37.9377	489.188	25.3281
-37.9356	473.839	25.3477
-37.9349	490.0701	25.3672
-37.9323	493.354	25.3867
-37.9312	476.993	25.40625
-37.92952	484.016	25.4258
-37.9284	496.613	25.4453
-37.9259	477.791	25.4648
-37.9246	482.349	25.4844
-37.9223	495.697	25.5039
-37.9207	481.521	25.5234
-37.9196	474.976	25.543
-37.918	497.679	25.5625
-37.9156	484.578	25.582
-37.9154	474.618	25.6016
-37.9126	493.207	25.6211
-37.9108	492.245	25.6406
-37.9099	472.156	25.6602
-37.9083	491.087	25.6797
-37.9075	491.7381	25.6992
-37.9038	474.72	25.71875
-37.9039	484.399	25.7383
-37.9014	496.9548	25.7578
-37.9009	475.051	25.7773
-37.89843	480.621	25.7969
-37.89666	496.735	25.8164
-37.8955	482.415	25.8359
-37.8933	477.365	25.8555
-37.8922	497.135	25.875
-37.8903	483.017	25.8945
-37.8882	476.906	25.9141
-37.8885	492.924	25.9336
-37.8856	489.819	25.9531
-37.8836	473.205	25.9727
-37.8829	489.032	25.9922
-37.8815	491.371	26.0117
-37.8792	473.267	26.03125
-37.8774	483.904	26.0508
-37.8763	494.304	26.0703
-37.8745	478.319	26.0898
-37.8721	478.427	26.1094
-37.8711	494.724	26.1289
-37.8687	480.264	26.1484
-37.8687	475.9566	26.168
-37.865	496.309	26.1875
-37.8641	486.032	26.207
-37.8635	470.532	26.2266
-37.861	493.723	26.2461
-37.8598	487.886	26.2656
-37.8586	472.902	26.2852
-37.8565	486.582	26.3047
-37.8542	494.489	26.3242
-37.8525	471.101	26.34375
-37.8519	484.634	26.3633
-37.8493	494.279	26.3828
-37.84761	477.146	26.4023
-37.8465	479.613	26.4219
-37.8443	497.065	26.4414
-37.8435	476.745	26.4609
-37.842	476.423	26.4805
-37.839	494.818	26.5
-37.8386	484.541	26.5195
-37.8367	472.929	26.5391
-37.8347	491.72	26.5586
-37.8327	486.445	26.5781
-37.8313	473.706	26.5977
-37.8308	486.8887	26.6172
-37.8277	490.503	26.6367
-37.8259	473.771	26.65625
-37.8251	482.594	26.6758
-37.82362	494.062	26.6953
-37.82222	476.402	26.7148
-37.8214	478.436	26.7344
-37.8187	495.918	26.7539
-37.8171	481.724	26.7734
-37.816	473.94	26.793
-37.8143	494.62	26.8125
-37.8117	482.8974	26.832
-37.8098	473.193	26.8516
-37.80941	492.317	26.8711
-37.8066	489.3	26.8906
-37.8063	467.665	26.9102
-37.8043	488.189	26.9297
-37.80162	491.926	26.9492
-37.8025	472.804	26.96875
-37.7996	482.847	26.9883
-37.7969	495.233	27.0078
-37.7955	473.009	27.0273
-37.7948	481.556	27.0469
-37.7928	494.579	27.0664
-37.7903	478.898	27.0859
-37.7898	476.456	27.1055
-37.789	495.354	27.125
-37.7873	481.187	27.1445
-37.7854	471.547	27.1641
-37.7831	490.295	27.1836
-37.7809	487.501	27.2031
-37.78017	472.045	27.2227
-37.7785	486.62	27.2422
-37.7769	489.881	27.2617
-37.77433	474.157	27.28125
-37.77401	483.868	27.3008
-37.7717	494.242	27.3203
-37.7689	476.1282	27.3398
-37.7691	476.0672	27.3594
-37.7663	494.011	27.3789
-37.76506	478.79	27.3984
-37.7641	475.073	27.418
-37.7621	492.378	27.4375
-37.7598	486.114	27.457
-37.7588	468.823	27.4766
-37.7573	492.291	27.4961
-37.7544	486.597	27.5156
-37.7547	471.199	27.5352
-37.7526	488.246	27.5547
-37.75	493.605	27.5742
-37.7486	468.374	27.59375
-37.7469	483.816	27.6133
-37.7453	494.386	27.6328
-37.7433	475.348	27.6523
-37.74131	478.246	27.6719
-37.7415	497.112	27.6914
-37.73875	475.647	27.7109
-37.7378	475.854	27.7305
-37.7357	492.153	27.75
-37.7344	482.776	27.7695
-37.7328	471.761	27.7891
-37.7306	491.8165	27.8086
-37.73	484.208	27.8281
-37.7274	471.659	27.8477
-37.7267	487.205	27.8672
-37.7249	490.869	27.8867
-37.723	474.421	27.90625
-37.72192	482.62	27.9258
-37.7192	490.563	27.9453
-37.7183	474.802	27.9648
-37.71648	477.62	27.9844
-37.7138	493.014	28.0039
-37.7128	479.176	28.0234
-37.7108	473.5134	28.043
-37.71032	493.095	28.0625
-37.7077	482.768	28.082
-37.7064	471.256	28.1016
-37.7055	488.275	28.1211
-37.7032	488.373	28.1406
-37.7034	468.945	28.1602
-37.7015	486.455	28.1797
-37.6985	489.57	28.1992
-37.6971	472.0228	28.21875
-37.6946	483.875	28.2383
-37.6942	496.022	28.2578
-37.691	471.762	28.2773
-37.6898	477.096	28.2969
-37.6892	493.551	28.3164
-37.6878	478.853	28.3359
-37.68544	474.545	28.3555
-37.68446	493.079	28.375
-37.6826	479.505	28.3945
-37.68195	472.768	28.4141
-37.6787	490.188	28.4336
-37.6773	485.9144	28.4531
-37.6761	470.128	28.4727
-37.674	486.559	28.4922
-37.673	487.817	28.5117
-37.671	471.818	28.53125
-37.6694	481.302	28.5508
-37.6685	491.705	28.5703
-37.6664	474.127	28.5898
-37.6645	476.7869	28.6094
-37.6619	491.641	28.6289
-37.6605	476.785	28.6484
-37.66021	472.915	28.668
-37.6565	492.523	28.6875
-37.6563	482.571	28.707
-37.65353	467.659	28.7266
-37.6524	488.666	28.7461
-37.6507	486.501	28.7656
-37.6496	469.3161	28.7852
-37.6466	486.321	28.8047
-37.6463	491.1514	28.8242
-37.6458	469.193	28.84375
-37.6434	483.06	28.8633
-37.6412	491.755	28.8828
-37.6399	473.227	28.9023
-37.638	477.986	28.9219
-37.6369	495.152	28.9414
-37.6352	474.574	28.9609
-37.6323	475.544	28.9805
-37.63092	491.365	29
-37.6313	481.4296	29.0195
-37.6292	471.818	29.0391
-37.62743	490.1983	29.0586
-37.6252	483.0405	29.0781
-37.623	469.084	29.0977
-37.6221	485.839	29.1172
-37.6196	489.246	29.1367
-37.6187	469.724	29.15625
-37.6177	480.951	29.1758
-37.6145	489.345	29.1953
-37.6133	474.7326	29.2148
-37.6123	474.956	29.2344
-37.61031	490.863	29.2539
-37.6081	477.781	29.2734
-37.6069	472.69	29.293
-37.6048	491.019	29.3125
-37.6044	480.496	29.332
-37.6027	469.0726	29.3516
-37.6008	488.135	29.3711
-37.5982	486.528	29.3906
-37.5975	466.739	29.4102
-37.596	485.572	29.4297
-37.5937	488.3	29.4492
-37.5925	470.039	29.46875
-37.5906	481.815	29.4883
-37.5892	493.428	29.5078
-37.5886	470.4238	29.5273
-37.587	476.113	29.5469
-37.5839	492.813	29.5664
-37.5828	475.626	29.5859
-37.5816	472.914	29.6055
-37.5801	492.08	29.625
-37.5797	479.407	29.6445
-37.5763	472.649	29.6641
-37.5739	487.1398	29.6836
-37.5721	484.345	29.7031
-37.5728	468.625	29.7227
-37.5703	485.777	29.7422
-37.5676	486.193	29.7617
-37.5668	470.564	29.78125
-37.5651	480.2475	29.8008
-37.5622	491.2002	29.8203
-37.5627	472.9231	29.8398
-37.5605	475.638	29.8594
-37.5587	489.8013	29.8789
-37.5577	477.788	29.8984
-37.5552	470.506	29.918
-37.5534	489.448	29.9375
-37.5514	481.703	29.957
-37.5504	468.6059	29.9766
-37.5492	487.762	29.9961
-37.5475	484.433	30.0156
-37.5453	468.4566	30.0352
-37.5446	485.116	30.0547
-37.5426	490.979	30.0742
-37.5409	469.347	30.09375
-37.5404	479.646	30.1133
-37.53846	490.159	30.1328
-37.5368	473.147	30.1523
-37.5333	476.414	30.1719
-37.53286	492.9	30.1914
-37.5325	473.477	30.2109
-37.52887	472.95	30.2305
-37.5281	489.676	30.25
-37.5255	480.398	30.2695
-37.5242	470.223	30.2891
-37.5226	489.428	30.3086
-37.5211	483.076	30.3281
-37.5193	470.205	30.3477
-37.5191	482.302	30.3672
-37.51569	488.184	30.3867
-37.51487	470.808	30.40625
-37.5129	481.766	30.4258
-37.512	488.375	30.4453
-37.5096	472.242	30.4648
-37.5074	475.679	30.4844
-37.5074	491.565	30.5039
-37.5043	476.936	30.5234
-37.5027	471.422	30.543
-37.5029	488.368	30.5625
-37.4997	481.7222	30.582
-37.4978	469.7442	30.6016
-37.4965	488.246	30.6211
-37.4947	485.158	30.6406
-37.4945	467.002	30.6602
-37.4918	484.605	30.6797
-37.49118	488.323	30.6992
-37.4884	468.357	30.71875
-37.4875	479.172	30.7383
-37.4849	493.345	30.7578
-37.4826	470.338	30.7773
-37.4812	476.544	30.7969
-37.4814	490.137	30.8164
-37.4798	475.883	30.8359
-37.4783	472.653	30.8555
-37.4762	491.596	30.875
-37.4734	475.7572	30.8945
-37.4734	469.663	30.9141
-37.4704	485.66	30.9336
-37.4687	484.366	30.9531
-37.4686	468.1	30.9727
-37.4654	483.652	30.9922
-37.4637	484.987	31.0117
-37.4632	470.463	31.03125
-37.4618	479.884	31.0508
-37.4596	489.09	31.0703
-37.4576	472.036	31.0898
-37.4555	475.207	31.1094
-37.4547	488.46	31.1289
-37.4513	475.541	31.1484
-37.4503	471.25	31.168
-37.4492	489.914	31.1875
-37.44733	480.28	31.207
-37.44651	468.848	31.2266
-37.4443	484.843	31.2461
-37.444	483.055	31.2656
-37.4419	467.908	31.2852
-37.4405	482.8327	31.3047
-37.4377	487.74	31.3242
-37.4367	466.338	31.34375
-37.4347	479.297	31.3633
-37.4333	491.192	31.3828
-37.4312	471.474	31.4023
-37.43	473.22	31.4219
-37.4281	491.43	31.4414
-37.4272	473.267	31.4609
-37.425	471.758	31.4805
-37.4232	488.382	31.5
-37.4227	479.204	31.5195
-37.4208	469.466	31.5391
-37.4187	488.445	31.5586
-37.4167	479.697	31.5781
-37.4155	468.506	31.5977
-37.4128	482.6167	31.6172
-37.4114	488.527	31.6367
-37.4109	469.228	31.65625
-37.409	478.513	31.6758
-37.408	486.639	31.6953
-37.4053	472.102	31.7148
-37.4038	473.95	31.7344
-37.402	490.091	31.7539
-37.4006	475.0025	31.7734
-37.3997	470.642	31.793
-37.3978	487.826	31.8125
-37.3955	480.106	31.832
-37.3942	466.086	31.8516
-37.3935	485.995	31.8711
-37.3907	485.1	31.8906
-37.3895	467.661	31.9102
-37.3878	481.276	31.9297
-37.3857	486.9122	31.9492
-37.3847	468.537	31.96875
-37.382	477.944	31.9883
-37.3819	490.341	32.0078
-37.3795	468.073	32.0273
-37.3787	473.45	32.0469
-37.3751	490.796	32.0664
-37.3741	475.177	32.0859
-37.3731	468.663	32.1055
-37.3714	489.29	32.125
-37.371	477.106	32.1445
-37.3679	469.461	32.1641
-37.3666	485.341	32.1836
-37.3656	482.4776	32.2031
-37.3633	467.029	32.2227
-37.3622	485.577	32.2422
-37.3607	484.085	32.2617
-37.35759	469.954	32.28125
-37.3571	476.1236	32.3008
-37.3553	488.442	32.3203
-37.3541	470.179	32.3398
-37.3518	474.528	32.3594
-37.3497	485.244	32.3789
-37.3495	475.163	32.3984
-37.3478	469.033	32.418
-37.3456	488.543	32.4375
-37.3442	478.358	32.457
-37.342	465.236	32.4766
-37.34	483.938	32.4961
-37.33926	482.886	32.5156
-37.3377	464.422	32.5352
-37.3361	479.849	32.5547
-37.3333	486.412	32.5742
-37.3328	466.4	32.59375
-37.3312	477.027	32.6133
-37.33028	486.853	32.6328
-37.3281	469.2243	32.6523
-37.3264	472.944	32.6719
-37.3233	491.286	32.6914
-37.3235	470.8324	32.7109
-37.3205	469.8606	32.7305
-37.3192	487.523	32.75
-37.3176	479.4939	32.7695
-37.3162	466.84	32.7891
-37.3141	486.69	32.8086
-37.3131	479.932	32.8281
-37.3107	467.959	32.8477
-37.3096	480.662	32.8672
-37.3085	484.784	32.8867
-37.3064	466.8183	32.90625
-37.3057	478.3345	32.9258
-37.3031	486.064	32.9453
-37.3023	471.178	32.9648
-37.299	470.219	32.9844
-37.2981	489.004	33.0039
-37.2963	473.877	33.0234
-37.2955	468.249	33.043
-37.293	484.007	33.0625
-37.2921	477.298	33.082
-37.2901	466.334	33.1016
-37.2887	483.191	33.1211
-37.2873	482.899	33.1406
-37.2859	464.662	33.1602
-37.2839	480.125	33.1797
-37.2812	486.47	33.1992
-37.28	466.728	33.21875
-37.2787	475.473	33.2383
-37.2764	489.73	33.2578
-37.2756	469.452	33.2773
-37.2729	471.27	33.2969
-37.27124	488.303	33.3164
-37.2696	472.78	33.3359
-37.2697	469.217	33.3555
-37.2672	489.9968	33.375
-37.2667	475.211	33.3945
-37.2645	466.28	33.4141
-37.2613	483.467	33.4336
-37.26	481.164	33.4531
-37.2591	464.951	33.4727
-37.25819	482.272	33.4922
-37.2565	480.698	33.5117
-37.2529	468.115	33.53125
-37.2525	475.457	33.5508
-37.2505	487.656	33.5703
-37.2505	468.173	33.5898
-37.2466	472.97	33.6094
-37.247	486.371	33.6289
-37.2439	474.111	33.6484
-37.242	466.666	33.668
-37.2404	486.601	33.6875
-37.2394	478.438	33.707
-37.237	466.1272	33.7266
-37.2357	481.582	33.7461
-37.2357	480.291	33.7656
-37.2326	466.186	33.7852
-37.2318	480.005	33.8047
-37.23003	484.54	33.8242
-37.2292	464.18	33.84375
-37.22641	474.305	33.8633
-37.2238	487.335	33.8828
-37.2243	468.278	33.9023
-37.2214	471.679	33.9219
-37.2201	487.487	33.9414
-37.2185	469.238	33.9609
-37.2166	470.446	33.9805
-37.215	487.461	34
-37.2131	477.662	34.0195
-37.2119	464.37	34.0391
-37.20998	486.397	34.0586
-37.2082	478.66	34.0781
-37.2071	466.132	34.0977
-37.2042	479.823	34.1172
-37.2044	485.209	34.1367
-37.2021	466.6004	34.15625
-37.2007	478.055	34.1758
-37.1993	482.532	34.1953
-37.1975	469.101	34.2148
-37.19577	472.147	34.2344
-37.1939	488.47	34.2539
-37.1933	471.278	34.2734
-37.1916	469.727	34.293
-37.1891	484.5025	34.3125
-37.1872	477.404	34.332
-37.1859	464.646	34.3516
-37.18343	481.741	34.3711
-37.1827	480.147	34.3906
-37.1805	464.6532	34.4102
-37.1799	478.7254	34.4297
-37.178	483.0766	34.4492
-37.17622	464.217	34.46875
-37.1751	476.135	34.4883
-37.1725	487.921	34.5078
-37.1711	466.017	34.5273
-37.1697	469.639	34.5469
-37.1682	487.066	34.5664
-37.1665	469.13	34.5859
-37.1653	468.131	34.6055
-37.1636	487.026	34.625
-37.1617	472.398	34.6445
-37.1594	466.987	34.6641
-37.1579	483.7016	34.6836
-37.1569	479.259	34.7031
-37.1554	462.9068	34.7227
-37.1534	481.478	34.7422
-37.1513	480.018	34.7617
-37.1494	466.031	34.78125
-37.1484	474.446	34.8008
-37.1483	485.0051	34.8203
-37.145	466.64	34.8398
-37.1441	472.353	34.8594
-37.1419	483.939	34.8789
-37.1404	472.828	34.8984
-37.1387	465.732	34.918
-37.1365	487.224	34.9375
-37.1346	475.321	34.957
-37.1347	464.918	34.9766
-37.1315	482.083	34.9961
-37.1304	481.392	35.0156
-37.1296	463.496	35.0352
-37.1272	479.973	35.0547
-37.1254	481.973	35.0742
-37.1248	464.477	35.09375
-37.1224	476.866	35.1133
-37.1211	486.684	35.1328
-37.1192	466.24	35.1523
-37.1178	471.595	35.1719
-37.1164	489.127	35.1914
-37.11401	469.104	35.2109
-37.1123	465.524	35.2305
-37.1115	484.8223	35.25
-37.1102	475.347	35.2695
-37.1093	463.958	35.2891
-37.107	485.876	35.3086
-37.1058	476.364	35.3281
-37.1027	465.585	35.3477
-37.1014	478.707	35.3672
-37.1005	481.487	35.3867
-37.0981	462.569	35.40625
-37.0967	476.548	35.4258
-37.0946	482.567	35.4453
-37.0933	468.398	35.4648
-37.0919	470.637	35.4844
-37.0909	486.154	35.5039
-37.0881	469.606	35.5234
-37.0868	469.427	35.543
-37.0853	481.718	35.5625
-37.0837	474.617	35.582
-37.0824	464.186	35.6016
-37.0799	483.126	35.6211
-37.0784	479.31	35.6406
-37.07745	461.735	35.6602
-37.0746	474.594	35.6797
-37.0743	482.874	35.6992
-37.0716	464.537	35.71875
-37.0704	474.266	35.7383
-37.0682	486.596	35.7578
-37.0669	465.8	35.7773
-37.06562	470.084	35.7969
-37.06369	486.946	35.8164
-37.0617	469.585	35.8359
-37.0605	465.359	35.8555
-37.0603	487.497	35.875
-37.057	474.346	35.8945
-37.0565	463.517	35.9141
-37.0541	482.406	35.9336
-37.0527	478.088	35.9531
-37.0499	462.506	35.9727
-37.0495	481.924	35.9922
-37.0473	479.446	36.0117
-37.047	464.209	36.03125
-37.04425	475.1698	36.0508
-37.0414	485.508	36.0703
-37.0412	465.814	36.0898
-37.0401	472.076	36.1094
-37.0379	483.192	36.1289
-37.0358	470.292	36.1484
-37.0352	466.16	36.168
-37.0337	484.454	36.1875
-37.0319	475.287	36.207
-37.0302	466.637	36.2266
-37.0278	480.049	36.2461
-37.0258	479.002	36.2656
-37.0243	461.933	36.2852
-37.0232	479.363	36.3047
-37.0211	482.69	36.3242
-37.0194	463.405	36.34375
-37.01865	472.032	36.3633
-37.016	483.939	36.3828
-37.0158	465.285	36.4023
-37.01199	469.924	36.4219
-37.0119	486.024	36.4414
-37.0101	467.491	36.4609
-37.0085	466.248	36.4805
-37.00729	485.771	36.5
-37.0051	472.633	36.5195
-37.0032	463.721	36.5391
-37.0028	484.228	36.5586
-37.0017	475.918	36.5781
-36.9985	462.675	36.5977
-36.9968	478.49	36.6172
-36.9961	481.56	36.6367
-36.993	463.5329	36.65625
-36.9908	477.6723	36.6758
-36.99	481.845	36.6953
-36.988	465.593	36.7148
-36.98724	469.2099	36.7344
-36.9852	486.0806	36.7539
-36.9829	468.377	36.7734
-36.9824	466.979	36.793
-36.9798	479.766	36.8125
-36.9793	474.167	36.832
-36.9769	463.265	36.8516
-36.9768	481.8	36.8711
-36.9753	477.272	36.8906
-36.9729	463.934	36.9102
-36.9707	476.7424	36.9297
-36.9702	482.146	36.9492
-36.9667	460.649	36.96875
-36.9656	473.3624	36.9883
-36.9653	485.412	37.0078
-36.9635	464.982	37.0273
-36.9609	466.65	37.0469
-36.9604	484.428	37.0664
-36.9583	467.984	37.0859
-36.9572	466.583	37.1055
-36.955	484.961	37.125
-36.9531	470.443	37.1445
-36.9521	461.604	37.1641
-36.9509	482.072	37.1836
-36.9476	476.407	37.2031
-36.9472	460.554	37.2227
-36.9445	479.443	37.2422
-36.9429	477.471	37.2617
-36.9417	462.452	37.28125
-36.9406	472.62	37.3008
-36.9392	482.976	37.3203
-36.9357	463.743	37.3398
-36.9349	472.987	37.3594
-36.9335	481.962	37.3789
-36.933	469.807	37.3984
-36.9306	463.973	37.418
-36.9276	484.713	37.4375
-36.9272	472.661	37.457
-36.9262	462.796	37.4766
-36.9235	479.321	37.4961
-36.9218	477.534	37.5156
-36.92	460.0668	37.5352
-36.919	477.541	37.5547
-36.9183	480.66	37.5742
-36.9162	461.8623	37.59375
-36.9143	471.443	37.6133
-36.9119	483.04	37.6328
-36.9105	461.481	37.6523
-36.9092	467.803	37.6719
-36.9081	484.236	37.6914
-36.90675	466.065	37.7109
-36.9051	462.019	37.7305
-36.9036	482.929	37.75
-36.901	469.271	37.7695
-36.8995	460.038	37.7891
-36.8975	482.218	37.8086
-36.8964	472.462	37.8281
-36.8943	459.314	37.8477
-36.8921	478.1557	37.8672
-36.8899	478.822	37.8867
-36.8902	459.825	37.90625
-36.888	472.969	37.9258
-36.8874	478.9075	37.9453
-36.885	462.894	37.9648
-36.883	466.965	37.9844
-36.8822	481.064	38.0039
-36.8791	465.769	38.0234
-36.8781	466.355	38.043
-36.8775	479.13	38.0625
-36.8758	470.223	38.082
-36.8732	459.635	38.1016
-36.8727	479.185	38.1211
-36.8694	474.802	38.1406
-36.8683	460.91	38.1602
-36.8672	472.182	38.1797
-36.8659	477.648	38.1992
-36.8635	458.427	38.21875
-36.8611	472.748	38.2383
-36.86047	480.262	38.2578
-36.8596	461.175	38.2773
-36.8569	466.455	38.2969
-36.8544	482.909	38.3164
-36.8537	463.087	38.3359
-36.8526	461.701	38.3555
-36.8499	481.7645	38.375
-36.8506	468.279	38.3945
-36.8475	459.297	38.4141
-36.8462	478.899	38.4336
-36.843	472.122	38.4531
-36.8414	456.8287	38.4727
-36.8411	476.357	38.4922
-36.84016	474.1463	38.5117
-36.8379	457.576	38.53125
-36.8359	471.124	38.5508
-36.8348	479.576	38.5703
-36.8325	460.3176	38.5898
-36.8318	466.443	38.6094
-36.83041	477.079	38.6289
-36.8277	464.825	38.6484
-36.8262	462.895	38.668
-36.8245	480.272	38.6875
-36.8228	466.845	38.707
-36.8211	460.005	38.7266
-36.8193	475.632	38.7461
-36.8182	473.556	38.7656
-36.8169	455.299	38.7852
-36.8161	473.879	38.8047
-36.8136	476.754	38.8242
-36.8112	458.538	38.84375
-36.8101	466.021	38.8633
-36.8088	477.764	38.8828
-36.8066	459.582	38.9023
-36.8057	466.745	38.9219
-36.8045	478.493	38.9414
-36.8018	461.244	38.9609
-36.7996	458.91	38.9805
-36.7983	478.145	39
-36.7975	465.157	39.0195
-36.7954	455.2868	39.0391
-36.794	476.031	39.0586
-36.7928	469.202	39.0781
-36.79044	454.264	39.0977
-36.7892	472.16	39.1172
-36.7878	471.959	39.1367
-36.7861	454.09	39.15625
-36.7839	469.341	39.1758
-36.78236	473.399	39.1953
-36.7817	456.87	39.2148
-36.7791	463.063	39.2344
-36.7773	477.537	39.2539
-36.7749	461.569	39.2734
-36.7745	461.5639	39.293
-36.7724	473.133	39.3125
-36.7721	464.942	39.332
-36.76894	454.323	39.3516
-36.7677	475.275	39.3711
-36.7655	467.092	39.3906
-36.765	455.286	39.4102
-36.7634	466.367	39.4297
-36.7606	471.0954	39.4492
-36.759	452.309	39.46875
-36.7586	464.9353	39.4883
-36.7562	472.796	39.5078
-36.7548	455.557	39.5273
-36.7534	457.317	39.5469
-36.7512	472.854	39.5664
-36.7494	456.742	39.5859
-36.7491	455.994	39.6055
-36.7457	475.093	39.625
-36.7442	459.265	39.6445
-36.7435	449.6	39.6641
-36.7419	470.803	39.6836
-36.7406	465.292	39.7031
-36.7384	448.823	39.7227
-36.7374	466.809	39.7422
-36.73521	464.675	39.7617
-36.7323	450.029	39.78125
-36.7324	462.553	39.8008
-36.7313	468.207	39.8203
-36.7296	450.315	39.8398
-36.72731	458.739	39.8594
-36.7256	467.773	39.8789
-36.7237	453.128	39.8984
-36.7229	450.69	39.918
-36.72	468.948	39.9375
-36.7198	455.707	39.957
-36.717	450.412	39.9766
-36.7147	462.49	39.9961
-36.7149	460.952	40.0156
-36.7129	450.016	40.0254

Data Header:			0.254_hd_uprint_typeiv_4545_r0			Time:	42.0249	s	4/13/2019 7:14:28 PM
Data Acquisition:	Timed
Station Name:	ft40.cfg
Test File Name:	monotonic_0.2540_typeiv_hd_4545_uprint.tst
Displacement	Force	Running Time
mm	N	s
-36.7132	445.564	40.0352
-36.71117	451.093	40.0449
-36.7108	464.334	40.0547
-36.7095	465.794	40.0645
-36.70969	461.703	40.0742
-36.70924	451.884	40.084
-36.7073	443.391	40.09375
-36.7074	445.467	40.1035
-36.7063	452.3624	40.1133
-36.7057	460.595	40.123
-36.7035	463.543	40.1328
-36.7028	452.296	40.1426
-36.7036	441.524	40.1523
-36.7034	439.24	40.1621
-36.7015	448.117	40.1719
-36.6996	457.707	40.1816
-36.6997	460.949	40.1914
-36.6992	450.609	40.2012
-36.6969	150.397	40.2109
-36.695	-48.1597	40.2207
-36.6931	-41.4109	40.2305
-36.6932	-39.2751	40.2402
-36.6922	-30.2524	40.25
-36.6921	-30.759	40.2598
-36.6919	-46.7532	40.2695
-36.6915	-51.8924	40.2793
-36.6888	-50.7213	40.2891
-36.6894	-40.6916	40.2988
-36.6893	-31.6029	40.3086
-36.6874	-33.95042	40.3184
-36.6874	-41.2024	40.3281
-36.6865	-48.2069	40.3379
-36.6859	-53.45	40.3477
-36.6848	-42.7387	40.3574
-36.6843	-34.1784	40.3672
-36.6836	-28.9006	40.377
-36.683	-35.3953	40.3867
-36.6821	-48.8723	40.3965
-36.6821	-50.8663	40.40625
-36.68124	-44.94503	40.416
-36.6792	-35.9134	40.4258
-36.678	-31.5075	40.4355
-36.6778	-36.7643	40.4453
-36.6764	-42.3782	40.4551
-36.67532	-49.91029	40.4648
-36.67667	-49.4617	40.4746
-36.674	-41.2839	40.4844
-36.6744	-32.186	40.4941
-36.6721	-31.2142	40.5039
-36.673	-42.252	40.5137
-36.6717	-49.7119	40.5234
-36.6705	-49.2318	40.5332
-36.6706	-41.6325	40.543
-36.6696	-35.4007	40.5527
-36.6691	-33.07922	40.5625
-36.6681	-36.803	40.5723
-36.6663	-42.7699	40.582
-36.6661	-49.7719	40.5918
-36.66478	-51.544	40.6016
-36.6638	-40.07	40.6113
-36.6632	-31.5536	40.6211
-36.6626	-34.5456	40.6309
-36.6621	-40.83559	40.6406
-36.6611	-50.4643	40.6504
-36.66021	-48.4104	40.6602
-36.6596	-44.0325	40.6699
-36.6579	-37.8462	40.6797
-36.658	-32.3608	40.6895
-36.6567	-37.67712	40.6992
-36.6564	-46.209	40.709
-36.6547	-51.0132	40.71875
-36.6557	-48.0283	40.7285
-36.65374	-34.6192	40.7383
-36.6523	-32.7537	40.748
-36.6517	-34.9797	40.7578
-36.6523	-44.2028	40.7676
-36.6514	-50.5436	40.7773
-36.65	-49.1121	40.7871
-36.648	-43.2158	40.7969
-36.6478	-34.3475	40.8066
-36.6478	-31.2354	40.8164
-36.646	-39.1135	40.8262
-36.6456	-48.9493	40.8359
-36.645	-53.2331	40.8457
-36.6447	-44.4753	40.8555
-36.6431	-34.03912	40.8652
-36.6413	-31.47044	40.875
-36.6418	-37.8058	40.8848
-36.6406	-45.642	40.8945
-36.6402	-53.3495	40.9043
-36.6392	-49.1664	40.9141
-36.63932	-38.3726	40.9238
-36.638	-32.22887	40.9336
-36.6366	-32.144	40.9434
-36.63625	-44.34425	40.9531
-36.6349	-52.4966	40.9629
-36.6338	-50.2369	40.9727
-36.6341	-40.2578	40.9824
-36.6322	-32.92168	40.9922
-36.631	-33.8968	41.002
-36.63105	-40.7129	41.0117
-36.63023	-46.2324	41.0215
-36.6296	-52.8417	41.03125
-36.6289	-45.3601	41.041
-36.6275	-36.318	41.0508
-36.6272	-29.9499	41.0605
-36.628	-35.5234	41.0703
-36.6248	-46.75174	41.0801
-36.6246	-50.6618	41.0898
-36.6242	-47.3641	41.0996
-36.6223	-37.9983	41.1094
-36.6213	-34.5336	41.1191
-36.6212	-34.4508	41.1289
-36.62006	-40.2815	41.1387
-36.6193	-47.8092	41.1484
-36.6181	-49.1779	41.1582
-36.6177	-45.3956	41.168
-36.6169	-35.8691	41.1777
-36.61599	-31.1674	41.1875
-36.6157	-39.0677	41.1973
-36.6148	-47.3391	41.207
-36.6129	-49.6356	41.2168
-36.6131	-45.5904	41.2266
-36.6122	-41.0106	41.2363
-36.6109	-34.3421	41.2461
-36.6101	-35.6589	41.2559
-36.6099	-39.8705	41.2656
-36.6085	-50.4189	41.2754
-36.6086	-50.9122	41.2852
-36.6084	-41.20314	41.2949
-36.6073	-35.2473	41.3047
-36.605	-34.7224	41.3145
-36.6059	-36.891	41.3242
-36.6038	-49.3648	41.334
-36.6029	-49.6689	41.34375
-36.6036	-46.97298	41.3535
-36.6003	-39.5363	41.3633
-36.60001	-32.6767	41.373
-36.5998	-35.0462	41.3828
-36.5986	-42.73394	41.3926
-36.5981	-52.25808	41.4023
-36.5972	-51.9351	41.4121
-36.597	-39.8221	41.4219
-36.59581	-34.60569	41.4316
-36.5953	-31.7925	41.4414
-36.5958	-41.0676	41.4512
-36.5942	-48.65625	41.4609
-36.5932	-50.4709	41.4707
-36.5904	-47.85133	41.4805
-36.5906	-36.4418	41.4902
-36.591	-30.2152	41.5
-36.5894	-37.0564	41.5098
-36.5882	-47.0805	41.5195
-36.5883	-53.8922	41.5293
-36.587	-46.658	41.5391
-36.5847	-35.99139	41.5488
-36.5852	-33.6323	41.5586
-36.5842	-35.3398	41.5684
-36.5838	-43.6966	41.5781
-36.5828	-49.6505	41.5879
-36.5822	-51.3922	41.5977
-36.5807	-42.4384	41.6074
-36.57983	-33.1265	41.6172
-36.5789	-30.4101	41.627
-36.5774	-39.7153	41.6367
-36.5777	-51.5199	41.6465
-36.5777	-53.2011	41.65625
-36.5757	-45.0441	41.666
-36.576	-34.41153	41.6758
-36.5743	-34.88868	41.6855
-36.5742	-36.512	41.6953
-36.5733	-43.3319	41.7051
-36.5718	-50.4925	41.7148
-36.571	-47.7622	41.7246
-36.5704	-38.9721	41.7344
-36.5688	-31.5905	41.7441
-36.5687	-33.5384	41.7539
-36.5691	-44.8793	41.7637
-36.5676	-49.5031	41.7734
-36.5663	-49.0224	41.7832
-36.5659	-41.0369	41.793
-36.5645	-35.9609	41.8027
-36.5635	-33.8284	41.8125
-36.5627	-36.4492	41.8223
-36.5627	-46.4018	41.832
-36.5609	-50.395	41.8418
-36.5609	-47.832	41.8516
-36.5594	-39.231	41.8613
-36.5591	-30.2317	41.8711
-36.5581	-36.01601	41.8809
-36.55761	-43.5377	41.8906
-36.5563	-48.8914	41.9004
-36.5563	-48.7575	41.9102
-36.55582	-40.7121	41.9199
-36.55415	-36.4446	41.9297
-36.553	-35.0664	41.9395
-36.553	-37.8056	41.9492
-36.5515	-47.4328	41.959
-36.5518	-52.7457	41.96875
-36.5517	-46.9627	41.9785
-36.5503	-36.6738	41.9883
-36.5479	-30.56419	41.998
-36.5477	-36.0609	42.0078
-36.5472	-47.3188	42.0176