File: data/processed_data_files/tensile/0.254_hd_dimension_typei_090_r(1).dat
MTS793|BTW|ENU|1|2|.|/|:|1|0|0|A

Data Header:			0.254_hd_dimension_typei_090_r0			Time:	20.0193	s	4/15/2019 3:31:24 PM
Data Acquisition:	Timed
Station Name:	ft40.cfg
Test File Name:	monotonic_0.2540_typei_hd_090_dimension.tst
Displacement	Force	Running Time
mm	N	s
9.98145	-207.132	0.0222168
9.98093	-210.459	0.041748
9.98189	-210.106	0.0612793
9.98061	-210.855	0.0808105
9.98161	-204.842	0.1003418
9.984416	-209.6611	0.119873
9.98592	-211.177	0.1394043
9.98766	-205.686	0.158936
9.98998	-205.239	0.1784668
9.990593	-214.168	0.197998
9.99342	-205.306	0.2175293
9.99454	-201.993	0.237061
9.99533	-210.329	0.2565918
9.99694	-208.657	0.276123
9.99877	-199.584	0.2956543
9.99929	-207.883	0.315186
10.0028	-205.822	0.3347168
10.0039	-198.338	0.354248
10.0051	-206.305	0.3737793
10.0072	-207.621	0.393311
10.0082	-195.523	0.4128418
10.00984	-202.2372	0.432373
10.012	-206.534	0.4519043
10.0138	-194.951	0.471436
10.0144	-200.257	0.4909668
10.0168	-204.5	0.510498
10.0191	-197.5674	0.5300293
10.0204	-195.286	0.549561
10.022	-202.672	0.5690918
10.02245	-193.8317	0.588623
10.02553	-196.33	0.6081543
10.0267	-199.584	0.627686
10.02828	-201.761	0.6472168
10.0299	-190.229	0.666748
10.03083	-196.346	0.6862793
10.0336	-197.0114	0.705811
10.03313	-192.605	0.7253418
10.0369	-192.602	0.744873
10.0378	-196.4865	0.7644043
10.0387	-189.017	0.783936
10.0413	-190.297	0.8034668
10.0412	-194.459	0.822998
10.0451	-192.178	0.8425293
10.0459	-185.087	0.862061
10.0476	-195.749	0.8815918
10.0491	-188.742	0.901123
10.0506	-183.638	0.9206543
10.0532	-191.008	0.940186
10.054	-192.947	0.9597168
10.0557	-182.758	0.979248
10.0566	-189.478	0.9987793
10.0595	-187.6163	1.01831
10.0606	-180.56	1.03784
10.0632	-187.833	1.057373
10.0634	-191.289	1.0769
10.065	-180.303	1.09644
10.06667	-181.099	1.11597
10.0689	-188.359	1.135498
10.0706	-179.475	1.15503
10.0726	-180.658	1.17456
10.0729	-186.266	1.19409
10.0749	-180.027	1.213623
10.0776	-175.165	1.23315
10.0779	-183.676	1.25269
10.0803	-177.194	1.27222
10.0823	-175.812	1.291748
10.0829	-178.8028	1.31128
10.0838	-180.631	1.33081
10.0871	-170.529	1.35034
10.0876	-173.456	1.369873
10.09	-176.8257	1.3894
10.09118	-173.671	1.40894
10.0929	-171.088	1.42847
10.0945	-178.018	1.447998
10.0958	-169.074	1.46753
10.0976	-169.698	1.48706
10.0991	-176.068	1.50659
10.102	-174.347	1.526123
10.1024	-163.157	1.54565
10.1043	-172.934	1.56519
10.1066	-170.019	1.58472
10.10773	-162.63	1.604248
10.1092	-168.87	1.62378
10.1101	-171.813	1.64331
10.113	-160.294	1.66284
10.1143	-167.594	1.682373
10.1165	-168.009	1.7019
10.117	-158.17	1.72144
10.1196	-161.746	1.74097
10.1198	-168.781	1.760498
10.1221	-158.089	1.78003
10.12411	-157.969	1.79956
10.126	-164.95	1.81909
10.1274	-158.463	1.838623
10.1291	-157.884	1.85815
10.1303	-162.168	1.87769
10.1318	-158.326	1.89722
10.1341	-152.195	1.916748
10.1358	-159.4688	1.93628
10.1364	-156.725	1.95581
10.1391	-151.973	1.97534
10.1397	-152.498	1.994873
10.1413	-159.887	2.0144
10.1437	-145.676	2.03394
10.145	-149.357	2.05347
10.1459	-153.048	2.072998
10.149	-150.77	2.09253
10.14962	-143.735	2.11206
10.1517	-153.134	2.13159
10.1531	-145.652	2.151123
10.15477	-141.1111	2.17065
10.156	-149.14	2.19019
10.1586	-148.631	2.20972
10.1604	-138.1741	2.229248
10.1604	-145.809	2.24878
10.1637	-145.4799	2.26831
10.1649	-137.715	2.28784
10.1667	-142.397	2.307373
10.1673	-145.691	2.3269
10.169	-135.002	2.34644
10.1716	-138.4971	2.36597
10.17186	-143.586	2.385498
10.1751	-133.333	2.40503
10.1763	-134.656	2.42456
10.1771	-142.551	2.44409
10.1798	-135.443	2.463623
10.1813	-128.983	2.48315
10.1824	-137.116	2.50269
10.1846	-132.589	2.52222
10.1853	-129.399	2.541748
10.1883	-133.128	2.56128
10.1883	-134.148	2.58081
10.1901	-123.131	2.60034
10.1927	-129.456	2.619873
10.1941	-129.677	2.6394
10.19638	-127.28	2.65894
10.1976	-120.317	2.67847
10.1983	-131.324	2.697998
10.2	-122.498	2.71753
10.2019	-121.3	2.73706
10.204	-124.289	2.75659
10.2056	-124.158	2.776123
10.2074	-116.346	2.79565
10.2086	-125.181	2.81519
10.2103	-120.734	2.83472
10.2119	-112.602	2.854248
10.2136	-119.96	2.87378
10.21432	-122.134	2.89331
10.21548	-110.88	2.91284
10.2181	-113.2652	2.932373
10.2194	-119.548	2.9519
10.2206	-110.452	2.97144
10.2226	-111.921	2.99097
10.2249	-117.542	3.010498
10.2269	-107.446	3.03003
10.2285	-107.206	3.04956
10.23045	-113.8502	3.06909
10.2311	-106.089	3.088623
10.2324	-101.918	3.10815
10.2351	-109.382	3.12769
10.2363	-108.622	3.14722
10.2379	-99.7496	3.166748
10.2397	-105.83	3.18628
10.2412	-103.909	3.20581
10.2432	-101.577	3.22534
10.2447	-101.604	3.244873
10.2468	-105.652	3.2644
10.2472	-93.3343	3.28394
10.249	-95.2592	3.30347
10.2505	-100.663	3.322998
10.2519	-97.9872	3.34253
10.25406	-90.4039	3.36206
10.2552	-98.0064	3.38159
10.2573	-94.0772	3.401123
10.25948	-89.6084	3.42065
10.2611	-94.4127	3.44019
10.263	-94.2782	3.45972
10.2632	-83.1689	3.479248
10.2646	-92.1385	3.49878
10.2674	-91.2589	3.51831
10.2686	-82.1583	3.53784
10.2705	-85.4642	3.557373
10.2717	-92.1587	3.5769
10.2732	-79.6467	3.59644
10.2749	-81.2011	3.61597
10.27715	-87.7385	3.635498
10.2784	-79.9379	3.65503
10.2796	-78.8969	3.67456
10.2816	-87.5052	3.69409
10.2838	-77.996	3.713623
10.2861	-72.9612	3.73315
10.2864	-82.1147	3.75269
10.2886	-77.94809	3.77222
10.2904	-71.6699	3.791748
10.2913	-76.1017	3.81128
10.2937	-78.2737	3.83081
10.2966	-67.7481	3.85034
10.296	-71.6455	3.869873
10.2982	-72.2615	3.8894
10.3	-68.4184	3.90894
10.3017	-67.3287	3.92847
10.30234	-73.7106	3.947998
10.3055	-64.0005	3.96753
10.3055	-62.49622	3.98706
10.3077	-68.5526	4.00659
10.3104	-68.824	4.026123
10.3101	-56.39753	4.04565
10.3118	-65.986	4.06519
10.3139	-60.6857	4.08472
10.31615	-55.396	4.104248
10.3178	-63.12854	4.12378
10.3191	-64.7905	4.14331
10.3211	-51.3064	4.16284
10.3227	-57.8414	4.182373
10.3251	-60.5782	4.2019
10.3268	-50.8478	4.22144
10.3273	-51.9662	4.24097
10.3286	-60.3255	4.260498
10.3307	-49.8521	4.28003
10.3316	-46.48489	4.29956
10.334	-53.8895	4.31909
10.3364	-45.7633	4.338623
10.3375	-45.3689	4.35815
10.3379	-51.912	4.37769
10.3409	-46.1684	4.39722
10.3417	-37.8787	4.416748
10.3427	-46.0321	4.43628
10.3451	-45.0892	4.45581
10.3473	-41.1526	4.47534
10.3494	-42.5089	4.494873
10.3497	-45.2423	4.5144
10.3531	-35.4917	4.53394
10.3535	-38.6517	4.55347
10.3541	-40.3981	4.572998
10.3569	-35.6071	4.59253
10.3592	-31.7674	4.61206
10.3602	-40.76421	4.63159
10.3618	-33.3349	4.651123
10.3633	-28.38649	4.67065
10.3649	-33.1693	4.69019
10.36613	-35.5878	4.70972
10.3683	-24.4781	4.729248
10.3699	-31.42598	4.74878
10.3721	-30.6354	4.76831
10.3738	-22.7353	4.78784
10.3743	-26.5577	4.807373
10.3773	-33.5755	4.8269
10.378	-18.7828	4.84644
10.379	-23.55442	4.86597
10.3809	-28.3829	4.885498
10.3823	-19.2019	4.90503
10.3845	-18.0256	4.92456
10.3851	-26.04796	4.94409
10.3877	-17.7654	4.963623
10.389	-13.95375	4.98315
10.3918	-21.42536	5.00269
10.3921	-16.1288	5.02222
10.3944	-12.2726	5.041748
10.39552	-16.7503	5.06128
10.3968	-17.1063	5.08081
10.3988	-6.25146	5.10034
10.4006	-11.3657	5.119873
10.402	-13.39359	5.1394
10.4029	-8.31264	5.15894
10.4051	-9.29813	5.17847
10.4072	-12.8834	5.197998
10.4077	-3.14518	5.21753
10.4102	-4.26316	5.23706
10.4118	-8.41714	5.25659
10.4132	-6.05818	5.276123
10.4146	3.14648	5.29565
10.41664	-6.7484	5.31519
10.4181	-1.41504	5.33472
10.4202	6.2304	5.354248
10.42134	0.69406	5.37378
10.4232	-3.111119	5.39331
10.4255	8.37783	5.41284
10.4265	2.72523	5.432373
10.4275	2.67305	5.4519
10.4287	11.166	5.47144
10.4319	9.66171	5.49097
10.434	-1.36461	5.510498
10.4345	12.1038	5.53003
10.4359	12.7403	5.54956
10.4387	7.25033	5.56909
10.4385	11.2035	5.588623
10.4403	17.4408	5.60815
10.443	7.35933	5.62769
10.4443	15.4415	5.64722
10.4458	19.6247	5.666748
10.4471	13.9514	5.68628
10.4495	16.157	5.70581
10.4504	22.5149	5.72534
10.4533	17.9429	5.744873
10.4538	15.0055	5.7644
10.4562	24.161	5.78394
10.4581	24.9507	5.80347
10.4589	21.2504	5.822998
10.46052	24.6248	5.84253
10.4629	28.3256	5.86206
10.4634	22.3133	5.88159
10.4662	29.9427	5.901123
10.4674	32.3162	5.92065
10.4685	25.966	5.94019
10.4721	27.3311	5.95972
10.4722	38.4476	5.979248
10.4741	30.2032	5.99878
10.4753	29.5013	6.01831
10.4772	38.2704	6.03784
10.4782	37.6705	6.057373
10.4798	30.9369	6.0769
10.4823	42.1178	6.09644
10.48321	39.0535	6.11597
10.4848	35.8549	6.135498
10.4877	45.2439	6.15503
10.48851	45.9874	6.17456
10.4904	35.1823	6.19409
10.4914	45.0412	6.213623
10.4942	49.4472	6.23315
10.4955	42.5321	6.25269
10.4964	45.4781	6.27222
10.4979	51.4915	6.291748
10.5006	44.0502	6.31128
10.5027	47.7893	6.33081
10.5034	55.95084	6.35034
10.5052	49.6421	6.369873
10.50594	49.0358	6.3894
10.5084	56.1475	6.40894
10.5092	56.6237	6.42847
10.5109	49.2421	6.447998
10.5123	58.3802	6.46753
10.5138	59.5088	6.48706
10.5162	55.7774	6.50659
10.5174	56.8994	6.526123
10.5192	64.4315	6.54565
10.5215	56.5027	6.56519
10.523	62.3473	6.58472
10.5242	69.318	6.604248
10.5258	62.8547	6.62378
10.5273	58.064	6.64331
10.5291	71.7101	6.66284
10.53	65.3961	6.682373
10.5325	64.9107	6.7019
10.5347	73.289	6.72144
10.5358	72.1291	6.74097
10.5379	62.9654	6.760498
10.5382	76.866	6.78003
10.5408	75.5614	6.79956
10.5409	68.2828	6.81909
10.5438	75.343	6.838623
10.5457	82.0925	6.85815
10.5464	70.87529	6.87769
10.5489	75.8298	6.89722
10.5499	84.22551	6.916748
10.55181	78.9862	6.93628
10.5545	79.4095	6.95581
10.5549	84.8899	6.97534
10.558	80.4698	6.994873
10.5581	79.74955	7.0144
10.5602	88.4703	7.03394
10.5612	85.8535	7.05347
10.563	81.5525	7.072998
10.5647	89.4747	7.09253
10.567	91.0659	7.11206
10.5678	85.55304	7.13159
10.5702	89.5926	7.151123
10.5712	95.5894	7.17065
10.5732	91.5481	7.19019
10.5742	90.7198	7.20972
10.5761	102.378	7.229248
10.5785	90.9866	7.24878
10.5796	93.4175	7.26831
10.5819	103.252	7.28784
10.5831	101.31	7.307373
10.5837	93.7455	7.3269
10.5854	105.885	7.34644
10.5881	103.205	7.36597
10.5896	100.943	7.385498
10.591	107.105	7.40503
10.5927	109.525	7.42456
10.5933	97.5998	7.44409
10.596	108.327	7.463623
10.59746	112.658	7.48315
10.5997	105.1531	7.50269
10.6013	107.8545	7.52222
10.6023	117.136	7.541748
10.6047	108.7096	7.56128
10.6056	110.503	7.58081
10.6075	117.033	7.60034
10.6091	113.369	7.619873
10.611	111.936	7.6394
10.6119	118.944	7.65894
10.6142	115.831	7.67847
10.61494	113.967	7.697998
10.61676	123.011	7.71753
10.6185	125.097	7.73706
10.6208	117.404	7.75659
10.6222	120.745	7.776123
10.62325	127.518	7.79565
10.6254	120.954	7.81519
10.627	124.602	7.83472
10.628	130.116	7.854248
10.63083	128.34	7.87378
10.632	124.0265	7.89331
10.6327	136.3885	7.91284
10.6345	128.63	7.932373
10.6374	127.875	7.9519
10.6384	136.792	7.97144
10.6394	135.418	7.99097
10.6411	128.592	8.010498
10.6428	138.818	8.03003
10.6449	138.596	8.04956
10.6462	132.998	8.06909
10.6471	141.1465	8.088623
10.64981	143.643	8.10815
10.6514	132.631	8.12769
10.6535	141.775	8.14722
10.6542	146.383	8.166748
10.6567	141.265	8.18628
10.658	141.9162	8.20581
10.6597	148.953	8.22534
10.661	144.944	8.244873
10.66223	145.0766	8.2644
10.66494	151.935	8.28394
10.6655	148.6683	8.30347
10.66706	145.848	8.322998
10.6693	152.333	8.34253
10.6717	154.095	8.36206
10.672	147.63	8.38159
10.6735	153.685	8.401123
10.6752	159.835	8.42065
10.67757	154.07	8.44019
10.6788	152.516	8.45972
10.6812	161.926	8.479248
10.6825	156.819	8.49878
10.6833	158.449	8.51831
10.6852	165.835	8.53784
10.6874	161.297	8.557373
10.6891	156.264	8.5769
10.6901	169.77	8.59644
10.6915	166.599	8.61597
10.6933	161.152	8.635498
10.6947	170.256	8.65503
10.6968	173.786	8.67456
10.6982	162.7957	8.69409
10.6999	171.694	8.713623
10.7016	174.539	8.73315
10.7032	168.7572	8.75269
10.7048	173.534	8.77222
10.7066	180.398	8.791748
10.7071	169.414	8.81128
10.7101	174.386	8.83081
10.7119	180.165	8.85034
10.714	177.542	8.869873
10.7144	174.628	8.8894
10.7161	182.174	8.90894
10.7191	179.831	8.92847
10.7192	177.112	8.947998
10.7212	186.7128	8.96753
10.7227	186.087	8.98706
10.7247	180.195	9.00659
10.72589	185.093	9.026123
10.7273	190.191	9.04565
10.7291	183.779	9.06519
10.7308	187.42	9.08472
10.7323	194.173	9.104248
10.7344	190.0117	9.12378
10.7361	185.026	9.14331
10.7367	196.461	9.16284
10.7394	192.901	9.182373
10.7415	192.224	9.2019
10.7426	200.499	9.22144
10.7439	200.492	9.24097
10.7456	189.998	9.260498
10.7466	202.659	9.28003
10.74937	203.27	9.29956
10.7502	197.37	9.31909
10.7523	203.713	9.338623
10.7535	208.035	9.35815
10.7546	197.536	9.37769
10.7566	204.953	9.39722
10.7586	209.877	9.416748
10.7598	204.467	9.43628
10.7631	205.738	9.45581
10.7638	214.718	9.47534
10.7648	205.468	9.494873
10.7665	208.42	9.5144
10.7689	213.307	9.53394
10.7699	213.717	9.55347
10.7717	210.2204	9.572998
10.7727	215.216	9.59253
10.7754	215.033	9.61206
10.7762	213.604	9.63159
10.7783	219.598	9.651123
10.7793	222.103	9.67065
10.7811	215.727	9.69019
10.7824	217.293	9.70972
10.7853	225.324	9.729248
10.786	220.5567	9.74878
10.78752	220.428	9.76831
10.7894	228.101	9.78784
10.792	226.921	9.807373
10.7933	220.21	9.8269
10.7937	231.486	9.84644
10.7961	228.171	9.86597
10.7971	224.787	9.885498
10.8	234.54	9.90503
10.8013	236.905	9.92456
10.802	225.135	9.94409
10.8045	235.733	9.963623
10.8052	237.139	9.98315
10.8069	231.261	10.0027
10.8087	234.163	10.0222
10.8109	244.156	10.0417
10.8115	231.898	10.0613
10.8134	238.548	10.0808
10.81458	245.5798	10.1003
10.8181	239.641	10.1199
10.819	237.372	10.1394
10.8205	247.793	10.1589
10.8221	243.998	10.1785
10.8231	240.346	10.198
10.8248	247.914	10.2175
10.8272	250.719	10.2371
10.8287	244.824	10.2566
10.82995	248.717	10.2761
10.8324	250.558	10.2957
10.8336	246.131	10.3152
10.8355	248.862	10.3347
10.8364	258.508	10.3542
10.8379	252.457	10.3738
10.8393	250.808	10.3933
10.8417	260.878	10.4128
10.8429	256.705	10.4324
10.84549	253.608	10.4519
10.8459	263.203	10.4714
10.8482	261.67	10.491
10.84951	254.287	10.5105
10.8515	265.6217	10.53
10.8533	264.956	10.5496
10.8537	258.336	10.5691
10.8565	264.473	10.5886
10.85778	272.513	10.6082
10.858	258.833	10.6277
10.8611	266.131	10.6472
10.8637	273.314	10.6667
10.8638	268.74	10.6863
10.8657	268.633	10.7058
10.8672	277.316	10.7253
10.8693	267.404	10.7449
10.8714	269.581	10.7644
10.8719	278.795	10.7839
10.8742	278.9938	10.8035
10.875	270.404	10.823
10.8773	280.581	10.8425
10.8797	279.09	10.8621
10.88029	276.323	10.8816
10.8807	280.1008	10.9011
10.8845	284.42	10.9207
10.8858	279.973	10.9402
10.8871	282.56	10.9597
10.8882	288.4566	10.9792
10.8906	282.859	10.9988
10.8923	281.507	11.0183
10.8929	290.669	11.0378
10.8954	288.763	11.0574
10.89639	282.352	11.0769
10.8976	291.552	11.0964
10.8997	291.346	11.116
10.9018	287.512	11.1355
10.90309	293.893	11.155
10.905	298.987	11.1746
10.9058	286.539	11.1941
10.9083	298.3338	11.2136
10.9099	301.62	11.2332
10.9104	294.22	11.2527
10.9133	295.687	11.2722
10.9142	307.609	11.2917
10.9166	297.645	11.3113
10.91893	299.668	11.3308
10.9203	307.424	11.3503
10.9207	304.205	11.3699
10.922	300.889	11.3894
10.9246	311.7041	11.4089
10.9257	304.727	11.4285
10.9278	303.087	11.448
10.9291	310.603	11.4675
10.9307	313.1662	11.4871
10.933	306.359	11.5066
10.9344	312.705	11.5261
10.9358	314.381	11.5457
10.9377	311.322	11.5652
10.9395	312.761	11.5847
10.9418	320.3775	11.6042
10.9416	314.733	11.6238
10.9438	313.189	11.6433
10.94473	322.118	11.6628
10.9477	318.774	11.6824
10.9483	315.448	11.7019
10.9507	324.225	11.7214
10.9522	325.4635	11.741
10.9542	317.881	11.7605
10.9553	326.156	11.78
10.9579	328.0123	11.7996
10.9581	320.928	11.8191
10.9593	326.643	11.8386
10.9624	334.635	11.8582
10.9639	321.924	11.8777
10.9657	327.467	11.8972
10.96654	335.47	11.9167
10.9684	331.678	11.9363
10.9706	328.621	11.9558
10.9714	339.961	11.9753
10.9733	332.1622	11.9949
10.97529	332.143	12.0144
10.9761	339.666	12.0339
10.9783	339.517	12.0535
10.9791	334.649	12.073
10.9806	345.052	12.0925
10.9835	340.325	12.1121
10.9851	338.789	12.1316
10.9861	341.859	12.1511
10.9879	348.765	12.1707
10.9898	341.753	12.1902
10.9908	345.1196	12.2097
10.9934	348.944	12.2292
10.995	346.641	12.2488
10.9961	344.308	12.2683
10.9979	355.318	12.2878
10.9984	349.243	12.3074
11.0017	345.684	12.3269
11.0023	353.225	12.3464
11.0043	357.834	12.366
11.0064	347.073	12.3855
11.0072	354.943	12.405
11.0095	360.617	12.4246
11.0108	351.6803	12.4441
11.0123	357.621	12.4636
11.0133	362.801	12.4832
11.0155	355.592	12.5027
11.017	357.951	12.5222
11.0179	368.983	12.5417
11.0206	357.327	12.5613
11.022	360.642	12.5808
11.02409	368.495	12.6003
11.02564	366.57	12.6199
11.0271	361.3	12.6394
11.02936	371.165	12.6589
11.02982	367.071	12.6785
11.03249	366.473	12.698
11.0335	370.178	12.7175
11.03527	373.81	12.7371
11.03615	366.149	12.7566
11.0384	374.045	12.7761
11.0394	376.751	12.7957
11.0414	372.432	12.8152
11.043	373.388	12.8347
11.0461	382.708	12.8542
11.0479	376.353	12.8738
11.0482	375.099	12.8933
11.0496	381.288	12.9128
11.0518	380.712	12.9324
11.053	375.36	12.9519
11.0547	387.655	12.9714
11.0563	386.337	12.991
11.0573	377.453	13.0105
11.0603	386.508	13.03
11.0614	390.727	13.0496
11.0623	382.104	13.0691
11.065	386.653	13.0886
11.066	394.664	13.1082
11.0678	384.228	13.1277
11.0686	387.966	13.1472
11.0721	397.115	13.1667
11.0734	389.843	13.1863
11.07305	389.132	13.2058
11.0755	401.906	13.2253
11.07697	393.063	13.2449
11.0793	391.85	13.2644
11.0807	400.384	13.2839
11.0824	401.5036	13.3035
11.0836	395.258	13.323
11.086	405.32	13.3425
11.0864	402.399	13.3621
11.0891	398.091	13.3816
11.091	401.823	13.4011
11.0914	411.408	13.4207
11.0936	400.861	13.4402
11.0962	405.612	13.4597
11.097	410.926	13.4792
11.098	408.658	13.4988
11.1001	403.768	13.5183
11.1006	416.3	13.5378
11.1039	410.967	13.5574
11.1053	407.719	13.5769
11.1063	414.468	13.5964
11.1081	415.852	13.616
11.1099	408.105	13.6355
11.1113	418.881	13.655
11.1134	421.201	13.6746
11.1147	410.466	13.6941
11.1166	415.629	13.7136
11.1181	425.041	13.7332
11.1207	416.633	13.7527
11.1209	419.214	13.7722
11.1231	429.455	13.7917
11.12446	418.203	13.8113
11.1259	418.5274	13.8308
11.1283	430.54	13.8503
11.1302	425.285	13.8699
11.1305	420.87	13.8894
11.1327	433.737	13.9089
11.1342	429.25	13.9285
11.1358	425.043	13.948
11.1373	430.583	13.9675
11.1393	434.519	13.9871
11.14135	427.412	14.0066
11.1424	435.1774	14.0261
11.1428	436.193	14.0457
11.1457	431.74	14.0652
11.1477	433.379	14.0847
11.1488	444.845	14.1042
11.1504	435.003	14.1238
11.1529	436.746	14.1433
11.1542	442.474	14.1628
11.1558	442.001	14.1824
11.1564	436.986	14.2019
11.1587	448.148	14.2214
11.16115	443.779	14.241
11.1618	438.602	14.2605
11.1631	445.795	14.28
11.1667	449.482	14.2996
11.1664	439.765	14.3191
11.169	448.1485	14.3386
11.1701	455.853	14.3582
11.1718	444.944	14.3777
11.1733	445.496	14.3972
11.1758	456.696	14.4167
11.17661	448.922	14.4363
11.1783	449.53	14.4558
11.17976	460.827	14.4753
11.1818	454.346	14.4949
11.1835	449.713	14.5144
11.1842	462.459	14.5339
11.1865	461.768	14.5535
11.1875	453.9086	14.573
11.1903	463.45	14.5925
11.1913	461.2	14.6121
11.19284	457.183	14.6316
11.1948	462.436	14.6511
11.1969	470.278	14.6707
11.19701	459.77	14.6902
11.1994	466.435	14.7097
11.20054	470.7825	14.7292
11.2036	467.609	14.7488
11.205	462.787	14.7683
11.2062	475.15	14.7878
11.2078	471.147	14.8074
11.2089	467.271	14.8269
11.2109	473.071	14.8464
11.2125	475.845	14.866
11.2139	468.273	14.8855
11.21584	478.5054	14.905
11.21702	477.93	14.9246
11.21999	472.519	14.9441
11.2214	473.999	14.9636
11.2212	486.6817	14.9832
11.2239	473.385	15.0027
11.2253	478.14	15.0222
11.2278	487.239	15.0417
11.2289	479.984	15.0613
11.2293	477.985	15.0808
11.2326	489.224	15.1003
11.2334	481.998	15.1199
11.2357	480.5892	15.1394
11.2371	493.083	15.1589
11.2386	488.0416	15.1785
11.23904	481.185	15.198
11.2424	490.957	15.2175
11.2442	494.404	15.2371
11.24361	486.444	15.2566
11.2464	494.123	15.2761
11.2483	495.267	15.2957
11.2498	491.031	15.3152
11.2513	494.743	15.3347
11.2533	502.774	15.3542
11.2558	492.89	15.3738
11.2555	494.84	15.3933
11.2576	502.116	15.4128
11.2598	502.753	15.4324
11.2607	493.45	15.4519
11.2628	506.6452	15.4714
11.2644	504.623	15.491
11.26639	500.089	15.5105
11.2685	503.75	15.53
11.2692	510.206	15.5496
11.2704	499.047	15.5691
11.2733	508.728	15.5886
11.2745	513.918	15.6082
11.2763	504.56	15.6277
11.2768	504.093	15.6472
11.2788	516.786	15.6667
11.281	507.941	15.6863
11.28265	506.8934	15.7058
11.2837	519.744	15.7253
11.2867	515.7605	15.7449
11.2886	509.5625	15.7644
11.28775	521.496	15.7839
11.2906	519.663	15.8035
11.2928	513.021	15.823
11.2937	522.239	15.8425
11.2953	523.557	15.8621
11.2983	513.044	15.8816
11.29832	520.209	15.9011
11.30101	527.057	15.9207
11.3019	519.001	15.9402
11.3034	525.957	15.9597
11.30519	530.245	15.9792
11.3079	524.023	15.9988
11.3086	522.779	16.0183
11.3106	535.2453	16.0378
11.3116	528.246	16.0574
11.31349	525.284	16.0769
11.3145	532.394	16.0964
11.3167	536.137	16.116
11.3183	526.355	16.1355
11.3206	535.963	16.155
11.322	538.6	16.1746
11.3234	530.9303	16.1941
11.3254	533.988	16.2136
11.3267	542.075	16.2332
11.328	532.927	16.2527
11.329	538.689	16.2722
11.33059	545.426	16.2917
11.3332	537.46	16.3113
11.3355	532.819	16.3308
11.3362	547.207	16.3503
11.33804	542.317	16.3699
11.3399	540.239	16.3894
11.3418	548.214	16.4089
11.3419	544.999	16.4285
11.3442	537.474	16.448
11.3462	551.614	16.4675
11.3478	551.9834	16.4871
11.34831	542.2984	16.5066
11.3505	550.54	16.5261
11.352	554.824	16.5457
11.3542	546.347	16.5652
11.3547	549.816	16.5847
11.3579	559.722	16.6042
11.3588	552.557	16.6238
11.3602	553.19	16.6433
11.3627	558.104	16.6628
11.3648	556.07	16.6824
11.3652	551.813	16.7019
11.3681	563.412	16.7214
11.3678	561.763	16.741
11.3707	555.469	16.7605
11.3721	559.896	16.78
11.374	566.6485	16.7996
11.375	557.801	16.8191
11.3771	565.007	16.8386
11.37863	568.991	16.8582
11.38	562.4566	16.8777
11.3819	562.544	16.8972
11.3832	575.687	16.9167
11.38474	563.433	16.9363
11.3856	565.415	16.9558
11.3883	574.579	16.9753
11.3894	570.972	16.9949
11.3917	562.921	17.0144
11.3932	577.414	17.0339
11.3948	574.008	17.0535
11.3967	569.197	17.073
11.3976	577.071	17.0925
11.4003	578.316	17.1121
11.4022	567.813	17.1316
11.402	578.851	17.1511
11.4037	583.932	17.1707
11.4066	576.147	17.1902
11.408	578.846	17.2097
11.4092	584.935	17.2292
11.4111	579.451	17.2488
11.4127	579.77	17.2683
11.4156	589.705	17.2878
11.4155	581.897	17.3074
11.4174	581.422	17.3269
11.4197	587.647	17.3464
11.4215	588.143	17.366
11.422	580.904	17.3855
11.4232	590.743	17.405
11.4257	592.8642	17.4246
11.4273	587.017	17.4441
11.4288	588.894	17.4636
11.4301	598.475	17.4832
11.4323	588.747	17.5027
11.4334	594.513	17.5222
11.4361	600.487	17.5417
11.4376	593.2652	17.5613
11.4382	588.106	17.5808
11.4407	604.513	17.6003
11.4421	596.8374	17.6199
11.4445	592.561	17.6394
11.445	604.7356	17.6589
11.4475	603.253	17.6785
11.4481	592.161	17.698
11.4506	606.584	17.7175
11.4521	604.927	17.7371
11.4525	598.8866	17.7566
11.4553	607.369	17.7761
11.4568	610.672	17.7957
11.4583	598.029	17.8152
11.4597	605.013	17.8347
11.4616	613.419	17.8542
11.4639	605.912	17.8738
11.4644	607.523	17.8933
11.46652	613.087	17.9128
11.4682	609.936	17.9324
11.4703	608.5321	17.9519
11.47169	617.081	17.9714
11.4724	612.373	17.991
11.4745	610.926	18.0105
11.4762	616.683	18.03
11.4776	619.318	18.0496
11.4789	611.181	18.0691
11.4812	619.491	18.0886
11.4832	623.939	18.1082
11.4842	619.047	18.1277
11.4848	618.132	18.1472
11.4876	627.994	18.1667
11.4887	618.027	18.1863
11.4901	620.5	18.2058
11.4925	629.0296	18.2253
11.4941	624.739	18.2449
11.4954	617.415	18.2644
11.4972	632.6051	18.2839
11.4982	629.796	18.3035
11.5008	624.362	18.323
11.501	630.206	18.3425
11.5038	633.376	18.3621
11.5057	622.748	18.3816
11.5069	633.91	18.4011
11.50829	636.517	18.4207
11.5092	627.776	18.4402
11.5114	633.24	18.4597
11.5128	641.4776	18.4792
11.5154	630.644	18.4988
11.5163	633.162	18.5183
11.5182	640.963	18.5378
11.5197	639.244	18.5574
11.5224	636.471	18.5769
11.5228	641.924	18.5964
11.525	640.379	18.616
11.5263	635.14	18.6355
11.5279	646.866	18.655
11.53071	645.466	18.6746
11.5312	639.774	18.6941
11.5322	643.055	18.7136
11.5358	650.74	18.7332
11.5375	641.689	18.7527
11.5373	645.084	18.7722
11.5403	652.663	18.7917
11.5416	647.803	18.8113
11.5424	645.679	18.8308
11.5437	657.419	18.8503
11.5458	647.4519	18.8699
11.5472	646.815	18.8894
11.5498	658.065	18.9089
11.55	658.196	18.9285
11.5524	646.593	18.948
11.5551	659.164	18.9675
11.5564	658.99	18.9871
11.5575	654.396	19.0066
11.5588	658.432	19.0261
11.5608	665.937	19.0457
11.5611	652.62	19.0652
11.5645	660.0614	19.0847
11.5663	666.314	19.1042
11.5678	660.087	19.1238
11.56909	659.726	19.1433
11.5705	669.917	19.1628
11.5717	662.286	19.1824
11.5731	662.424	19.2019
11.5753	669.682	19.2214
11.577	667.423	19.241
11.57896	663.057	19.2605
11.5795	670.281	19.28
11.5821	671.888	19.2996
11.5837	664.078	19.3191
11.5848	672.673	19.3386
11.5877	676.186	19.3582
11.5884	669.485	19.3777
11.5902	669.093	19.3972
11.5916	679.008	19.4167
11.5927	672.722	19.4363
11.5948	673.036	19.4558
11.5965	680.6	19.4753
11.5977	678.762	19.4949
11.5998	672.029	19.5144
11.60119	686.015	19.5339
11.6024	680.01	19.5535
11.60542	674.769	19.573
11.6062	684.757	19.5925
11.6079	688.235	19.6121
11.6095	674.985	19.6316
11.6109	684.642	19.6511
11.6129	689.061	19.6707
11.6153	682.219	19.6902
11.6164	685.935	19.7097
11.6174	693.97	19.7292
11.6189	681.544	19.7488
11.6206	687.023	19.7683
11.6222	695.89	19.7878
11.6242	690.34	19.8074
11.6259	686.44	19.8269
11.62794	696.373	19.8464
11.6295	691.614	19.866
11.6305	689.075	19.8855
11.6322	695.483	19.905
11.6338	697.425	19.9246
11.6356	691.332	19.9441
11.637	695.745	19.9636
11.6384	700.411	19.9832
11.6406	692.741	20.0027
11.641	694.648	20.0125

Data Header:			0.254_hd_dimension_typei_090_r0			Time:	40.019	s	4/15/2019 3:31:44 PM
Data Acquisition:	Timed
Station Name:	ft40.cfg
Test File Name:	monotonic_0.2540_typei_hd_090_dimension.tst
Displacement	Force	Running Time
mm	N	s
11.6419	697.254	20.0222
11.644	705.0332	20.0417
11.6456	700.069	20.0613
11.647	694.9	20.0808
11.6482	704.603	20.1003
11.64997	703.057	20.1199
11.6509	699.741	20.1394
11.6535	709.465	20.1589
11.6545	706.741	20.1785
11.6574	697.434	20.198
11.6579	709.874	20.2175
11.6603	710.594	20.2371
11.6615	703.947	20.2566
11.6624	709.1886	20.2761
11.6654	716.444	20.2957
11.66669	704.168	20.3152
11.6676	711.387	20.3347
11.6708	715.206	20.3542
11.6715	709.997	20.3738
11.6741	711.892	20.3933
11.6748	721.935	20.4128
11.6764	712.574	20.4324
11.6776	712.066	20.4519
11.6793	720.456	20.4714
11.6811	721.028	20.491
11.6827	712.141	20.5105
11.68425	721.601	20.53
11.6857	719.953	20.5496
11.6876	716.31	20.5691
11.6897	723.531	20.5886
11.6912	727.122	20.6082
11.6923	719.825	20.6277
11.6939	720.808	20.6472
11.6966	727.842	20.6667
11.6972	723.924	20.6863
11.6986	721.11	20.7058
11.6996	731.107	20.7253
11.7021	727.6	20.7449
11.7039	720.244	20.7644
11.7058	731.886	20.7839
11.70757	729.297	20.8035
11.7093	725.818	20.823
11.7105	733.705	20.8425
11.7115	737.031	20.8621
11.7149	723.1	20.8816
11.7155	734.988	20.9011
11.7164	738.55	20.9207
11.7176	730.522	20.9402
11.721	733.873	20.9597
11.721	743.0296	20.9792
11.72196	730.106	20.9988
11.726	735.9007	21.0183
11.72573	742.317	21.0378
11.7286	737.824	21.0574
11.7294	736.275	21.0769
11.7313	745.831	21.0964
11.7336	739.837	21.116
11.7347	735.75	21.1355
11.7363	742.848	21.155
11.7385	747.033	21.1746
11.7392	738.863	21.1941
11.7412	747.129	21.2136
11.7429	746.627	21.2332
11.7447	741.465	21.2527
11.7472	745.456	21.2722
11.7481	754.32	21.2917
11.7497	746.2276	21.3113
11.7523	743.707	21.3308
11.7519	752.4519	21.3503
11.7546	749.283	21.3699
11.7556	744.886	21.3894
11.7563	753.086	21.4089
11.7598	755.945	21.4285
11.7617	746.705	21.448
11.7623	756.349	21.4675
11.7645	755.819	21.4871
11.7658	749.8894	21.5066
11.7673	755.583	21.5261
11.7697	763.6	21.5457
11.7699	749.728	21.5652
11.7722	757.229	21.5847
11.7736	763.014	21.6042
11.7757	759.593	21.6238
11.7774	756.749	21.6433
11.7782	767.937	21.6628
11.7806	758.42	21.6824
11.7816	758.341	21.7019
11.7844	768.742	21.7214
11.7833	766.297	21.741
11.7877	758.95	21.7605
11.7897	767.839	21.78
11.79	768.661	21.7996
11.79188	763.103	21.8191
11.7935	766.204	21.8386
11.7953	771.33	21.8582
11.7978	764.793	21.8777
11.7982	768.807	21.8972
11.8011	774.215	21.9167
11.8024	768.658	21.9363
11.8041	764.819	21.9558
11.8043	778.978	21.9753
11.8063	772.278	21.9949
11.8083	766.258	22.0144
11.8093	776.242	22.0339
11.8119	775.593	22.0535
11.8136	771.304	22.073
11.8148	777.067	22.0925
11.8156	779.777	22.1121
11.81846	769.66	22.1316
11.8192	777.631	22.1511
11.8207	783.529	22.1707
11.8224	773.882	22.1902
11.8242	776.2489	22.2097
11.8261	787.546	22.2292
11.8274	777.267	22.2488
11.8285	778.35	22.2683
11.83174	787.264	22.2878
11.8327	783.1	22.3074
11.8342	778.946	22.3269
11.8356	788.743	22.3464
11.8373	782.055	22.366
11.8399	781.944	22.3855
11.8403	788.126	22.405
11.842	791.135	22.4246
11.84417	782.397	22.4441
11.8458	788.324	22.4636
11.8466	789.38	22.4832
11.8483	787.315	22.5027
11.8498	787.503	22.5222
11.85253	794.851	22.5417
11.8538	788.753	22.5613
11.8558	788.311	22.5808
11.8571	797.487	22.6003
11.8581	791.997	22.6199
11.8597	787.371	22.6394
11.8613	798.6366	22.6589
11.86381	797.002	22.6785
11.86493	788.1344	22.698
11.86555	794.6673	22.7175
11.8682	799.019	22.7371
11.8695	791.424	22.7566
11.872	797.376	22.7761
11.8734	804.512	22.7957
11.8752	791.89	22.8152
11.8762	796.817	22.8347
11.8784	805.011	22.8542
11.8792	797.921	22.8738
11.8813	796.164	22.8933
11.8828	808.728	22.9128
11.8853	799.688	22.9324
11.8858	798.878	22.9519
11.8877	805.785	22.9714
11.8891	805.191	22.991
11.8916	798.737	23.0105
11.89197	808.831	23.03
11.8948	807.407	23.0496
11.8948	801.7785	23.0691
11.89781	806.688	23.0886
11.8987	814.526	23.1082
11.9008	805.574	23.1277
11.90284	807.603	23.1472
11.9049	811.258	23.1667
11.9061	808.7439	23.1863
11.9077	804.575	23.2058
11.9086	817.844	23.2253
11.91029	811.921	23.2449
11.9128	807.421	23.2644
11.9137	813.884	23.2839
11.9162	818.445	23.3035
11.9172	807.256	23.323
11.9184	817.112	23.3425
11.9194	818.628	23.3621
11.92223	808.45	23.3816
11.9233	812.854	23.4011
11.924	820.86	23.4207
11.9275	812.379	23.4402
11.9283	814.885	23.4597
11.93	824.674	23.4792
11.9318	812.165	23.4988
11.9336	813.135	23.5183
11.9357	824.216	23.5378
11.9362	821.2135	23.5574
11.93758	814.029	23.5769
11.9397	824.835	23.5964
11.941	817.998	23.616
11.9431	817.823	23.6355
11.9449	825.656	23.655
11.9457	827.072	23.6746
11.948	817.636	23.6941
11.9493	825.557	23.7136
11.9498	829.061	23.7332
11.95307	821.931	23.7527
11.9556	821.534	23.7722
11.956	832.359	23.7917
11.957	824.646	23.8113
11.9594	824.139	23.8308
11.9609	829.053	23.8503
11.9624	829.885	23.8699
11.9647	822.408	23.8894
11.9668	835.037	23.9089
11.9678	831.805	23.9285
11.9694	823.482	23.948
11.9709	830.5802	23.9675
11.9721	836.444	23.9871
11.9744	825.324	24.0066
11.9756	832.706	24.0261
11.9772	837.003	24.0457
11.9789	827.427	24.0652
11.98	828.874	24.0847
11.9827	839.4986	24.1042
11.984	830.735	24.1238
11.9859	831.0365	24.1433
11.9868	842.0589	24.1628
11.9902	833.583	24.1824
11.9901	829.46	24.2019
11.9927	838.773	24.2214
11.9923	838.161	24.241
11.9955	829.538	24.2605
11.9972	841.649	24.28
11.9991	837.3233	24.2996
12.0003	832.482	24.3191
12.002	837.785	24.3386
12.0031	844.906	24.3582
12.0055	833.946	24.3777
12.007	839.118	24.3972
12.0074	843.708	24.4167
12.0102	838.418	24.4363
12.0107	835.119	24.4558
12.0126	846.505	24.4753
12.0146	841.374	24.4949
12.01705	838.376	24.5144
12.0169	844.308	24.5339
12.0192	842.694	24.5535
12.0222	835.412	24.573
12.0216	846.709	24.5925
12.0243	848.365	24.6121
12.0268	838.632	24.6316
12.0279	842.214	24.6511
12.0293	850.726	24.6707
12.0314	840.975	24.6902
12.0331	844.486	24.7097
12.03418	852.566	24.7292
12.0355	842.696	24.7488
12.0374	840.464	24.7683
12.0398	853.2	24.7878
12.04032	844.415	24.8074
12.0429	841.164	24.8269
12.0447	851.928	24.8464
12.0458	848.458	24.866
12.0467	841.374	24.8855
12.0491	849.764	24.905
12.05111	850.2254	24.9246
12.0528	843.131	24.9441
12.0538	853.498	24.9636
12.0552	851.56	24.9832
12.0567	846.034	25.0027
12.0586	847.2547	25.0222
12.0608	858.007	25.0417
12.0625	849.115	25.0613
12.0628	848.612	25.0808
12.0654	853.364	25.1003
12.0672	852.365	25.1199
12.069	846.785	25.1394
12.071	857.863	25.1589
12.0715	853.267	25.1785
12.0734	848.153	25.198
12.0747	853.864	25.2175
12.0768	858.891	25.2371
12.0787	848.568	25.2566
12.081	854.417	25.2761
12.082	859.736	25.2957
12.0838	851.039	25.3152
12.0849	850.649	25.3347
12.0871	860.071	25.3542
12.0881	852.07	25.3738
12.0894	850.863	25.3933
12.0901	861.977	25.4128
12.093	854.39	25.4324
12.0949	848.283	25.4519
12.096	861.096	25.4714
12.0981	856.506	25.491
12.0989	851.318	25.5105
12.1011	859.573	25.53
12.1027	858.858	25.5496
12.1049	851.52	25.5691
12.105	859.084	25.5886
12.10786	861.706	25.6082
12.1091	852.572	25.6277
12.1098	860.172	25.6472
12.1114	863.201	25.6667
12.113	855.126	25.6863
12.1156	853.064	25.7058
12.118	865.627	25.7253
12.1195	858.664	25.7449
12.1205	856.308	25.7644
12.1219	859.338	25.7839
12.1245	861.971	25.8035
12.12541	852.964	25.823
12.1278	863.649	25.8425
12.1287	864.969	25.8621
12.1294	854.723	25.8816
12.1315	858.485	25.9011
12.1337	868.075	25.9207
12.1347	854.445	25.9402
12.1364	859.449	25.9597
12.1384	867.302	25.9792
12.1404	860.19	25.9988
12.1425	855.575	26.0183
12.1433	867.2868	26.0378
12.1449	860.18	26.0574
12.1468	856.034	26.0769
12.1477	867.612	26.0964
12.15072	863.25	26.116
12.1519	852.511	26.1355
12.1526	865.257	26.155
12.155	864.962	26.1746
12.1575	856.834	26.1941
12.1565	864.589	26.2136
12.1597	864.994	26.2332
12.1613	857.202	26.2527
12.1621	861.611	26.2722
12.1649	869.689	26.2917
12.1654	858.824	26.3113
12.1679	861.962	26.3308
12.1697	866.643	26.3503
12.1713	864.4223	26.3699
12.1713	857.672	26.3894
12.175	868.368	26.4089
12.1759	864.546	26.4285
12.1772	860.5639	26.448
12.1794	864.932	26.4675
12.1803	866.363	26.4871
12.1823	857.224	26.5066
12.1847	864.646	26.5261
12.1854	870.473	26.5457
12.1873	860.849	26.5652
12.1896	859.324	26.5847
12.1907	871.529	26.6042
12.1914	861.314	26.6238
12.1942	860.773	26.6433
12.195	869.227	26.6628
12.1968	864.1969	26.6824
12.1986	856.248	26.7019
12.2009	870.965	26.7214
12.2027	864.885	26.741
12.2038	858.292	26.7605
12.2049	869.46	26.78
12.2073	868.009	26.7996
12.2084	858.18	26.8191
12.21	864.719	26.8386
12.2112	868.366	26.8582
12.21299	860.016	26.8777
12.2155	864.415	26.8972
12.2176	868.842	26.9167
12.2181	860.299	26.9363
12.2195	862.14	26.9558
12.2214	871.196	26.9753
12.2235	864.831	26.9949
12.225	860.392	27.0144
12.2269	866.717	27.0339
12.2289	867.661	27.0535
12.2302	857.978	27.073
12.2316	868.851	27.0925
12.234	866.301	27.1121
12.2346	862.466	27.1316
12.2364	865.762	27.1511
12.2373	871.604	27.1707
12.2402	859.256	27.1902
12.2422	863.813	27.2097
12.2424	872.681	27.2292
12.2444	865.382	27.2488
12.2462	856.989	27.2683
12.2473	871.06	27.2878
12.2489	864.863	27.3074
12.2496	861.289	27.3269
12.2516	870.186	27.3464
12.2542	866.722	27.366
12.2554	856.102	27.3855
12.2573	869.209	27.405
12.25969	868.813	27.4246
12.2599	860.347	27.4441
12.2626	865.755	27.4636
12.2637	869.867	27.4832
12.2654	859.079	27.5027
12.2669	862.415	27.5222
12.2685	870.101	27.5417
12.2706	861.142	27.5613
12.2718	862.049	27.5808
12.2737	871.462	27.6003
12.2753	859.997	27.6199
12.2762	861.082	27.6394
12.2785	869.433	27.6589
12.2802	867.482	27.6785
12.2815	860.433	27.698
12.28458	865.5127	27.7175
12.2858	867.871	27.7371
12.2854	858.982	27.7566
12.2886	865.529	27.7761
12.28925	868.431	27.7957
12.292	861.085	27.8152
12.2928	860.041	27.8347
12.2953	869.994	27.8542
12.2964	859.421	27.8738
12.2975	860.386	27.8933
12.3003	869.406	27.9128
12.3015	866.711	27.9324
12.3026	855.94	27.9519
12.3047	867.53	27.9714
12.3063	864.12	27.991
12.308	859.186	28.0105
12.3085	867.703	28.03
12.31192	868.402	28.0496
12.3121	854.106	28.0691
12.3145	863.462	28.0886
12.3153	869.149	28.1082
12.317	859.372	28.1277
12.3191	862.918	28.1472
12.3209	867.463	28.1667
12.3226	858.759	28.1863
12.3245	860.469	28.2058
12.3257	867.575	28.2253
12.3272	860.724	28.2449
12.3295	860.307	28.2644
12.32958	867.142	28.2839
12.3319	864.335	28.3035
12.3337	858.299	28.323
12.3357	865.333	28.3425
12.3362	865.4	28.3621
12.3381	860.514	28.3816
12.34	861.709	28.4011
12.342	865.247	28.4207
12.344	858.176	28.4402
12.3447	862.854	28.4597
12.3468	866.487	28.4792
12.3482	860.301	28.4988
12.3502	856.147	28.5183
12.3514	867.391	28.5378
12.3538	860.971	28.5574
12.356	858.245	28.5769
12.3566	864.464	28.5964
12.3576	865.221	28.616
12.3594	852.022	28.6355
12.3613	867.013	28.655
12.3636	861.065	28.6746
12.3649	855.678	28.6941
12.3658	861.542	28.7136
12.3688	867.807	28.7332
12.3705	853.52	28.7527
12.3714	859.986	28.7722
12.3731	865.063	28.7917
12.3752	857.531	28.8113
12.3764	857.793	28.8308
12.3767	865.549	28.8503
12.3803	856.825	28.8699
12.3805	855.5415	28.8894
12.38304	864.368	28.9089
12.3836	862.584	28.9285
12.38606	854.284	28.948
12.3875	860.734	28.9675
12.3898	861.017	28.9871
12.3912	856.27	29.0066
12.3931	858.7536	29.0261
12.3946	861.708	29.0457
12.395	855.686	29.0652
12.3973	856.76	29.0847
12.399	863.151	29.1042
12.4012	854.397	29.1238
12.402	852.581	29.1433
12.4036	863.783	29.1628
12.4054	859.4845	29.1824
12.40804	850.44	29.2019
12.4089	862.4989	29.2214
12.4109	858.555	29.241
12.4113	853.582	29.2605
12.4126	861.193	29.28
12.4154	861.685	29.2996
12.4162	849.426	29.3191
12.4187	858.728	29.3386
12.4205	861.328	29.3582
12.4217	852.943	29.3777
12.4222	854.36	29.3972
12.4244	864.474	29.4167
12.4262	851.1051	29.4363
12.4289	853.575	29.4558
12.4299	858.696	29.4753
12.4324	855.677	29.4949
12.4327	851.702	29.5144
12.4337	860.09	29.5339
12.4359	854.192	29.5535
12.4384	850.562	29.573
12.4393	856.662	29.5925
12.4416	859.25	29.6121
12.44274	851.002	29.6316
12.4445	854.041	29.6511
12.4461	857.789	29.6707
12.4483	851.922	29.6902
12.4488	852.817	29.7097
12.4506	857.127	29.7292
12.4516	851.794	29.7488
12.4539	850.009	29.7683
12.4562	859.666	29.7878
12.459	853.154	29.8074
12.4591	849.528	29.8269
12.4616	856.704	29.8464
12.46262	856.81	29.866
12.4632	845.896	29.8855
12.4668	854.7818	29.905
12.4671	856.822	29.9246
12.4688	848.927	29.9441
12.4708	852.357	29.9636
12.4723	860.082	29.9832
12.4742	844.409	30.0027
12.4755	851.41	30.0222
12.47731	858.382	30.0417
12.4787	849.8562	30.0613
12.4803	847.2381	30.0808
12.4822	858.25	30.1003
12.4832	849.159	30.1199
12.4859	849.807	30.1394
12.4861	853.206	30.1589
12.4894	851.764	30.1785
12.4901	846.385	30.198
12.4914	854.211	30.2175
12.4923	851.3623	30.2371
12.4953	846.4906	30.2566
12.4967	850.235	30.2761
12.4982	856.363	30.2957
12.5006	848.216	30.3152
12.5016	848.629	30.3347
12.5024	853.956	30.3542
12.5063	849.214	30.3738
12.5064	847.539	30.3933
12.5082	854.041	30.4128
12.5088	850.022	30.4324
12.512	843.839	30.4519
12.5127	853.274	30.4714
12.5145	851.658	30.491
12.5164	842.296	30.5105
12.5169	850.4679	30.53
12.5193	854.143	30.5496
12.52	842.677	30.5691
12.5225	851.159	30.5886
12.5241	854.349	30.6082
12.5262	845.864	30.6277
12.528	848.4975	30.6472
12.5293	856.185	30.6667
12.531	843.206	30.6863
12.5325	845.266	30.7058
12.5344	853.788	30.7253
12.5358	850.26	30.7449
12.5372	845.552	30.7644
12.5384	852.011	30.7839
12.5414	845.48	30.8035
12.5424	844.269	30.823
12.54325	851.05	30.8425
12.5461	851.866	30.8621
12.5477	841.9	30.8816
12.5493	849.774	30.9011
12.5508	851.331	30.9207
12.5517	845.242	30.9402
12.5531	844.095	30.9597
12.5543	851.388	30.9792
12.5575	846.716	30.9988
12.5582	843.924	31.0183
12.5597	851.291	31.0378
12.56121	848.133	31.0574
12.56382	842.338	31.0769
12.5653	851.568	31.0964
12.567	851.227	31.116
12.56815	839.414	31.1355
12.5698	848.991	31.155
12.5723	851.647	31.1746
12.57275	842.54	31.1941
12.5739	847.8335	31.2136
12.5759	853.195	31.2332
12.5783	840.828	31.2527
12.5803	845.772	31.2722
12.5816	852.907	31.2917
12.5819	845.383	31.3113
12.5838	841.916	31.3308
12.5863	853.823	31.3503
12.5862	844.347	31.3699
12.58876	842.332	31.3894
12.5906	848.683	31.4089
12.593	847.606	31.4285
12.5945	841.884	31.448
12.59549	850.446	31.4675
12.5974	846.311	31.4871
12.5993	843.279	31.5066
12.6006	845.097	31.5261
12.6017	850.491	31.5457
12.6049	841.706	31.5652
12.606	843.275	31.5847
12.6081	848.6413	31.6042
12.6081	846.0097	31.6238
12.6104	839.046	31.6433
12.61299	850.05	31.6628
12.6142	844.798	31.6824
12.6143	841.496	31.7019
12.61764	848.686	31.7214
12.6183	847.619	31.741
12.6203	838.481	31.7605
12.6223	846.238	31.78
12.6228	850.443	31.7996
12.6254	838.845	31.8191
12.627	843.711	31.8386
12.6281	850.099	31.8582
12.63	842.779	31.8777
[...]
13.3876	830.496	40.9597
13.3876	841.236	40.9695
13.3885	841.17	40.9792
13.38847	838.294	40.989
13.39049	834.757	40.9988
13.3927	825.193	41.0085
13.3922	832.922	41.0183
13.3926	838	41.0281
13.3931	841.174	41.0378
13.3948	839.616	41.0476
13.3938	833.513	41.0574
13.3953	831.845	41.0671
13.39677	828.698	41.0769
13.3965	835.469	41.08667
13.3978	840.14	41.0964
13.399	841.1	41.1062
13.3999	838.657	41.116
13.4012	830.268	41.1257
13.4006	831.02	41.1355
13.402	834.6698	41.1453
13.4028	839.726	41.155
13.4046	839.421	41.1648
13.4056	837.619	41.1746
13.4064	833.8161	41.1843
13.4059	832.509	41.1941
13.4063	833.008	41.2039
13.4072	833.294	41.2136
13.408	841.902	41.2234
13.4106	842.043	41.2332
13.4117	835.115	41.24292
13.412	831.92	41.2527
13.413	831.002	41.2625
13.41253	835.777	41.2722
13.41288	837.584	41.282
13.4135	839.155	41.2917
13.4144	837.83	41.3015
13.4159	833.255	41.3113
13.4175	831.351	41.321
13.41829	831.428	41.3308
13.4183	836.787	41.3406
13.4191	841.932	41.3503
13.4193	837.088	41.3601
13.4215	837.225	41.3699
13.4212	830.99	41.3796
13.4221	832.091	41.3894
13.4238	835.949	41.39917
13.4252	837.142	41.4089
13.4247	840.485	41.4187
13.4248	839.911	41.4285
13.4266	833.173	41.4382
13.427	830.923	41.448
13.42807	830.141	41.4578
13.4281	839.76	41.4675
13.4298	841.005	41.4773
13.4304	840.235	41.4871
13.4322	834.2757	41.4968
13.4327	830.868	41.5066
13.433	831.706	41.5164
13.433	834.724	41.5261
13.4349	840.331	41.5359
13.4349	842.136	41.5457
13.4364	838.543	41.55542
13.437	830.496	41.5652
13.4381	828.008	41.575
13.4382	832.874	41.5847
13.43917	840.723	41.5945
13.4412	842.089	41.6042
13.4411	836.038	41.614
13.4415	833.344	41.6238
13.4434	830.722	41.6335
13.4439	831.547	41.6433
13.44377	838.643	41.6531
13.4453	840.627	41.6628
13.4457	842.279	41.6726
13.4463	833.192	41.6824
13.44802	828.156	41.6921
13.4479	830.749	41.7019
13.4487	835.156	41.71167
13.45003	841.996	41.7214
13.4517	841.177	41.7312
13.4522	833.75	41.741
13.4518	833.583	41.7507
13.4533	829.218	41.7605
13.4549	833.146	41.7703
13.4552	838.049	41.78
13.4569	841.796	41.7898
13.4557	839.855	41.7996
13.4574	830.943	41.8093
13.4579	828.901	41.8191
13.4597	833.307	41.8289
13.4594	838.095	41.8386
13.461	840.217	41.8484
13.4631	837.4101	41.8582
13.462	835.689	41.86792
13.4649	832.866	41.8777
13.4645	830.442	41.8875
13.4649	834.184	41.8972
13.4663	839.569	41.907
13.4657	840.67	41.9167
13.46718	837.517	41.9265
13.4685	831.657	41.9363
13.4687	831.168	41.946
13.4699	832.754	41.9558
13.47	837.1795	41.9656
13.4698	838.719	41.9753
13.4721	840.66	41.9851
13.4724	837.156	41.9949
13.4748	832.555	42.0046
13.47403	829.5274	42.0144
13.4751	834.686	42.02417
13.4759	840.091	42.0339
13.4757	841.588	42.0437
13.4781	838.1037	42.0535
13.479	831.705	42.0632
13.48	832.478	42.073
13.4797	832.082	42.0828
13.48179	835.946	42.0925
13.482	841.132	42.1023
13.4831	839.201	42.1121
13.4835	835.378	42.1218
13.48467	830.054	42.1316
13.4847	828.632	42.1414
13.4874	837.5921	42.1511
13.4875	839.472	42.1609
13.4881	842.687	42.1707
13.4886	835.594	42.18042
13.4897	831.952	42.1902
13.4894	831.368	42.2
13.4913	831.168	42.2097
13.4926	838.94	42.2195
13.4925	843.396	42.2292
13.493	838.309	42.239
13.4941	832.975	42.2488
13.4959	828.103	42.2585
13.4946	831.489	42.2683
13.497	838.169	42.2781
13.4978	839.642	42.2878
13.4979	839.637	42.2976
13.4992	835.787	42.3074
13.4997	830.826	42.3171
13.5016	828.596	42.3269
13.5022	834.15	42.33667
13.5026	838.573	42.3464
13.5027	843.833	42.3562
13.5039	834.704	42.366
13.505	830.002	42.3757
13.5054	828.917	42.3855
13.5066	832.507	42.3953
13.5073	840.335	42.405
13.5076	839.741	42.4148
13.509	837.437	42.4246
13.5098	834.897	42.4343
13.5095	829.01	42.4441
13.5102	831.819	42.4539
13.51356	834.939	42.4636
13.514	841.841	42.4734
13.5138	840.158	42.4832
13.5149	832.898	42.49292
13.5155	831.37	42.5027
13.5161	831.471	42.5125
13.5172	835.2998	42.5222
13.518	838.858	42.532
13.5193	838.924	42.5417
13.5187	839.233	42.5515
13.521	832.298	42.5613
13.5216	829.834	42.571
13.5225	832.183	42.5808
13.5225	836.767	42.5906
13.5235	842.058	42.6003
13.5228	837.166	42.6101
13.52526	836.056	42.6199
13.5258	831.519	42.6296
13.5266	832.688	42.6394
13.5276	833.655	42.64917
13.5285	837.793	42.6589
13.5291	839.838	42.6687
13.5306	838.82	42.6785
13.5302	832.28	42.6882
13.5317	827.181	42.698
13.533	832.023	42.7078
13.5328	839.209	42.7175
13.5341	841.059	42.7273
13.53486	838.917	42.7371
13.5352	834.153	42.7468
13.5375	830.55	42.7566
13.537	829.793	42.7664
13.5392	832.533	42.7761
13.5398	839.268	42.7859
13.5392	841.4	42.7957
13.5406	837.461	42.80542
13.5408	829.85	42.8152
13.5426	828.44	42.825
13.5433	836.3	42.8347
13.5447	837.83	42.8445
13.5444	841.888	42.8542
13.5465	837.199	42.864
13.5463	833.861	42.8738
13.547	830.8349	42.8835
13.54809	828.691	42.8933
13.5483	836.664	42.9031
13.5506	841.301	42.9128
13.5505	841.255	42.9226
13.5505	833.904	42.9324
13.5518	827.654	42.9421
13.5521	831.025	42.9519
13.5532	833.958	42.96167
13.5541	839.651	42.9714
13.5556	840.453	42.9812
13.5569	837.23	42.991
13.5569	832.147	43.0007
13.5572	826.8894	43.0105
13.55823	832.076	43.0203
13.5595	840.115	43.03
13.5598	842.156	43.0398
13.5616	838.868	43.0496
13.5613	831.549	43.0593
13.5625	827.925	43.0691
13.5632	832.7381	43.0789
13.5637	836.8194	43.0886
13.5655	837.534	43.0984
13.5662	840.183	43.1082
13.5672	835.078	43.11792
13.5663	829.945	43.1277
13.5681	830.387	43.1375
13.5689	832.2204	43.1472
13.5703	840.478	43.157
13.5706	839.767	43.1667
13.5715	835.276	43.1765
13.5731	831.103	43.1863
13.5729	830.695	43.196
13.5738	833.438	43.2058
13.5744	836.193	43.2156
13.5744	838.988	43.2253
13.5767	841.442	43.2351
13.57761	832.828	43.2449
13.5775	831.323	43.2546
13.5786	829.437	43.2644
13.58006	834.421	43.27417
13.5796	839.067	43.2839
13.5816	837.941	43.2937
13.5829	836.547	43.3035
13.5827	833.158	43.3132
13.5832	832.571	43.323
13.5844	832.058	43.3328
13.5863	833.472	43.3425
13.5863	840.833	43.3523
13.5878	839.807	43.3621
13.5878	833.665	43.3718
13.5882	828.005	43.3816
13.5888	830.852	43.3914
13.59077	835.135	43.4011
13.5911	837.7641	43.4109
13.5927	839.428	43.4207
13.59376	835.289	43.43042
13.5939	831.603	43.4402
13.5942	829.18	43.45
13.5955	831.239	43.4597
13.5958	837.646	43.4695
13.5959	842.2995	43.4792
13.5974	838.746	43.489
13.598	830.4809	43.4988
13.5982	828.83	43.5085
13.5996	831.227	43.5183
13.6003	836.4	43.5281
13.60187	842.471	43.5378
13.6033	838.171	43.5476
13.6031	835.746	43.5574
13.6037	829.766	43.5671
13.604	828.2981	43.5769
13.6056	834.54	43.58667
13.6063	839.925	43.5964
13.6065	842.499	43.6062
13.6078	836.635	43.616
13.6097	829.875	43.6257
13.6097	830.778	43.6355
13.6102	832.639	43.6453
13.6114	838.606	43.655
13.6122	839.81	43.6648
13.6128	838.118	43.6746
13.6141	833.955	43.6843
13.6143	827.58	43.6941
13.6154	831.42	43.7039
13.6167	836.876	43.7136
13.6173	841.331	43.7234
13.6171	839.84	43.7332
13.6185	831.925	43.74292
13.6188	830.3244	43.7527
13.6211	830.9823	43.7625
13.622	833.167	43.7722
13.6225	837.12	43.782
13.6234	837.027	43.7917
13.6232	837.961	43.8015
13.6237	831.4	43.8113
13.6261	829.013	43.821
13.6263	831.947	43.8308
13.6272	837.027	43.8406
13.62759	838.63	43.8503
13.6273	836.831	43.8601
13.6292	831.751	43.8699
13.6294	831.77	43.8796
13.6314	831.756	43.8894
13.6327	831.113	43.89917
13.6324	837.65	43.9089
13.633	840.419	43.9187
13.6353	835.603	43.9285
13.6343	832.227	43.9382
13.6358	827.501	43.948
13.637	834.127	43.9578
13.6372	838.322	43.9675
13.6384	838.194	43.9773
13.6386	836.953	43.9871
13.6408	835.713	43.9968
13.6408	832.69	44.0066
13.6402	828.77	44.0164
13.6436	831.903	44.0261
13.6433	839.247	44.0359
13.64393	841.096	44.0457
13.6461	835.231	44.05542
13.6461	829.279	44.0652
13.6463	827.48	44.075
13.647	834.072	44.0847
13.649	834.142	44.0945
13.6491	838.585	44.1042
13.6492	837.421	44.114
13.6505	833.962	44.1238
13.6507	830.3	44.1335
13.6522	826.616	44.1433
13.65294	834.438	44.1531
13.655	842.495	44.1628
13.6544	838.389	44.1726
13.6547	832.335	44.1824
13.6562	828.678	44.1921
13.6576	829.29	44.2019
13.658	833.931	44.21167
13.6584	838.622	44.2214
13.65978	838.688	44.2312
13.661	836.516	44.241
13.6613	828.167	44.2507
13.6624	825.159	44.2605
13.6632	830.296	44.2703
13.6629	837.513	44.28
13.6641	841.777	44.2898
13.6657	836.751	44.2996
13.6654	829.812	44.3093
13.667	828.514	44.3191
13.6671	830.2854	44.3289
13.6688	836.087	44.3386
13.6691	837.806	44.3484
13.6695	841.3819	44.3582
13.6713	836.233	44.36792
13.6715	827.122	44.3777
13.67248	829.814	44.3875
13.6737	833.234	44.3972
13.6746	840.719	44.407
13.6746	839.784	44.4167
13.67594	833.875	44.4265
13.6766	831.896	44.4363
13.6767	829.629	44.446
13.6784	832.903	44.4558
13.6793	833.95	44.4656
13.6803	838.835	44.4753
13.6802	840.461	44.4851
13.6812	831.86	44.4949
13.6825	829.393	44.5046
13.6824	829.993	44.5144
13.6844	834.064	44.52417
13.6846	838.9234	44.5339
13.6859	838.599	44.5437
13.6869	834.366	44.5535
13.6857	833.054	44.5632
13.6874	827.476	44.573
13.6892	831.378	44.5828
13.6893	836.418	44.5925
13.69	838.569	44.6023
13.6902	837.495	44.6121
13.6925	832.999	44.6218
13.6931	827.718	44.6316
13.6938	830.875	44.6414
13.69423	834.439	44.6511
13.6945	837.342	44.6609
13.6957	839.43	44.6707
13.6978	836.081	44.68042
13.6976	831.371	44.6902
13.6985	827.8	44.7
13.6997	830.244	44.7097
13.6997	837.8927	44.7195
13.7005	839.382	44.7292
13.70141	838.491	44.739
13.7022	829.851	44.7488
13.7028	828.4267	44.7585
13.7043	831.88	44.7683
13.7041	832.688	44.7781
13.70562	840.567	44.7878
13.7071	838.792	44.7976
13.7066	835.044	44.8074
13.7079	827.5	44.8171
13.7082	824.985	44.8269
13.7093	831.19	44.83667
13.7107	838.848	44.8464
13.7123	839.063	44.8562
13.7121	833.704	44.866
13.7127	828.679	44.8757
13.7136	829.695	44.8855
13.7149	828.931	44.8953
13.7155	836.561	44.905
13.7166	840.402	44.9148
13.7172	837.431	44.9246
13.7178	833.299	44.9343
13.71857	825.3941	44.9441
13.7191	829.149	44.9539
13.72	837.22	44.9636
13.7213	839.587	44.9734
13.7216	836.621	44.9832
13.7234	833.769	44.99292
13.722	830.943	45.0027
13.7246	829.246	45.0125
13.7242	835.0105	45.0222
13.7257	836.22	45.032
13.7268	840.259	45.0417
13.7289	836.519	45.0515
13.7278	826.282	45.0613
13.7301	828.374	45.071
13.7295	830.982	45.0808
13.7313	835.3407	45.0906
13.7318	838.069	45.1003
13.7329	835.868	45.1101
13.7325	832.626	45.1199
13.7343	827.762	45.1296
13.7359	828.763	45.1394
13.7365	833.51	45.14917
13.7367	837.6026	45.1589
13.7365	840.859	45.1687
13.7391	832.3548	45.1785
13.73888	831.167	45.1882
13.7394	827.802	45.198
13.7406	831.223	45.2078
13.7415	836.522	45.2175
13.7433	836.603	45.2273
13.7439	835.704	45.2371
13.7438	834.012	45.2468
13.7452	828.2627	45.2566
13.7455	826.9314	45.2664
13.7463	832.281	45.2761
13.747	838.3512	45.2859
13.74768	838.624	45.2957
13.7489	833.025	45.30542
13.7495	829.395	45.3152
13.7508	828.774	45.325
13.7511	830.932	45.3347
13.7516	834.758	45.3445
13.7529	837.135	45.3542
13.7537	838.042	45.364
13.7552	833.023	45.3738
13.7553	825.676	45.3835
13.7565	828.6452	45.3933
13.7578	833.958	45.4031
13.7576	838.963	45.4128
13.7597	838.597	45.4226
13.7596	830.103	45.4324
13.76034	828.172	45.4421
13.7597	828.575	45.4519
13.7612	829.656	45.46167
13.7625	838.2677	45.4714
13.7631	839.463	45.4812
13.7639	837.333	45.491
13.7654	828.699	45.5007
13.7658	824.601	45.5105
13.7661	830.512	45.5203
13.7676	836.348	45.53
13.769	840.581	45.5398
13.7689	833.579	45.5496
13.7695	831.157	45.5593
13.7714	829.005	45.5691
13.7722	826.286	45.5789
13.7719	833.842	45.5886
13.7735	838.92	45.5984
13.7734	839.454	45.6082
13.77561	833.994	45.61792
13.777	825.217	45.6277
13.77623	826.59	45.6375
13.77718	833.719	45.6472
13.7781	835.969	45.657
13.7788	836.24	45.6667
13.7806	834.505	45.6765
13.78141	829.2	45.6863
13.78172	826.6236	45.696
13.7822	828.99	45.7058
13.7833	833.163	45.7156
13.7831	838.329	45.7253
13.7859	836.7027	45.7351
13.7848	829.715	45.7449
13.7871	826.853	45.7546
13.7874	828.79	45.7644
13.7882	834.783	45.77417
13.7894	834.572	45.7839
13.78942	835.56	45.7937
13.79	832.814	45.8035
13.7908	829.516	45.8132
13.7927	827.266	45.823
13.7922	828.262	45.8328
13.7941	835.039	45.8425
13.794	837.58	45.8523
13.7947	834.829	45.8621
13.7963	830.055	45.8718
13.7967	825.708	45.8816
13.798	829.717	45.8914
13.7988	832.158	45.9011
13.7994	833.569	45.9109
13.7996	837.352	45.9207
13.80093	833.5152	45.93042
13.80177	829.201	45.9402
13.8025	825.313	45.95
13.8029	826.941	45.9597
13.805	837.677	45.9695
13.8052	836.529	45.9792
13.8055	837.2652	45.989
13.8065	829.276	45.9988
13.8067	826.026	46.0085
13.8078	829.692	46.0183
13.81	830.055	46.0281
13.8095	836.483	46.0378
13.8114	837.586	46.0476
13.8116	831.899	46.0574
13.8124	825.863	46.0671
13.8137	823.913	46.0769
13.8136	831.9093	46.08667
13.8153	836.635	46.0964
13.8151	836.921	46.1062
13.8162	831.75	46.116
13.8175	829.127	46.1257
13.81816	826.145	46.1355
13.8202	827.797	46.1453
13.82008	835.579	46.155
13.8209	837.454	46.1648
13.8214	835.392	46.1746
13.8215	827.991	46.1843
13.823	824.538	46.1941
13.8239	827.421	46.2039
13.8244	833.215	46.2136
13.8255	838.081	46.2234
13.827	836.114	46.2332
13.8273	830.845	46.24292
13.8284	826.91	46.2527
13.8283	823.588	46.2625
13.8283	830.426	46.2722
13.8302	834.319	46.282
13.83148	837.6037	46.2917
13.8323	833.762	46.3015
13.8328	824.748	46.3113
13.8336	825.168	46.321
13.8349	829.13	46.3308
13.8355	833.213	46.3406
13.83639	834.874	46.3503
13.8367	832.769	46.3601
13.8368	830.3	46.3699
13.8389	825.425	46.3796
13.8391	825.957	46.3894
13.84029	831.98	46.39917
13.84	834.264	46.4089
13.842	838.059	46.4187
13.8424	828.8847	46.4285
13.8438	825.8186	46.4382
13.8444	827.259	46.448
13.8462	830.212	46.4578
13.84492	831.235	46.4675
13.8476	835.3764	46.4773
13.84851	831.736	46.4871
13.8477	829.6344	46.4968
13.84943	824.609	46.5066
13.8496	823.5871	46.5164
13.8504	829.868	46.5261
13.852	835.327	46.5359
13.8526	833.502	46.5457
13.85303	829.376	46.55542
13.8534	823.982	46.5652
13.854	827.8252	46.575
13.8555	826.992	46.5847
13.8557	831.802	46.5945
13.8559	834.262	46.6042
13.8586	832.0072	46.614
13.85928	827.83	46.6238
13.8597	821.539	46.6335
13.8607	825.422	46.6433
13.8606	831.99	46.6531
13.8612	832.578	46.6628
13.8626	835.621	46.6726
13.8632	827.694	46.6824
13.8647	824.638	46.6921
13.86482	822.893	46.7019
13.8664	821.995	46.71167
13.8669	831.274	46.7214
13.8685	834.255	46.7312
13.8676	830.2417	46.741
13.8686	822.404	46.7507
13.87	816.853	46.7605
13.871	824.388	46.7703
13.8719	829.3891	46.78
13.872	831.5838	46.7898
13.8734	828.317	46.7996
13.8741	823.38	46.8093
13.8745	819.672	46.8191
13.8755	815.961	46.8289
13.8844	-102.733	46.8386
13.8839	-55.3127	46.8484
13.883	-38.5401	46.8582
13.8832	-52.2921	46.86792
13.8842	-38.6526	46.8777
13.8831	-49.9035	46.8875
13.8832	-42.5954	46.8972
13.8846	-37.5865	46.907
13.8845	-40.44643	46.9167
13.8857	-40.4556	46.9265
13.8859	-46.4303	46.9363
13.88724	-50.9204	46.946
13.8874	-45.4621	46.9558
13.8878	-42.1077	46.9656
13.8888	-35.9335	46.9753
13.8897	-39.9791	46.9851
13.891	-47.454	46.9949
13.8908	-49.7875	47.0046
13.8908	-48.3614	47.0144
13.8942	-41.8041	47.02417
13.89362	-40.6957	47.0339
13.8941	-39.0863	47.0437
13.8957	-40.8862	47.0535
13.896	-48.456	47.0632
13.8971	-49.4602	47.073
13.89749	-47.21048	47.0828
13.8989	-40.0681	47.0925
13.8995	-36.28302	47.1023
13.9002	-44.9588	47.1121
13.9003	-44.93261	47.1218
13.9004	-47.43943	47.1316
13.9022	-46.9154	47.1414
13.9039	-42.854	47.1511
13.9043	-40.3659	47.1609
13.9058	-38.6266	47.1707
13.906	-41.5455	47.18042
13.9062	-48.5696	47.1902
13.9075	-47.8927	47.2
13.9083	-45.6577	47.2097
13.9086	-40.2617	47.2195
13.9107	-39.8817	47.2292
13.9105	-41.7872	47.239
13.912	-46.1054	47.2488
13.9128	-46.9544	47.2585
13.9126	-47.5934	47.2683
13.9137	-44.63129	47.2781
13.9159	-39.54641	47.2878
13.915	-38.5447	47.2976
13.9162	-42.4822	47.3074
13.9171	-50.2541	47.3171
13.9179	-49.7421	47.3269
13.9184	-44.9635	47.33667
13.9192	-41.42313	47.3464
13.9205	-37.7175	47.3562
13.92213	-43.5952	47.366
13.921	-46.1354	47.3757
13.922	-49.3509	47.3855
13.92265	-49.9506	47.3953
13.9242	-41.8408	47.405
13.925	-37.5246	47.4148
13.9263	-37.7289	47.4246
13.926	-46.2126	47.4343
13.9274	-51.688	47.4441
13.9293	-47.6255	47.4539
13.9297	-43.0908	47.4636
13.9301	-37.8797	47.4734
13.9301	-40.7843	47.4832
13.93188	-42.42247	47.49292
13.9321	-47.7559	47.5027
13.9327	-53.5705	47.5125
13.9346	-47.3366	47.5222
13.9358	-39.16785	47.532
13.9353	-37.6131	47.5417
13.9366	-41.1461	47.5515
13.9372	-49.3182	47.5613
13.93732	-50.2334	47.571
13.9387	-45.8274	47.5808
13.9398	-42.6922	47.5906
13.9411	-40.5373	47.6003
13.9424	-39.65839	47.6101
13.9415	-46.0792	47.6199
13.9432	-50.2518	47.6296
13.9437	-48.9975	47.6394
13.9452	-44.8749	47.64917
13.9459	-38.6105	47.6589
13.9462	-41.1093	47.6687
13.94789	-43.8142	47.6785
13.9484	-49.8587	47.6882
13.9479	-47.87421	47.698
13.9493	-46.09914	47.7078
13.95	-43.4079	47.7175
13.951	-39.8815	47.7273
13.9517	-40.481	47.7371
13.9533	-45.6919	47.7468
13.9533	-46.0085	47.7566
13.9547	-50.7992	47.7664
13.9545	-42.17749	47.7761
13.9558	-40.6776	47.7859
13.9573	-43.3065	47.7957
13.95716	-44.4588	47.80542
13.959	-47.1988	47.8152
13.9583	-47.5648	47.825
13.9593	-47.2732	47.8347
13.9607	-44.4025	47.8445
13.9618	-38.0243	47.8542
13.9621	-41.8681	47.864
13.9631	-47.2163	47.8738
13.96358	-51.1083	47.8835
13.9647	-47.9661	47.8933
13.9651	-41.0868	47.9031
13.9661	-42.3483	47.9128
13.9674	-41.0813	47.9226
13.9693	-42.7689	47.9324
13.96871	-47.7663	47.9421
13.9695	-50.1523	47.9519
13.97023	-48.0807	47.96167
13.9716	-41.9048	47.9714
13.972	-37.7467	47.9812
13.9734	-40.93005	47.991
13.9734	-50.018	48.0007
13.9755	-51.4148	48.0105
13.9748	-46.8461	48.0203
13.9766	-42.4873	48.03
13.97789	-39.8436	48.0398
13.9778	-40.356	48.0496
13.9794	-44.1009	48.0593
13.98	-50.6797	48.0691
13.9806	-51.5887	48.0789
13.9817	-45.5113	48.0886
13.982	-40.1747	48.0984
13.983	-38.5827	48.1082
13.9828	-46.3988	48.11792
13.984	-49.4795	48.1277
13.985	-49.15662	48.1375
13.9856	-47.8184	48.1472
13.98692	-40.4688	48.157
13.9872	-39.648	48.1667
13.9886	-40.5402	48.1765
13.99	-46.1558	48.1863
13.9907	-53.6768	48.196
13.99122	-47.8596	48.2058
13.9916	-42.7764	48.2156
13.9923	-39.4172	48.2253
13.994	-40.5329	48.2351
13.99512	-49.158	48.2449
13.9953	-49.2887	48.2546
13.9958	-49.1408	48.2644
13.9974	-44.9713	48.27417
13.9982	-41.9574	48.2839
13.9984	-42.0064	48.2937
13.9982	-42.5443	48.3035
13.9996	-50.0774	48.3132
14	-50.4327	48.323
14.0016	-46.1233	48.3328
14.0031	-40.4581	48.3425
14.0027	-40.9422	48.3523
14.0041	-43.6901	48.3621
14.0042	-47.1181	48.3718
14.0052	-47.14397	48.3816
14.0067	-48.6461	48.3914
14.0071	-45.2971	48.4011
14.008	-41.205	48.4109
14.009	-40.49728	48.4207
14.0094	-44.94648	48.43042
14.0108	-49.446	48.4402
14.011	-51.3656	48.45
14.0125	-45.4463	48.4597
14.0132	-42.12006	48.4695
14.01423	-41.35918	48.4792
14.0138	-42.5622	48.489
14.0158	-45.6041	48.4988
14.0158	-48.1074	48.5085
14.017	-51.5621	48.5183
14.0178	-45.4135	48.5281
14.0189	-38.4779	48.5378
14.0199	-40.9877	48.5476
14.01963	-42.9065	48.5574
14.0213	-51.0642	48.5671
14.0227	-48.3038	48.5769
14.0229	-44.12252	48.58667
14.0239	-43.3826	48.5964
14.0244	-39.157	48.6062
14.0255	-42.9613	48.616
14.0255	-46.5854	48.6257
14.0276	-50.4909	48.6355
14.0275	-49.4304	48.6453
14.0281	-41.5742	48.655
14.0294	-38.0704	48.6648
14.0297	-41.8102	48.6746
14.03036	-47.35112	48.6843
14.031	-52.0059	48.6941
14.0335	-49.2651	48.7039
14.0327	-45.7404	48.7136
14.034	-40.743	48.7234
14.0353	-39.76049	48.7332
14.036	-44.3	48.74292
14.036	-48.9011	48.7527
14.0368	-52.9923	48.7625
14.0375	-48.54	48.7722
14.0388	-39.8614	48.782
14.0393	-38.1409	48.7917
14.0407	-43.5208	48.8015
14.0409	-47.4966	48.8113
14.0427	-50.7081	48.821
14.0431	-48.2979	48.8308
14.04325	-43.0925	48.8406
14.0452	-39.90625	48.8503
14.0456	-39.2351	48.8601
14.0456	-45.4376	48.8699
14.0469	-53.6218	48.8796
14.048	-50.1622	48.8894
14.049	-45.099	48.89917
14.0489	-39.6917	48.9089
14.0511	-39.5859	48.9187
14.0507	-45.3158	48.9285
14.051	-47.0562	48.9382
14.05309	-48.5687	48.948
14.0533	-45.58	48.9578
14.054	-43.0542	48.9675
14.056	-39.4091	48.9773
14.0565	-41.1024	48.9871
14.0568	-49.786	48.9968
14.05738	-49.6087	49.0066
14.059	-48.3922	49.0164
14.0587	-43.9911	49.0261
14.0605	-40.0616	49.0359