File: data/processed_data_files/tensile/0.254_solid_dimension_typeiv_4545_r(4).dat
MTS793|BTW|ENU|1|2|.|/|:|1|0|0|A

Data Header:			0.254_solid_dimension_typeiv_4545_r0			Time:	20.0178	s	4/13/2019 8:41:36 PM
Data Acquisition:	Timed
Station Name:	ft40.cfg
Test File Name:	monotonic_0.2540_typeiv_solid_4545_dimension.tst
Displacement	Force	Running Time
mm	N	s
-40.0346	-279.943	0.0227051
-40.0328	-284.038	0.0422363
-40.0339	-282.598	0.0617676
-40.033	-278.913	0.0812988
-40.0311	-276.721	0.10083
-40.0306	-286.585	0.120361
-40.0284	-274.7113	0.139893
-40.0256	-276.311	0.159424
-40.025	-277.035	0.178955
-40.0222	-273.764	0.198486
-40.0216	-271.228	0.218018
-40.0195	-277.186	0.237549
-40.0185	-272.008	0.25708
-40.0161	-269.783	0.276611
-40.0143	-272.476	0.296143
-40.0129	-271.42	0.315674
-40.011	-264.039	0.335205
-40.0095	-268.086	0.354736
-40.0102	-268.577	0.374268
-40.0063	-265.138	0.393799
-40.00581	-262.674	0.41333
-40.0034	-263.797	0.432861
-40.0024	-261.959	0.452393
-40.0007	-260.813	0.471924
-39.99828	-263.149	0.491455
-39.9963	-259.647	0.510986
-39.9939	-255.667	0.530518
-39.994	-259.209	0.550049
-39.9921	-259.066	0.56958
-39.9902	-250.831	0.589111
-39.9885	-255.582	0.608643
-39.98703	-256.03	0.628174
-39.9842	-251.645	0.647705
-39.9844	-248.818	0.667236
-39.9816	-255.504	0.686768
-39.9813	-245.779	0.706299
-39.9782	-249.437	0.72583
-39.97691	-251.917	0.745361
-39.9758	-245.181	0.764893
-39.9742	-240.45	0.784424
-39.973	-249.363	0.803955
-39.9716	-242.5	0.823486
-39.9698	-239.197	0.843018
-39.9684	-241.454	0.862549
-39.9652	-241.462	0.88208
-39.964	-235.9	0.901611
-39.96246	-240.991	0.921143
-39.9602	-236.625	0.940674
-39.9588	-234.057	0.960205
-39.9582	-235.259	0.979736
-39.9555	-236.236	0.999268
-39.9542	-231.24	1.0188
-39.9514	-231.363	1.03833
-39.9507	-232.4931	1.05786
-39.9491	-229.8	1.07739
-39.94912	-227.552	1.09692
-39.9463	-229.095	1.11646
-39.9452	-225.166	1.13599
-39.94429	-224.621	1.15552
-39.9414	-226.662	1.17505
-39.9403	-224.409	1.19458
-39.9382	-218.456	1.21411
-39.9367	-221.953	1.23364
-39.9343	-224.44	1.25317
-39.9331	-215.815	1.27271
-39.931	-218.302	1.29224
-39.9288	-220.481	1.31177
-39.9293	-215.58	1.3313
-39.9268	-213.824	1.35083
-39.9252	-221.075	1.37036
-39.9236	-208.874	1.38989
-39.92194	-209.598	1.40942
-39.9202	-212.033	1.42896
-39.9201	-209.8665	1.44849
-39.9169	-203.113	1.46802
-39.9149	-212.014	1.48755
-39.9144	-207.324	1.50708
-39.9118	-203.399	1.52661
-39.9108	-205.081	1.54614
-39.9084	-204.529	1.56567
-39.90757	-199.257	1.58521
-39.906	-204.265	1.60474
-39.904	-201.367	1.62427
-39.9025	-196.511	1.6438
-39.9012	-196.562	1.66333
-39.8988	-200.022	1.68286
-39.8971	-196.429	1.70239
-39.8962	-192.401	1.72192
-39.8955	-195.103	1.74146
-39.893	-193.487	1.76099
-39.8909	-189.901	1.78052
-39.8899	-190.339	1.80005
-39.8885	-192.161	1.81958
-39.8868	-182.626	1.83911
-39.8842	-189.484	1.85864
-39.8826	-188.161	1.87817
-39.8816	-183.256	1.89771
-39.88	-181.004	1.91724
-39.8769	-189.16	1.93677
-39.8766	-179.634	1.9563
-39.8759	-181.321	1.97583
-39.8736	-183.173	1.99536
-39.8718	-177.815	2.01489
-39.8696	-175.35	2.03442
-39.869	-183.277	2.05396
-39.8678	-175.112	2.07349
-39.865	-173.775	2.09302
-39.8636	-176.518	2.11255
-39.86108	-174.1004	2.13208
-39.86021	-167.264	2.15161
-39.85894	-174.368	2.17114
-39.8575	-171.148	2.19067
-39.8545	-167.1366	2.21021
-39.8535	-168.853	2.22974
-39.85236	-169.045	2.24927
-39.8511	-162.739	2.2688
-39.8486	-164.9679	2.28833
-39.8469	-165.315	2.30786
-39.8455	-161.774	2.32739
-39.8437	-157.254	2.34692
-39.8425	-161.41	2.36646
-39.8416	-162.432	2.38599
-39.8397	-154.688	2.40552
-39.8379	-158.739	2.42505
-39.83614	-157.599	2.44458
-39.8344	-153.427	2.46411
-39.8335	-153.7802	2.48364
-39.8314	-156.642	2.50317
-39.8287	-147.613	2.52271
-39.8281	-151.964	2.54224
-39.8269	-152.545	2.56177
-39.8247	-146.658	2.5813
-39.8222	-143.391	2.60083
-39.8221	-150.452	2.62036
-39.8196	-142.084	2.63989
-39.8163	-143.409	2.65942
-39.8158	-144.48	2.67896
-39.8146	-140.431	2.69849
-39.8134	-135.591	2.71802
-39.8114	-145.267	2.73755
-39.8106	-137.521	2.75708
-39.8076	-133.628	2.77661
-39.8064	-136.629	2.79614
-39.8041	-138.246	2.81567
-39.8031	-130.765	2.83521
-39.801	-134.572	2.85474
-39.7996	-134.621	2.87427
-39.7986	-130.021	2.8938
-39.7972	-128.505	2.91333
-39.7946	-130.914	2.93286
-39.7936	-125.651	2.95239
-39.79319	-125.111	2.97192
-39.7893	-128.99	2.99146
-39.7877	-124.1128	3.01099
-39.7877	-120.268	3.03052
-39.7857	-121.718	3.05005
-39.7851	-123.213	3.06958
-39.78302	-117.319	3.08911
-39.7806	-119.916	3.10864
-39.779	-118.934	3.12817
-39.7771	-112.595	3.14771
-39.77626	-114.974	3.16724
-39.7746	-117.8844	3.18677
-39.7717	-107.911	3.2063
-39.7709	-111.4787	3.22583
-39.7699	-113.832	3.24536
-39.7687	-108.39	3.26489
-39.7646	-105.145	3.28442
-39.7643	-112.341	3.30396
-39.7628	-105.275	3.32349
-39.7611	-104.904	3.34302
-39.7594	-105.841	3.36255
-39.75666	-103.487	3.38208
-39.7569	-97.9327	3.40161
-39.75597	-104.956	3.42114
-39.7527	-100.627	3.44067
-39.7517	-95.7511	3.46021
-39.75	-96.6787	3.47974
-39.74752	-99.0654	3.49927
-39.747	-93.9263	3.5188
-39.7459	-94.9692	3.53833
-39.7431	-94.4662	3.55786
-39.7419	-91.4021	3.57739
-39.7402	-92.1796	3.59692
-39.7388	-93.5728	3.61646
-39.7368	-89.5992	3.63599
-39.7351	-85.97113	3.65552
-39.7336	-89.1561	3.67505
-39.7317	-87.5839	3.69458
-39.7305	-82.453	3.71411
-39.7282	-81.7125	3.73364
-39.727	-86.8605	3.75317
-39.7251	-77.4929	3.77271
-39.7237	-79.9433	3.79224
-39.7225	-80.6731	3.81177
-39.7203	-75.0243	3.8313
-39.7186	-73.8525	3.85083
-39.7174	-80.8185	3.87036
-39.7148	-71.2404	3.88989
-39.71463	-72.3831	3.90942
-39.7122	-74.2431	3.92896
-39.711	-71.843	3.94849
-39.7095	-65.43718	3.96802
-39.708	-72.0758	3.98755
-39.7062	-68.58976	4.00708
-39.7043	-64.2485	4.02661
-39.7013	-67.4542	4.04614
-39.7016	-65.1373	4.06567
-39.6989	-59.0116	4.08521
-39.6982	-64.4858	4.10474
-39.6954	-64.1035	4.12427
-39.6943	-60.3122	4.1438
-39.6926	-56.8385	4.16333
-39.691	-59.5182	4.18286
-39.68993	-56.14035	4.20239
-39.6881	-54.807	4.22192
-39.6867	-56.255	4.24146
-39.6843	-53.0415	4.26099
-39.6835	-51.21064	4.28052
-39.68042	-52.6037	4.30005
-39.6803	-53.5467	4.31958
-39.6778	-43.458	4.33911
-39.67601	-47.7085	4.35864
-39.67498	-49.1956	4.37817
-39.673	-43.7669	4.39771
-39.67141	-42.6562	4.41724
-39.6703	-47.3153	4.43677
-39.6687	-38.5316	4.4563
-39.6665	-41.4955	4.47583
-39.6639	-42.6536	4.49536
-39.6644	-37.0631	4.51489
-39.6623	-33.015	4.53442
-39.65921	-42.28054	4.55396
-39.65834	-34.2844	4.57349
-39.658	-33.9161	4.59302
-39.6557	-35.1167	4.61255
-39.6536	-34.1485	4.63208
-39.6521	-26.8494	4.65161
-39.6513	-31.747	4.67114
-39.6491	-28.7133	4.69067
-39.6467	-26.2821	4.71021
-39.6457	-27.68552	4.72974
-39.6449	-28.3953	4.74927
-39.6419	-21.9214	4.7688
-39.64201	-22.5126	4.78833
-39.6383	-24.9866	4.80786
-39.63644	-21.9889	4.82739
-39.6369	-19.3195	4.84692
-39.6342	-19.86009	4.86646
-39.6331	-20.8776	4.88599
-39.6312	-15.3596	4.90552
-39.6298	-19.5221	4.92505
-39.6288	-16.301	4.94458
-39.6258	-12.3974	4.96411
-39.6243	-13.9942	4.98364
-39.623	-16.0757	5.00317
-39.62146	-6.71194	5.02271
-39.619	-8.78069	5.04224
-39.6182	-11.9204	5.06177
-39.6165	-6.8142	5.0813
-39.6153	-3.28548	5.10083
-39.6138	-10.93834	5.12036
-39.6114	-1.7929	5.13989
-39.6099	-3.58878	5.15942
-39.6069	-6.09693	5.17896
-39.607	0.371497	5.19849
-39.6048	4.36133	5.21802
-39.6045	-4.39442	5.23755
-39.6024	0.982425	5.25708
-39.60117	5.25206	5.27661
-39.5978	4.22343	5.29614
-39.5968	3.42192	5.31567
-39.5941	9.11058	5.33521
-39.593	5.34378	5.35474
-39.5924	8.27308	5.37427
-39.5913	11.57934	5.3938
-39.5872	12.29018	5.41333
-39.5878	7.91384	5.43286
-39.5857	13.5816	5.45239
-39.58337	15.8792	5.47192
-39.5815	12.2849	5.49146
-39.5808	14.50681	5.51099
-39.5798	20.1018	5.53052
-39.5769	18.7819	5.55005
-39.5768	16.6977	5.56958
-39.5741	22.8957	5.58911
-39.5725	20.5742	5.60864
-39.5705	21.8889	5.62817
-39.5696	28.526	5.64771
-39.5678	27.4615	5.66724
-39.5655	21.0554	5.68677
-39.564	31.2815	5.7063
-39.5625	28.3051	5.72583
-39.5611	27.65	5.74536
-39.5593	31.2289	5.76489
-39.5581	36.4548	5.78442
-39.5566	28.1045	5.80396
-39.5539	36.1159	5.82349
-39.5524	37.2363	5.84302
-39.5506	34.9659	5.86255
-39.5515	37.0973	5.88208
-39.5476	45.3732	5.90161
-39.5464	37.27409	5.92114
-39.5453	40.4087	5.94067
-39.5422	43.4933	5.96021
-39.5418	43.6042	5.97974
-39.53857	42.7868	5.99927
-39.5379	47.8339	6.0188
-39.5364	45.1493	6.03833
-39.5352	45.4442	6.05786
-39.5339	50.38	6.07739
-39.5324	52.73999	6.09692
-39.5302	49.0957	6.11646
-39.5285	50.4915	6.13599
-39.5279	56.5998	6.15552
-39.5251	53.0271	6.17505
-39.524	53.6132	6.19458
-39.5214	58.569	6.21411
-39.5196	57.6437	6.23364
-39.5192	56.2557	6.25317
-39.5163	63.0949	6.27271
-39.5163	60.4628	6.29224
-39.5135	57.9145	6.31177
-39.5128	65.5802	6.3313
-39.5114	66.7718	6.35083
-39.5085	59.4936	6.37036
-39.5066	69.0135	6.38989
-39.5057	68.026	6.40942
-39.5048	66.8296	6.42896
-39.5034	68.6173	6.44849
-39.5014	75.6619	6.46802
-39.4979	67.3506	6.48755
-39.4971	73.2453	6.50708
-39.4962	75.781	6.52661
-39.4935	73.6154	6.54614
-39.4931	75.1345	6.56567
-39.4912	81.0704	6.58521
-39.4899	77.7486	6.60474
-39.4881	77.69236	6.62427
-39.4869	83.3101	6.6438
-39.485	83.9661	6.66333
-39.4831	81.43116	6.68286
-39.4817	85.5551	6.70239
-39.4792	85.0077	6.72192
-39.4789	84.7038	6.74146
-39.4769	87.9643	6.76099
-39.4751	90.0994	6.78052
-39.4736	89.23838	6.80005
-39.471	86.7128	6.81958
-39.4698	94.9922	6.83911
-39.4689	93.0868	6.85864
-39.4668	92.1683	6.87817
-39.4654	97.8406	6.89771
-39.4635	97.8852	6.91724
-39.4629	93.4381	6.93677
-39.4601	102.349	6.9563
-39.4582	99.127	6.97583
-39.4565	97.0927	6.99536
-39.4552	104.625	7.01489
-39.4539	108.575	7.03442
-39.4515	98.9108	7.05396
-39.4502	105.507	7.07349
-39.4497	108.665	7.09302
-39.4485	106.747	7.11255
-39.4458	109.162	7.13208
-39.4442	113.103	7.15161
-39.4428	106.152	7.17114
-39.44091	111.509	7.19067
-39.4398	115.402	7.21021
-39.43639	114.429	7.22974
-39.4356	112.75	7.24927
-39.4339	117.875	7.2688
-39.4329	118.6004	7.28833
-39.4303	118.377	7.30786
-39.43	119.792	7.32739
-39.4279	121.0923	7.34692
-39.4262	120.694	7.36646
-39.4247	122.2291	7.38599
-39.4221	127.409	7.40552
-39.4207	121.403	7.42505
-39.4199	124.689	7.44458
-39.4183	130.378	7.46411
-39.4161	129.3636	7.48364
-39.4157	124.953	7.50317
-39.4129	133.45	7.52271
-39.4114	131.4	7.54224
-39.41	131.453	7.56177
-39.4081	134.452	7.5813
-39.407	136.745	7.60083
-39.4044	130.495	7.62036
-39.40424	139.306	7.63989
-39.40147	139.833	7.65942
-39.40044	135.577	7.67896
-39.3987	139.339	7.69849
-39.3974	146.063	7.71802
-39.3952	137.25	7.73755
-39.3936	142.908	7.75708
-39.392	145.717	7.77661
-39.3909	143.878	7.79614
-39.3887	144.7	7.81567
-39.387	152.111	7.83521
-39.3851	147.306	7.85474
-39.3841	147.054	7.87427
-39.3812	151.825	7.8938
-39.3806	153.214	7.91333
-39.3792	150.662	7.93286
-39.3765	154.297	7.95239
-39.3751	155.9	7.97192
-39.3737	154.199	7.99146
-39.37244	158.507	8.01099
-39.371	160.775	8.03052
-39.3689	158.743	8.05005
-39.3681	157.071	8.06958
-39.3658	165.061	8.08911
-39.3644	161.623	8.10864
-39.3635	159.816	8.12817
-39.3617	167.1377	8.14771
-39.3599	168.841	8.16724
-39.35841	163.014	8.18677
-39.3569	171.832	8.2063
-39.3542	168.546	8.22583
-39.3529	166.461	8.24536
-39.3516	172.754	8.26489
-39.3495	175.267	8.28442
-39.3485	166.316	8.30396
-39.3451	176.092	8.32349
-39.34483	179.085	8.34302
-39.3431	174.538	8.36255
-39.3425	176.251	8.38208
-39.3399	183.5397	8.40161
-39.3376	177.923	8.42114
-39.3373	180.6783	8.44067
-39.3355	183.99	8.46021
-39.3336	182.229	8.47974
-39.3321	182.018	8.49927
-39.3308	188.609	8.5188
-39.3287	186.295	8.53833
-39.32666	184.471	8.55786
-39.3263	187.708	8.57739
-39.3226	191.266	8.59692
-39.3219	188.542	8.61646
-39.3199	188.792	8.63599
-39.319	194.615	8.65552
-39.3175	192.321	8.67505
-39.3152	194.104	8.69458
-39.3142	198.071	8.71411
-39.3117	196.115	8.73364
-39.3104	193.606	8.75317
-39.3086	202.872	8.77271
-39.3076	199.808	8.79224
-39.3052	199.657	8.81177
-39.3039	202.118	8.8313
-39.3029	206.854	8.85083
-39.3015	198.111	8.87036
-39.2993	207.279	8.88989
-39.2972	206.476	8.90942
-39.2968	205.276	8.92896
-39.29488	207.909	8.94849
-39.2923	213.412	8.96802
-39.2908	204.644	8.98755
-39.2904	212.068	9.00708
-39.2883	215.108	9.02661
-39.2858	213.44	9.04614
-39.2848	212.83	9.06567
-39.2833	218.486	9.08521
-39.2823	215.2121	9.10474
-39.2799	215.9753	9.12427
-39.2787	219.726	9.1438
-39.2758	222.303	9.16333
-39.2748	218.506	9.18286
-39.2734	224.572	9.20239
-39.2715	225.057	9.22192
-39.2702	222.589	9.24146
-39.2683	223.674	9.26099
-39.267	229.204	9.28052
-39.2653	227.684	9.30005
-39.2626	226.19	9.31958
-39.2622	231.981	9.33911
-39.25946	229.752	9.35864
-39.2594	230.995	9.37817
-39.2567	236.015	9.39771
-39.2551	235.308	9.41724
-39.2537	229.319	9.43677
-39.2518	239.485	9.4563
-39.25074	238.16	9.47583
-39.2489	235.157	9.49536
-39.2471	240.042	9.51489
-39.246	244.011	9.53442
-39.2446	237.3812	9.55396
-39.2423	244.978	9.57349
-39.2413	244.703	9.59302
-39.2397	242.131	9.61255
-39.2379	245.47	9.63208
-39.2355	251.932	9.65161
-39.23439	244.624	9.67114
-39.2325	248.166	9.69067
-39.2315	251.4574	9.71021
-39.2303	251.215	9.72974
-39.22794	251.077	9.74927
-39.226	255.875	9.7688
-39.22588	253.7	9.78833
-39.22287	252.62	9.80786
-39.2212	256.68	9.82739
-39.2196	259.077	9.84692
-39.2178	255.955	9.86646
-39.2167	259.397	9.88599
-39.2145	262.249	9.90552
-39.2134	259.541	9.92505
-39.212	260.039	9.94458
-39.2109	264.6109	9.96411
-39.2076	265.9	9.98364
-39.2069	262.906	10.0032
-39.206	270.337	10.0227
-39.2031	266.769	10.0422
-39.2019	265.917	10.0618
-39.2006	272.217	10.0813
-39.1989	274.915	10.10083
-39.1971	265.973	10.1204
-39.1958	275.422	10.1399
-39.1948	277.7066	10.1594
-39.1928	273.305	10.179
-39.19	275.378	10.1985
-39.1875	283.1467	10.218
-39.1886	273.571	10.2375
-39.1861	279.119	10.25708
-39.1836	283.259	10.2766
-39.1811	280.432	10.2961
-39.1804	281.14	10.3157
-39.1783	288.375	10.3352
-39.1782	283.454	10.3547
-39.1754	283.666	10.3743
-39.1743	288.349	10.3938
-39.1729	288.889	10.41333
-39.1711	285.535	10.4329
-39.1698	290.6134	10.4524
-39.1678	292.017	10.4719
-39.1664	288.305	10.4915
-39.1653	292.32	10.511
-39.1632	296.684	10.5305
-39.1611	293.566	10.55
-39.1595	292.613	10.56958
-39.1576	299.816	10.5891
-39.1556	296.951	10.6086
-39.1541	297.46	10.6282
-39.1521	301.5	10.6477
-39.1516	302.22	10.6672
-39.1497	298.255	10.6868
-39.1465	306.219	10.7063
-39.1464	303.457	10.72583
-39.1444	302.081	10.7454
-39.1433	307.463	10.7649
-39.1414	312.525	10.7844
-39.1401	302.8512	10.804
-39.1379	310.132	10.8235
-39.1359	311.799	10.843
-39.1346	309.904	10.8625
-39.1334	310.917	10.88208
-39.131	316.542	10.9016
-39.1299	309.848	10.9211
-39.1278	315.6264	10.9407
-39.12706	318.028	10.9602
-39.125	317.265	10.9797
-39.1231	314.408	10.9993
-39.1217	322.166	11.0188
-39.1184	320.8812	11.03833
-39.1191	317.2229	11.0579
-39.1168	321.198	11.0774
-39.11602	324.061	11.0969
-39.1141	323.246	11.1165
-39.1131	323.381	11.136
-39.111	328.422	11.1555
-39.10865	324.324	11.175
-39.1081	327.3739	11.19458
-39.10537	331.913	11.2141
-39.1036	331.692	11.2336
-39.1007	326.7	11.2532
-39.1012	335.304	11.2727
-39.099	332.817	11.2922
-39.0975	331.787	11.3118
-39.0953	337.039	11.3313
-39.0939	338.9675	11.35083
-39.0937	332.191	11.3704
-39.0912	342.77	11.3899
-39.09016	340.0766	11.4094
-39.087	337.042	11.429
-39.0866	341.809	11.4485
-39.0849	347.806	11.468
-39.083	338.818	11.4875
-39.0811	344.4075	11.50708
-39.0784	347.45	11.5266
-39.0782	345.462	11.5461
-39.076	347.226	11.5657
-39.0751	351.944	11.5852
-39.07291	345.718	11.6047
-39.0722	347.599	11.6243
-39.0694	353.96	11.6438
-39.0685	353.2836	11.66333
-39.0651	350.153	11.6829
-39.0649	354.22	11.7024
-39.0635	356.891	11.7219
-39.0615	354.16	11.7415
-39.0607	354.732	11.761
-39.0592	359.126	11.7805
-39.0564	357.68	11.8
-39.0558	358.502	11.81958
-39.0543	363.815	11.8391
-39.0518	360.171	11.8586
-39.0501	361.254	11.8782
-39.0503	365.465	11.8977
-39.0465	368.279	11.9172
-39.0464	360.269	11.9368
-39.0439	369.85	11.9563
-39.0416	368.56	11.97583
-39.0406	365.882	11.9954
-39.0387	370.696	12.0149
-39.0375	373.548	12.0344
-39.0357	364.848	12.054
-39.0338	374.808	12.0735
-39.0321	374.168	12.093
-39.0309	371.421	12.1125
-39.0293	373.454	12.13208
-39.028	381.963	12.1516
-39.0258	373.313	12.1711
-39.0239	376.999	12.1907
-39.022	380.224	12.2102
-39.0216	379.845	12.2297
-39.0197	377.996	12.2493
-39.0176	384.7392	12.2688
-39.01545	381.4035	12.28833
-39.015	380.945	12.3079
-39.0132	387.191	12.3274
-39.0108	388.368	12.3469
-39.0098	383.893	12.3665
-39.00779	388.223	12.386
-39.0068	390.781	12.4055
-39.0049	387.496	12.425
-39.0043	387.931	12.44458
-39.001	393.2056	12.4641
-38.9996	393.185	12.4836
-38.9984	387.654	12.5032
-38.9971	398.543	12.5227
-38.9947	396.207	12.5422
-38.9939	392.484	12.5618
-38.9922	398.466	12.5813
-38.9903	400.748	12.60083
-38.9879	394.0553	12.6204
-38.9876	402.939	12.6399
-38.985	401.818	12.6594
-38.98436	398.885	12.679
-38.9829	402.816	12.6985
-38.9802	407.982	12.718
-38.9795	399.725	12.7375
-38.9771	406.194	12.75708
-38.976	409.562	12.7766
-38.9739	407.968	12.7961
-38.9729	405.301	12.8157
-38.9708	413.298	12.8352
-38.969	409.39	12.8547
-38.9674	409.551	12.8743
-38.9666	414.025	12.8938
-38.9644	413.22	12.91333
-38.9632	412.712	12.9329
-38.9607	416.491	12.9524
-38.9587	417.694	12.9719
-38.9573	413.982	12.9915
-38.9566	418.136	13.011
-38.9549	422.297	13.0305
-38.9528	419.563	13.05
-38.9509	416.384	13.06958
-38.9495	425.151	13.0891
-38.9477	420.615	13.1086
-38.9464	420.132	13.1282
-38.9443	425.445	13.1477
-38.9434	425.837	13.1672
-38.9417	421.6532	13.1868
-38.9391	430.742	13.2063
-38.9385	429.0914	13.22583
-38.9364	424.918	13.2454
-38.9347	429.995	13.2649
-38.933	436.647	13.2844
-38.9313	426.037	13.304
-38.9296	433.64	13.3235
-38.9276	434.067	13.343
-38.9274	432.997	13.3625
-38.9249	433.65	13.38208
-38.9235	441.067	13.4016
-38.9216	432.77	13.4211
-38.9202	436.462	13.4407
-38.91721	440.414	13.4602
-38.9169	440.7724	13.4797
-38.9166	436.648	13.4993
-38.9132	442.864	13.5188
-38.912	442.128	13.53833
-38.9102	441.859	13.5579
-38.9102	443.973	13.5774
-38.9071	445.9003	13.5969
-38.9059	442.605	13.6165
-38.9037	446.125	13.636
-38.9023	449.665	13.6555
-38.9006	445.413	13.675
-38.8989	447.229	13.69458
-38.8978	453.889	13.7141
-38.8958	451.4964	13.7336
-38.8939	446.599	13.7532
-38.8927	454.735	13.7727
-38.891	452.822	13.7922
-38.8891	451.7319	13.8118
-38.8869	456.473	13.8313
-38.8859	460.165	13.85083
-38.88422	451.596	13.8704
-38.88203	458.857	13.8899
-38.8813	460.453	13.9094
-38.8789	457.253	13.929
-38.878	459.562	13.9485
-38.876	466.169	13.968
-38.874	456.671	13.9875
-38.8722	463.216	14.00708
-38.8712	464.479	14.0266
-38.8697	462.685	14.0461
-38.8687	463.809	14.0657
-38.86628	471.0137	14.0852
-38.8646	464.955	14.1047
-38.8624	464.454	14.1243
-38.8617	470.03	14.1438
-38.8613	469.9838	14.16333
-38.8604	467.383	14.1829
-38.8568	471.738	14.2024
-38.8537	472.047	14.2219
-38.8524	471.49	14.2415
-38.85228	473.873	14.261
-38.851	476.248	14.2805
-38.8482	472.769	14.3
-38.8478	473.106	14.31958
-38.8458	481.225	14.3391
-38.8441	476.761	14.3586
-38.8417	472.9921	14.3782
-38.8397	480.539	14.3977
-38.8384	481.924	14.4172
-38.8377	475.078	14.4368
-38.8357	484.818	14.4563
-38.8341	481.972	14.47583
-38.8333	479.603	14.4954
-38.8311	486.435	14.5149
-38.8293	488.754	14.5344
-38.8266	479.796	14.554
-38.8264	486.621	14.5735
-38.8243	489.974	14.593
-38.8229	487.375	14.6125
-38.82069	485.783	14.63208
-38.8187	491.857	14.6516
-38.8187	487.088	14.6711
-38.8163	490.094	14.6907
-38.8149	492.857	14.7102
-38.8139	492.467	14.7297
-38.8116	490.8125	14.7493
-38.8094	497.213	14.7688
-38.8085	494.321	14.78833
-38.8063	491.23	14.8079
-38.805	494.9483	14.8274
-38.8035	498.61	14.8469
-38.8009	496.3064	14.8665
-38.7992	497.109	14.886
-38.7982	500.6131	14.9055
-38.7965	497.105	14.925
-38.7945	499.91	14.94458
-38.7922	503.4	14.9641
-38.79216	502.74	14.9836
-38.7911	497.6666	15.0032
-38.7883	508.208	15.0227
-38.7865	503.665	15.0422
-38.7858	502.1463	15.0618
-38.784	507.023	15.0813
-38.7822	509.737	15.10083
-38.7803	502.14	15.1204
-38.7785	510.445	15.1399
-38.777	509.394	15.1594
-38.7756	505.945	15.179
-38.7729	511.455	15.1985
-38.7735	515.493	15.218
-38.7706	506.971	15.2375
-38.7703	511.274	15.25708
-38.7671	514.949	15.2766
-38.7646	512.951	15.2961
-38.7636	512.465	15.3157
-38.763	518.052	15.3352
-38.7598	511.111	15.3547
-38.7596	514.57	15.3743
-38.757	516.939	15.3938
-38.7561	517.484	15.41333
-38.7547	513.633	15.4329
-38.7526	519.98	15.4524
-38.751	520.73	15.4719
-38.7492	517.382	15.4915
-38.7472	518.046	15.511
-38.7462	522.926	15.5305
-38.7443	521.2605	15.55
-38.7423	519.857	15.56958
-38.7419	525.356	15.5891
-38.73938	520.358	15.6086
-38.73822	521.749	15.6282
-38.7364	527.99	15.6477
-38.7345	527.378	15.6672
-38.7329	519.386	15.6868
-38.73048	530.397	15.7063
-38.7298	528.795	15.72583
-38.7288	525.14	15.7454
-38.7263	527.576	15.7649
-38.7252	532.356	15.7844
-38.7234	524.021	15.804
-38.7216	532.055	15.8235
-38.7201	532.312	15.843
-38.7192	529.349	15.8625
-38.7166	530.983	15.88208
-38.7142	537.431	15.9016
-38.7133	529.441	15.9211
-38.7118	532.373	15.9407
-38.7103	535.59	15.9602
-38.7081	535.637	15.9797
-38.7071	532.811	15.9993
-38.7047	538.858	16.0188
-38.7038	533.78	16.03833
-38.7023	534.464	16.0579
-38.701	538.569	16.0774
-38.6986	539.276	16.0969
-38.6976	535.126	16.1165
-38.6956	538.194	16.136
-38.6941	541.9212	16.1555
-38.6933	536.817	16.175
-38.6905	539.595	16.19458
-38.6891	544.219	16.2141
-38.6876	542.389	16.2336
-38.6848	539.7406	16.2532
-38.6843	545.531	16.2727
-38.6833	542.169	16.2922
-38.6815	540.008	16.3118
-38.6802	546.551	16.3313
-38.678	548.157	16.35083
-38.6757	538.695	16.3704
-38.6747	546.272	16.3899
-38.6737	546.504	16.4094
-38.6711	544.226	16.429
-38.6699	546.575	16.4485
-38.66774	550.883	16.468
-38.6661	544.708	16.4875
-38.6645	548.485	16.50708
-38.6628	550.428	16.5266
-38.662	548.041	16.5461
-38.66	546.918	16.5657
-38.6575	554.619	16.5852
-38.6572	549.967	16.6047
-38.6549	547.558	16.6243
-38.6534	552.385	16.6438
-38.6512	553.119	16.66333
-38.6494	549.835	16.6829
-38.647	554.305	16.7024
-38.6469	553.89	16.7219
-38.6458	550.314	16.7415
-38.6439	554.081	16.761
-38.6423	556.992	16.7805
-38.6412	552.86	16.8
-38.6388	551.578	16.81958
-38.6372	559.461	16.8391
-38.6357	553.874	16.8586
-38.6324	552.445	16.8782
-38.6311	556.652	16.8977
-38.6311	558.2525	16.9172
-38.6279	551.654	16.9368
-38.6266	561.365	16.9563
-38.6256	558.249	16.97583
-38.6235	554.544	16.9954
-38.6227	560.141	17.0149
-38.62096	564.731	17.0344
-38.6203	552.589	17.054
-38.6171	558.924	17.0735
-38.6167	562.676	17.093
-38.6138	559.002	17.1125
-38.6125	560.094	17.13208
-38.6111	564.875	17.1516
-38.6097	557.334	17.1711
-38.6079	560.307	17.1907
-38.6062	563.924	17.2102
-38.6053	560.983	17.2297
-38.6038	557.992	17.2493
-38.602	564.653	17.2688
-38.5993	563.001	17.28833
-38.5979	561.153	17.3079
-38.5962	562.382	17.3274
-38.5947	564.626	17.3469
-38.5938	562.248	17.3665
-38.5906	564.058	17.386
-38.5904	566.5741	17.4055
-38.5885	560.845	17.425
-38.5873	563.185	17.44458
-38.5841	568.349	17.4641
-38.5836	566.386	17.4836
-38.5814	559.96	17.5032
-38.5799	569.5	17.5227
-38.5797	566.158	17.5422
-38.5769	563.353	17.5618
-38.5746	567.789	17.5813
-38.5739	568.743	17.60083
-38.5714	561.411	17.6204
-38.5718	571.231	17.6399
-38.5688	568.474	17.6594
-38.5667	563.487	17.679
-38.56567	566.745	17.6985
-38.56398	572.527	17.718
-38.5616	562.969	17.7375
-38.5611	567.118	17.75708
-38.55941	569.8949	17.7766
-38.5569	567.494	17.7961
-38.5562	567.985	17.8157
-38.55415	573.487	17.8352
-38.5533	566.525	17.8547
-38.5505	566.174	17.8743
-38.5493	572.096	17.8938
-38.5477	571.01	17.91333
-38.5463	566.692	17.9329
-38.5445	570.64	17.9524
-38.5427	571.166	17.9719
-38.5413	567.751	17.9915
-38.5396	569.7561	18.011
-38.53817	572.287	18.0305
-38.5363	569.039	18.05
-38.5341	567.436	18.06958
-38.5318	573.409	18.0891
-38.532	569.468	18.1086
-38.5301	568.309	18.1282
-38.5288	572.025	18.1477
-38.5268	571.921	18.1672
-38.5243	563.874	18.1868
-38.5232	574.3432	18.2063
-38.5219	572.113	18.22583
-38.5192	569.3595	18.2454
-38.518	573.182	18.2649
-38.5154	573.535	18.2844
-38.5158	565.085	18.304
-38.51347	574.41	18.3235
-38.5125	573.348	18.343
-38.51	569.415	18.3625
-38.5084	570.86	18.38208
-38.5066	575.692	18.4016
-38.5066	568.539	18.4211
-38.5037	570.094	18.4407
-38.5013	573.29	18.4602
-38.4993	571.026	18.4797
-38.4993	570.082	18.4993
-38.4993	575.229	18.5188
-38.4955	572.181	18.53833
-38.4939	568.342	18.5579
-38.4928	572.03	18.5774
-38.4912	574.146	18.5969
-38.4879	571.0318	18.6165
-38.48682	570.722	18.636
-38.4858	573.915	18.6555
-38.48362	570.508	18.675
-38.4828	570.654	18.69458
-38.4813	571.99	18.7141
-38.4788	572.623	18.7336
-38.4769	569.2207	18.7532
-38.4759	577.677	18.7727
-38.4746	570.173	18.7922
-38.4725	568.5332	18.8118
-38.4705	573.96	18.8313
-38.4701	575.671	18.85083
-38.468	565.711	18.8704
-38.4662	572.798	18.8899
-38.4651	574.019	18.9094
-38.4626	570.075	18.929
-38.4617	573.15	18.9485
-38.4602	576.7547	18.968
-38.4589	566.357	18.9875
-38.4557	572.168	19.00708
-38.4545	573.836	19.0266
-38.4535	572.344	19.0461
-38.4521	569.609	19.0657
-38.4498	573.722	19.0852
-38.4483	571.952	19.1047
-38.4474	572.247	19.1243
-38.4447	573.549	19.1438
-38.4445	571.963	19.16333
-38.4415	570.206	19.1829
-38.4401	573.274	19.2024
-38.4388	573.659	19.2219
-38.4373	566.658	19.2415
-38.435	570.615	19.261
-38.43367	574.7533	19.2805
-38.4324	570.817	19.3
-38.43	567.325	19.31958
-38.4291	575.271	19.3391
-38.4272	570.72	19.3586
-38.4265	569.125	19.3782
-38.42371	572.9	19.3977
-38.4215	574.025	19.4172
-38.4211	564.651	19.4368
-38.4183	575.545	19.4563
-38.4174	572.9	19.47583
-38.4155	566.695	19.4954
-38.4139	571.785	19.5149
-38.41283	576.499	19.5344
-38.411	565.437	19.554
-38.4105	572.034	19.5735
-38.4084	571.085	19.593
-38.4065	568.715	19.6125
-38.4054	570.985	19.63208
-38.403	575.118	19.6516
-38.4017	566	19.6711
-38.4007	568.856	19.6907
-38.39785	573.185	19.7102
-38.3971	570.341	19.7297
-38.3946	565.962	19.7493
-38.3931	573.205	19.7688
-38.3906	569.775	19.78833
-38.3892	568.912	19.8079
-38.388	571.334	19.8274
-38.3868	569.803	19.8469
-38.3852	568.023	19.8665
-38.3836	567.961	19.886
-38.381	571.662	19.9055
-38.3794	567.515	19.925
-38.3788	566.062	19.94458
-38.3768	572.844	19.9641
-38.3756	570.564	19.9836
-38.3732	563.367	20.0032
-38.3737	570.09	20.0129

Data Header:			0.254_solid_dimension_typeiv_4545_r0			Time:	40.0178	s	4/13/2019 8:41:56 PM
Data Acquisition:	Timed
Station Name:	ft40.cfg
Test File Name:	monotonic_0.2540_typeiv_solid_4545_dimension.tst
Displacement	Force	Running Time
mm	N	s
-38.371	571.733	20.0227
-38.3711	567.037	20.0422
-38.3696	566.174	20.0618
-38.3673	569.995	20.0813
-38.3653	570.461	20.10083
-38.3636	562.5188	20.1204
-38.3603	570.291	20.1399
-38.36068	571.364	20.1594
-38.3584	563.951	20.179
-38.3574	567.616	20.1985
-38.3567	571.684	20.218
-38.3544	563.614	20.2375
-38.3521	569.227	20.25708
-38.3503	569.836	20.2766
-38.3488	566.065	20.2961
-38.3459	564.83	20.3157
-38.3454	570.717	20.3352
-38.3428	566.164	20.3547
-38.3426	564.175	20.3743
-38.3407	569.814	20.3938
-38.3397	568.615	20.41333
-38.3378	567.247	20.4329
-38.3364	565.84	20.4524
-38.3348	566.976	20.4719
-38.3328	564.563	20.4915
-38.3318	566.751	20.511
-38.3295	569.082	20.5305
-38.3279	564.312	20.55
-38.3276	562.463	20.56958
-38.3248	570.529	20.5891
-38.3234	565.093	20.6086
-38.3205	562.774	20.6282
-38.3199	568.809	20.6477
-38.3174	568.331	20.6672
-38.3169	558.921	20.6868
-38.3141	568.17	20.7063
-38.3142	565.985	20.72583
-38.3114	562.624	20.7454
-38.3092	566.689	20.7649
-38.3093	568.957	20.7844
-38.3066	558.987	20.804
-38.3055	567.549	20.8235
-38.3036	569.605	20.843
-38.3026	562.385	20.8625
-38.2996	563.068	20.88208
-38.2985	567.937	20.9016
-38.2974	561.2179	20.9211
-38.296	563.774	20.9407
-38.2934	566.7912	20.9602
-38.292	562.871	20.9797
-38.2906	560.438	20.9993
-38.2887	566.316	21.0188
-38.286	564.121	21.03833
-38.28561	561.518	21.0579
-38.28418	563.48	21.0774
-38.2834	566.152	21.0969
-38.2809	561.285	21.1165
-38.2793	562.207	21.136
-38.2781	565.884	21.1555
-38.2764	561.371	21.175
-38.2742	562.086	21.19458
-38.2729	565.43	21.2141
-38.2716	562.813	21.2336
-38.27018	558.309	21.2532
-38.2677	566.97	21.2727
-38.2664	562.035	21.2922
-38.2648	560.191	21.3118
-38.2619	564.66	21.3313
-38.2624	565.8999	21.35083
-38.2599	558.932	21.3704
-38.25774	565.556	21.3899
-38.2557	562.61	21.4094
-38.2548	559.09	21.429
-38.25407	562.394	21.4485
-38.2512	566.655	21.468
-38.25	556.751	21.4875
-38.2489	561.786	21.50708
-38.2471	565.497	21.5266
-38.24358	560.622	21.5461
-38.24342	559.817	21.5657
-38.24123	565.151	21.5852
-38.2401	560.923	21.6047
-38.2367	559.823	21.6243
-38.236	563.956	21.6438
-38.2347	560.648	21.66333
-38.2321	559.159	21.6829
-38.2328	561.487	21.7024
-38.2306	563.233	21.7219
-38.2287	557.076	21.7415
-38.2272	559.36	21.761
-38.2252	563.7	21.7805
-38.2235	559.948	21.8
-38.2222	557.062	21.81958
-38.2211	565.261	21.8391
-38.2189	557.933	21.8586
-38.2186	558.337	21.8782
-38.21579	564.411	21.8977
-38.213	561.392	21.9172
-38.2132	553.707	21.9368
-38.2094	562.887	21.9563
-38.209	562.454	21.97583
-38.2067	557.162	21.9954
-38.2058	561.127	22.0149
-38.2044	564.223	22.0344
-38.2029	556.452	22.054
-38.2006	562.062	22.0735
-38.1996	562.47	22.093
-38.1982	556.193	22.1125
-38.1962	557.949	22.13208
-38.1936	564.17	22.1516
-38.1921	556.138	22.1711
-38.1923	556.217	22.1907
-38.1888	561.507	22.2102
-38.1882	558.197	22.2297
-38.1852	556.774	22.2493
-38.185	559.27	22.2688
-38.1827	557.9718	22.28833
-38.1813	555.347	22.3079
-38.1808	560.209	22.3274
-38.1785	559.904	22.3469
-38.1771	555.7052	22.3665
-38.1742	557.4187	22.386
-38.1735	561.518	22.4055
-38.1713	556.109	22.425
-38.1695	555.9093	22.44458
-38.16806	559.922	22.4641
-38.1659	558.94	22.4836
-38.1655	554.535	22.5032
-38.1629	562.334	22.5227
-38.1622	556.389	22.5422
-38.1611	553.749	22.5618
-38.1587	560.738	22.5813
-38.1569	561.418	22.60083
-38.15501	551.311	22.6204
-38.1535	561.043	22.6399
-38.1514	560.644	22.6594
-38.1505	555.917	22.679
-38.14978	557.558	22.6985
-38.146	562.723	22.718
-38.1459	551.369	22.7375
-38.1441	557.258	22.75708
-38.1423	561.521	22.7766
-38.14	555.422	22.7961
-38.1391	553.781	22.8157
-38.138	561.2854	22.8352
-38.1351	556.225	22.8547
-38.1347	553.335	22.8743
-38.1328	557.8512	22.8938
-38.1316	557.489	22.91333
-38.1296	555.577	22.9329
-38.1279	556.5611	22.9524
-38.12653	557.525	22.9719
-38.1251	552.547	22.9915
-38.1236	557.284	23.011
-38.1209	558.52	23.0305
-38.1198	556.171	23.05
-38.1179	551.9184	23.06958
-38.1168	560.979	23.0891
-38.1153	555.949	23.1086
-38.1135	554.846	23.1282
-38.1107	557.653	23.1477
-38.1097	558.499	23.1672
-38.1071	551.433	23.1868
-38.10545	559.944	23.2063
-38.1047	555.64	23.22583
-38.103	553.491	23.2454
-38.1026	556.76	23.2649
-38.101	561.365	23.2844
-38.0993	550.341	23.304
-38.0972	556.251	23.3235
-38.0948	557.152	23.343
-38.0937	554.113	23.3625
-38.0917	555.184	23.38208
-38.09	560.626	23.4016
-38.0896	551.03	23.4211
-38.0877	554.251	23.4407
-38.0843	559.402	23.4602
-38.08411	555.183	23.4797
-38.0822	553.699	23.4993
-38.0809	557.344	23.5188
-38.0793	555.774	23.53833
-38.0767	551.31	23.5579
-38.0747	555.308	23.5774
-38.07436	556.065	23.5969
-38.0719	552.776	23.6165
-38.0708	554.112	23.636
-38.0677	557.585	23.6555
-38.0669	550.597	23.675
-38.06559	551.164	23.69458
-38.0648	559.191	23.7141
-38.063	554.79	23.7336
-38.0616	548.629	23.7532
-38.0591	559.121	23.7727
-38.0579	556.433	23.7922
-38.0563	551.221	23.8118
-38.055	556.514	23.8313
-38.0531	556.947	23.85083
-38.0528	549.076	23.8704
-38.0493	556.519	23.8899
-38.0486	556.1723	23.9094
-38.0459	549.612	23.929
-38.0452	554.402	23.9485
-38.0442	558.975	23.968
-38.0411	549.263	23.9875
-38.0394	553.237	24.00708
-38.0387	556.959	24.0266
-38.037	552.775	24.0461
-38.0362	554.41	24.0657
-38.0324	555.809	24.0852
-38.0321	551.768	24.1047
-38.0295	551.247	24.1243
-38.0302	555.734	24.1438
-38.0261	554.941	24.16333
-38.0244	551.113	24.1829
-38.02285	552.827	24.2024
-38.0216	556.234	24.2219
-38.0208	550.7417	24.2415
-38.0192	552.357	24.261
-38.0175	553.689	24.2805
-38.01675	552.8042	24.3
-38.0137	551.09	24.31958
-38.0123	557.688	24.3391
-38.011	551.352	24.3586
-38.0089	550.485	24.3782
-38.0072	555.984	24.3977
-38.0055	555.203	24.4172
-38.004	547.186	24.4368
-38.0024	557.082	24.4563
-38.0011	553.442	24.47583
-37.9992	550.558	24.4954
-37.9982	554.12	24.5149
-37.996	555.243	24.5344
-37.9936	546.853	24.554
-37.9925	553.882	24.5735
-37.9916	555.558	24.593
-37.9903	550.936	24.6125
-37.9885	551.408	24.63208
-37.986	558.216	24.6516
-37.9851	551.65	24.6711
-37.9837	549.236	24.6907
-37.9809	553.902	24.7102
-37.9802	550.641	24.7297
-37.9781	551.048	24.7493
-37.9761	552.666	24.7688
-37.9748	551.315	24.78833
-37.9724	548.976	24.8079
-37.9705	552.9082	24.8274
-37.9706	553.232	24.8469
-37.9683	549.2533	24.8665
-37.9661	549.552	24.886
-37.9659	555.153	24.9055
-37.9636	550.3244	24.925
-37.9616	549.557	24.94458
-37.9598	554.195	24.9641
-37.9575	553.509	24.9836
-37.9558	547.445	25.0032
-37.9554	557.053	25.0227
-37.95293	551.883	25.0422
-37.953	549.017	25.0618
-37.95079	554.451	25.0813
-37.9494	556.527	25.10083
-37.947	545.101	25.1204
-37.9451	553.486	25.1399
-37.9436	552.835	25.1594
-37.9419	549.093	25.179
-37.9407	551	25.1985
-37.9388	554.981	25.218
-37.9373	545.818	25.2375
-37.9355	550.3335	25.25708
-37.9341	554.862	25.2766
-37.9326	550.235	25.2961
-37.9316	547.213	25.3157
-37.929	553.603	25.3352
-37.928	549.762	25.3547
-37.9259	549.297	25.3743
-37.9238	552.441	25.3938
-37.9213	550.802	25.41333
-37.9214	550.208	25.4329
-37.9187	552.413	25.4524
-37.9185	553.8642	25.4719
-37.916	546.9444	25.4915
-37.9152	549.5	25.511
-37.913	554.3382	25.5305
-37.91103	550.669	25.55
-37.9093	547.596	25.56958
-37.9077	555.207	25.5891
-37.906	548.1239	25.6086
-37.90593	547.119	25.6282
-37.9037	553.5509	25.6477
-37.9013	552.4328	25.6672
-37.9005	544.756	25.6868
-37.8983	555.312	25.7063
-37.89735	552.017	25.72583
-37.8954	546.603	25.7454
-37.8935	550.928	25.7649
-37.8926	553.13	25.7844
-37.89	545.738	25.804
-37.8888	551.12	25.8235
-37.8861	550.31	25.843
-37.8856	547.947	25.8625
-37.8831	550.939	25.88208
-37.8815	554.6134	25.9016
-37.8797	546.128	25.9211
-37.8787	549.181	25.9407
-37.8761	553.501	25.9602
-37.8753	550.427	25.9797
-37.8742	547.2923	25.9993
-37.8715	551.453	26.0188
-37.8714	550.152	26.03833
-37.8691	547.325	26.0579
-37.867	550.659	26.0774
-37.8669	549.857	26.0969
-37.8646	549.807	26.1165
-37.8632	549.45	26.136
-37.8602	555.382	26.1555
-37.8586	548.808	26.175
-37.8578	547.0907	26.19458
-37.8558	554.645	26.2141
-37.8535	551.286	26.2336
-37.8533	543.365	26.2532
-37.8508	553.86	26.2727
-37.8494	549.115	26.2922
-37.8472	545.869	26.3118
-37.8469	552.416	26.3313
-37.8449	550.743	26.35083
-37.8426	542.715	26.3704
-37.8422	552.15	26.3899
-37.8397	551.615	26.4094
-37.838	546.9411	26.429
-37.8357	548.928	26.4485
-37.8335	554.202	26.468
-37.8325	545.8963	26.4875
-37.8321	548.357	26.50708
-37.8302	550.605	26.5266
-37.8282	547.028	26.5461
-37.8259	548.614	26.5657
-37.8238	553.031	26.5852
-37.8239	547.889	26.6047
-37.8213	545.177	26.6243
-37.8196	551.813	26.6438
-37.8194	551.779	26.66333
-37.8175	547.638	26.6829
-37.816	548.2323	26.7024
-37.8137	551.083	26.7219
-37.8123	546.392	26.7415
-37.8102	548.683	26.761
-37.8083	551.314	26.7805
-37.807	546.462	26.8
-37.8055	545.273	26.81958
-37.8041	554.847	26.8391
-37.8018	546.6864	26.8586
-37.7999	546.3963	26.8782
-37.7995	551.884	26.8977
-37.7974	550.641	26.9172
-37.7959	542.474	26.9368
-37.7937	552.4776	26.9563
-37.7919	548.202	26.97583
-37.7897	546.042	26.9954
-37.78933	551.745	27.0149
-37.7882	553.787	27.0344
-37.7869	542.781	27.054
-37.7845	549.026	27.0735
-37.78249	549.652	27.093
-37.782	545.856	27.1125
-37.7784	546.8158	27.13208
-37.7773	552.7392	27.1516
-37.7763	546.197	27.1711
-37.7748	546.041	27.1907
-37.7737	550.33	27.2102
-37.7716	547.008	27.2297
-37.7694	545.281	27.2493
-37.7682	550.5921	27.2688
-37.76614	548.4328	27.28833
-37.7649	543.291	27.3079
-37.7627	547.773	27.3274
-37.7611	549.812	27.3469
-37.7601	545.837	27.3665
-37.758	546.327	27.386
-37.7564	550.353	27.4055
-37.7543	544.491	27.425
-37.7533	548.56	27.44458
-37.7535	551.043	27.4641
-37.7502	546.328	27.4836
-37.7482	543.524	27.5032
-37.7468	552.897	27.5227
-37.74501	547.727	27.5422
-37.7418	544.035	27.5618
-37.7417	550.929	27.5813
-37.73999	550.51	27.60083
-37.7399	543.017	27.6204
-37.7373	549.16	27.6399
-37.7359	547.637	27.6594
-37.7349	544.936	27.679
-37.7322	549.376	27.6985
-37.7301	551.342	27.718
-37.7283	543.4881	27.7375
-37.72776	548.417	27.75708
-37.7255	551.113	27.7766
-37.7238	547.112	27.7961
-37.72168	545.427	27.8157
-37.7203	550.338	27.8352
-37.7207	544.837	27.8547
-37.7172	543.761	27.8743
-37.717	549.636	27.8938
-37.7146	549.162	27.91333
-37.7126	544.6756	27.9329
-37.71	547.66	27.9524
-37.7096	550.555	27.9719
-37.7065	542.853	27.9915
-37.7059	544.974	28.011
-37.705	549.653	28.0305
-37.7033	547.02	28.05
-37.7005	544.652	28.06958
-37.6999	549.784	28.0891
-37.6978	544.511	28.1086
-37.69598	544.11	28.1282
-37.6952	550.368	28.1477
-37.6926	549.1994	28.1672
-37.692	539.995	28.1868
-37.6892	550.892	28.2063
-37.6883	547.603	28.22583
-37.68576	544.519	28.2454
-37.6852	547.768	28.2649
-37.68362	551.832	28.2844
-37.6806	539.914	28.304
-37.6806	547.758	28.3235
-37.67757	549.734	28.343
-37.6771	543.4845	28.3625
-37.6751	546.037	28.38208
-37.67337	550.355	28.4016
-37.6712	543.43	28.4211
-37.6703	543.828	28.4407
-37.669	549.257	28.4602
-37.6673	547.76	28.4797
-37.6654	544.43	28.4993
-37.6642	548.182	28.5188
-37.6622	547.138	28.53833
-37.6613	545.118	28.5579
-37.65831	547.842	28.5774
-37.6571	548.186	28.5969
-37.6562	544.924	28.6165
-37.6527	544.017	28.636
-37.6536	550.977	28.6555
-37.6507	543.763	28.675
-37.6504	543.261	28.69458
-37.6473	548.199	28.7141
-37.6455	546.72	28.7336
-37.6441	541.679	28.7532
-37.6426	549.959	28.7727
-37.6408	543.888	28.7922
-37.6387	544.385	28.8118
-37.637	549.403	28.8313
-37.6365	549.355	28.85083
-37.635	539.255	28.8704
-37.6327	546.279	28.8899
-37.63232	549.564	28.9094
-37.6292	543.7157	28.929
-37.6268	544.838	28.9485
-37.626	548.958	28.968
-37.6243	541.671	28.9875
-37.6223	546.669	29.00708
-37.6213	547.886	29.0266
-37.619	542.992	29.0461
-37.6182	545.613	29.0657
-37.6171	549.819	29.0852
-37.615	544.4	29.1047
-37.6146	542.39	29.1243
-37.6114	547.429	29.1438
-37.61	547.036	29.16333
-37.6077	545.371	29.1829
-37.6059	546.125	29.2024
-37.6054	548.124	29.2219
-37.6032	542.82	29.2415
-37.6012	546.0144	29.261
-37.6003	548.286	29.2805
-37.5977	544.72	29.3
-37.5967	541.268	29.31958
-37.5949	550.475	29.3391
-37.5935	544.513	29.3586
-37.5921	544.088	29.3782
-37.5904	548.185	29.3977
-37.5886	547.521	29.4172
-37.5875	541.02	29.4368
-37.5855	549.653	29.4563
-37.5843	545.782	29.47583
-37.5807	541.977	29.4954
-37.5806	547.7627	29.5149
-37.5792	549.623	29.5344
-37.5764	539.446	29.554
-37.576	545.182	29.5735
-37.5748	547.46	29.593
-37.5729	544.255	29.6125
-37.5712	544.859	29.63208
-37.5698	548.306	29.6516
-37.5676	541.849	29.6711
-37.5658	543.515	29.6907
-37.5639	550.028	29.7102
-37.5627	544.462	29.7297
-37.5608	543.261	29.7493
-37.5595	546.562	29.7688
-37.5585	546.4328	29.78833
-37.5571	542.332	29.8079
-37.5544	547.312	29.8274
-37.5532	545.8703	29.8469
-37.5515	544.453	29.8665
-37.5496	542.7077	29.886
-37.54837	548.58	29.9055
-37.5473	540.556	29.925
-37.5441	543.036	29.94458
-37.5435	549.582	29.9641
-37.5411	545.323	29.9836
-37.5406	538.68	30.0032
-37.5383	549.38	30.0227
-37.5362	545.078	30.0422
-37.5353	541.5531	30.0618
-37.5342	547.256	30.0813
-37.5315	547.23	30.10083
-37.5307	539.592	30.1204
-37.5303	548.29	30.1399
-37.527	545.5	30.1594
-37.5249	541.203	30.179
-37.524	544.241	30.1985
-37.5221	550.336	30.218
-37.5202	540.805	30.2375
-37.5193	544.853	30.25708
-37.5178	546.687	30.2766
-37.5163	542.841	30.2961
-37.5143	543.264	30.3157
-37.5118	546.922	30.3352
-37.5116	542.7832	30.3547
-37.5095	542.45	30.3743
-37.5074	546.648	30.3938
-37.5066	546.347	30.41333
-37.5055	542.1568	30.4329
-37.5032	544.437	30.4524
-37.5006	547.216	30.4719
-37.4988	540.629	30.4915
-37.4975	542.0415	30.511
-37.4963	545.613	30.5305
-37.4939	544.771	30.55
-37.4921	541.186	30.56958
-37.4912	548.3515	30.5891
-37.49	541.917	30.6086
-37.488	541.587	30.6282
-37.4865	547.166	30.6477
-37.485	545.28	30.6672
[...]
-36.1804	531.343	46.3215
-36.179	537.398	46.3313
-36.17844	539.028	46.3411
-36.1782	536.974	46.35083
-36.1768	531.439	46.3606
-36.1769	528.871	46.3704
-36.1754	530.053	46.3801
-36.1746	536.745	46.3899
-36.173	538.897	46.3997
-36.1736	535.296	46.4094
-36.1723	533.044	46.4192
-36.1715	530.28	46.429
-36.1707	531.77	46.4387
-36.1688	534.05	46.4485
-36.1677	536.16	46.4583
-36.1687	539.2749	46.468
-36.1671	534.975	46.4778
-36.1676	529.197	46.4875
-36.16571	530.159	46.4973
-36.1651	533.5827	46.50708
-36.1641	537.92	46.5168
-36.16415	537.058	46.5266
-36.1616	533.3158	46.5364
-36.1615	533.484	46.5461
-36.1598	530.47	46.5559
-36.1608	531.838	46.5657
-36.1598	532.1651	46.5754
-36.1581	536.878	46.5852
-36.1567	539.186	46.595
-36.1561	533.491	46.6047
-36.1556	531.9339	46.6145
-36.15472	529.034	46.6243
-36.1541	535.677	46.634
-36.154	536.383	46.6438
-36.153	535.358	46.6536
-36.1513	535.139	46.66333
-36.1509	531.838	46.6731
-36.1501	529.7196	46.6829
-36.14888	530.294	46.6926
-36.1487	533.218	46.7024
-36.1477	538.349	46.7122
-36.1478	535.778	46.7219
-36.1464	533.105	46.7317
-36.1456	530.271	46.7415
-36.1443	530.451	46.7512
-36.1431	533.287	46.761
-36.1429	535.972	46.7708
-36.1418	535.5401	46.7805
-36.1405	537.6059	46.7903
-36.1405	532.324	46.8
-36.1396	529.217	46.8098
-36.1391	528.43	46.81958
-36.1385	535.157	46.8293
-36.1362	540.402	46.8391
-36.1359	537.826	46.8489
-36.1351	530.793	46.8586
-36.1352	530.114	46.8684
-36.1339	531.29	46.8782
-36.1337	531.962	46.8879
-36.1308	536.811	46.8977
-36.131	536.796	46.9075
-36.1299	535.45	46.9172
-36.1301	530.053	46.927
-36.1296	527.347	46.9368
-36.1276	531.879	46.9465
-36.1268	537.104	46.9563
-36.126	536.371	46.9661
-36.1254	532.765	46.97583
-36.1253	530.057	46.9856
-36.1238	529.9342	46.9954
-36.1226	530.641	47.0051
-36.122	534.172	47.0149
-36.1215	536.39	47.0247
-36.1209	535.9834	47.0344
-36.1193	532.923	47.0442
-36.1203	528.3504	47.054
-36.1176	528.106	47.0637
-36.1189	536.121	47.0735
-36.1166	537.084	47.0833
-36.11512	535.279	47.093
-36.1154	532.8028	47.1028
-36.11364	529.495	47.1125
-36.1132	531.648	47.1223
-36.1124	532.238	47.13208
-36.1117	533.58	47.1418
-36.11	538.454	47.1516
-36.1099	535.42	47.1614
-36.1086	532.079	47.1711
-36.1087	530.812	47.1809
-36.1076	532.2	47.1907
-36.1068	536.805	47.2004
-36.1055	534.754	47.2102
-36.1054	534.521	47.22
-36.1041	532.741	47.2297
-36.1035	531.882	47.2395
-36.1017	530.965	47.2493
-36.1021	530.639	47.259
-36.1012	534.359	47.2688
-36.1005	538.587	47.2786
-36.0991	533.327	47.28833
-36.0992	533.068	47.2981
-36.0975	528.989	47.3079
-36.0968	533.169	47.3176
-36.097	534.994	47.3274
-36.095	533.8634	47.3372
-36.0943	535.5177	47.3469
-36.094	534.079	47.3567
-36.0934	529.292	47.3665
-36.09227	529.326	47.3762
-36.091	530.211	47.386
-36.0907	535.383	47.3958
-36.0911	537.772	47.4055
-36.08889	533.497	47.4153
-36.089	530.969	47.425
-36.0872	529.174	47.4348
-36.0851	531.4115	47.44458
-36.0859	531.942	47.4543
-36.0844	534.854	47.4641
-36.0848	536.233	47.4739
-36.08363	532.827	47.4836
-36.0827	526.954	47.4934
-36.08091	527.142	47.5032
-36.0809	530.606	47.5129
-36.0799	537.317	47.5227
-36.0795	536.485	47.5325
-36.0787	531.565	47.5422
-36.0779	531.474	47.552
-36.0772	530.048	47.5618
-36.07621	532.295	47.5715
-36.0744	535.38	47.5813
-36.0745	535.911	47.5911
-36.07473	537.0954	47.60083
-36.0735	531.994	47.6106
-36.0724	526.913	47.6204
-36.0709	528.918	47.6301
-36.07	534.814	47.6399
-36.0697	537.954	47.6497
-36.0683	534.123	47.6594
-36.0685	530.9	47.6692
-36.0671	530.736	47.679
-36.0671	529.145	47.6887
-36.066	532.007	47.6985
-36.0642	535.053	47.7083
-36.0639	536.629	47.718
-36.0638	536.01	47.7278
-36.0615	528.165	47.7375
-36.0612	528.322	47.7473
-36.0601	533.673	47.75708
-36.0604	535.851	47.7668
-36.0593	537.909	47.7766
-36.05846	532.706	47.7864
-36.0581	530.845	47.7961
-36.0563	531.872	47.8059
-36.0556	529.825	47.8157
-36.0549	533.555	47.8254
-36.0539	534.471	47.8352
-36.05315	536.378	47.845
-36.0522	532.97	47.8547
-36.0507	530.388	47.8645
-36.051	529.138	47.8743
-36.0499	533.152	47.884
-36.049	535.298	47.8938
-36.0491	534.917	47.9036
-36.04665	532.018	47.91333
-36.0466	532.829	47.9231
-36.0465	530.32	47.9329
-36.0453	528.4646	47.9426
-36.044	533.54	47.9524
-36.044	536.23	47.9622
-36.0437	535.987	47.9719
-36.0421	535.632	47.9817
-36.0418	529.188	47.9915
-36.0399	530.9881	48.0012
-36.0405	533.079	48.011
-36.0393	534.117	48.0208
-36.0376	536.567	48.0305
-36.03767	535.114	48.0403
-36.0361	533.7251	48.05
-36.0354	529.936	48.0598
-36.0351	528.295	48.06958
-36.0339	535.704	48.0793
-36.0325	538.629	48.0891
-36.0318	536.226	48.0989
-36.0311	530.854	48.1086
-36.0303	528.006	48.1184
-36.03	530.98	48.1282
-36.0291	531.2345	48.1379
-36.028	535.382	48.1477
-36.0283	537.245	48.1575
-36.0267	534.064	48.1672
-36.0248	529.994	48.177
-36.025	527.3512	48.1868
-36.0235	530.0719	48.1965
-36.0226	537.31	48.2063
-36.0217	538.843	48.2161
-36.0214	532.314	48.22583
-36.0202	530.723	48.2356
-36.0193	529.273	48.2454
-36.0196	530.846	48.2551
-36.0183	535.441	48.2649
-36.0178	535.7782	48.2747
-36.0166	538.038	48.2844
-36.0144	533.134	48.2942
-36.0138	528.475	48.304
-36.0144	528.384	48.3137
-36.01334	533.475	48.3235
-36.0126	537.119	48.3333
-36.01162	535.635	48.343
-36.0117	531.345	48.3528
-36.0103	530.686	48.3625
-36.0089	529.425	48.3723
-36.0095	533.113	48.38208
-36.0074	532.945	48.3918
-36.0067	536.342	48.4016
-36.0061	536.922	48.4114
-36.0052	529.0592	48.4211
-36.0039	529.529	48.4309
-36.0036	529.339	48.4407
-36.0037	532.752	48.4504
-36.0013	536.44	48.4602
-36.002	531.481	48.47
-35.9999	531.678	48.4797
-35.9992	531.144	48.4895
-35.9996	530.164	48.4993
-35.9974	531.077	48.509
-35.9974	533.221	48.5188
-35.9961	536.858	48.5286
-35.9947	534.152	48.53833
-35.9952	531.436	48.5481
-35.994	528.489	48.5579
-35.9928	530.072	48.5676
-35.99168	533.351	48.5774
-35.99192	534.4906	48.5872
-35.99123	533.182	48.5969
-35.989	533.872	48.6067
-35.988	530.915	48.6165
-35.9883	527.106	48.6262
-35.9875	529.601	48.636
-35.9869	533.445	48.6458
-35.9855	536.129	48.6555
-35.9846	535.081	48.6653
-35.9846	529.8092	48.675
-35.983	528.675	48.6848
-35.9838	531.064	48.69458
-35.9809	531.527	48.7043
-35.981	537.3598	48.7141
-35.9804	534.391	48.7239
-35.9795	534.205	48.7336
-35.9794	527.9422	48.7434
-35.9776	525.954	48.7532
-35.9766	533.417	48.7629
-35.9763	537.438	48.7727
-35.9756	537.644	48.7825
-35.9749	532.347	48.7922
-35.9737	529.225	48.802
-35.9729	529.276	48.8118
-35.9718	531.5249	48.8215
-35.9719	536.801	48.8313
-35.9698	536.24	48.8411
-35.969	534.791	48.85083
-35.9684	530.998	48.8606
-35.9667	525.727	48.8704
-35.9665	529.5611	48.8801
-35.9664	534.278	48.8899
-35.9651	536.25	48.8997
-35.9652	535.228	48.9094
-35.9644	529.9	48.9192
-35.963	527.31	48.929
-35.9637	530.966	48.9387
-35.9616	532.279	48.9485
-35.9603	532.791	48.9583
-35.9601	537.1814	48.968
-35.95858	531.841	48.9778
-35.9589	530.257	48.9875
-35.9587	529.1	48.9973
-35.957	530.554	49.00708
-35.9559	537.684	49.0168
-35.9547	535.052	49.0266
-35.9537	533.569	49.0364
-35.9532	529.683	49.0461
-35.9529	529.031	49.0559
-35.9518	530.89	49.0657
-35.9503	531.712	49.0754
-35.949	534.765	49.0852
-35.949	536.851	49.095
-35.9481	530.407	49.1047
-35.9477	530.516	49.1145
-35.94783	528.078	49.1243
-35.9459	533.446	49.134
-35.9447	534.933	49.1438
-35.9434	531.294	49.1536
-35.9437	532.695	49.16333
-35.9433	531.328	49.1731
-35.9427	528.266	49.1829
-35.9412	528.218	49.1926
-35.9413	529.774	49.2024
-35.9386	536.289	49.2122
-35.9385	534.799	49.2219
-35.9386	532.319	49.2317
-35.9376	528.743	49.2415
-35.9365	530.106	49.2512
-35.9358	531.523	49.261
-35.9351	533.189	49.2708
-35.9351	534.578	49.2805
-35.9322	535.458	49.2903
-35.9319	530.518	49.3
-35.9311	527.512	49.3098
-35.9312	526.924	49.31958
-35.9294	531.634	49.3293
-35.9293	537.773	49.3391
-35.9274	534.656	49.3489
-35.9282	529.151	49.3586
-35.9265	527.675	49.3684
-35.92524	528.479	49.3782
-35.9243	530.7699	49.3879
-35.9221	534.4892	49.3977
-35.923	533.943	49.4075
-35.9224	534.0387	49.4172
-35.9211	528.507	49.427
-35.92	525.894	49.4368
-35.9191	529.837	49.4465
-35.9203	534.159	49.4563
-35.9176	537.935	49.4661
-35.9173	532.559	49.47583
-35.9173	527.057	49.4856
-35.9164	527.401	49.4954
-35.9138	529.318	49.5051
-35.9131	532.5014	49.5149
-35.9128	534.393	49.5247
-35.91304	533.701	49.5344
-35.9109	530.435	49.5442
-35.9106	525.394	49.554
-35.91	527.704	49.5637
-35.9095	531.861	49.5735
-35.9083	535.0965	49.5833
-35.9069	535.459	49.593
-35.90604	529.711	49.6028
-35.9066	527.057	49.6125
-35.9065	528.658	49.6223
-35.9052	529.444	49.63208
-35.9035	532.22	49.6418
-35.9037	533.852	49.6516
-35.9007	534.396	49.6614
-35.9013	528.249	49.6711
-35.9003	527.742	49.6809
-35.9001	528.8385	49.6907
-35.8979	532.464	49.7004
-35.8976	533.938	49.7102
-35.8956	532.715	49.72
-35.8965	530.409	49.7297
-35.8953	530.53	49.7395
-35.8953	529.421	49.7493
-35.8933	528.275	49.759
-35.8918	532.131	49.7688
-35.8919	534.775	49.7786
-35.8911	533.12	49.78833
-35.8895	530.295	49.7981
-35.8903	526.745	49.8079
-35.8886	530.869	49.8176
-35.8883	532.819	49.8274
-35.8878	532.829	49.8372
-35.8862	534.123	49.8469
-35.8855	531.988	49.8567
-35.8849	530.832	49.8665
-35.8843	527.203	49.8762
-35.8848	527.21	49.886
-35.8828	533.592	49.8958
-35.8816	535.272	49.9055
-35.8805	532.817	49.9153
-35.8814	527.938	49.925
-35.8791	526.569	49.9348
-35.8791	530.168	49.94458
-35.8774	531.763	49.9543
-35.8769	534.972	49.9641
-35.8767	534.2998	49.9739
-35.8756	531.6861	49.9836
-35.8742	527.509	49.9934
-35.8742	525.683	50.0032
-35.8729	528.413	50.0129
-35.8709	536.384	50.0227
-35.8716	534.518	50.0325
-35.8702	531.136	50.0422
-35.8691	527.441	50.052
-35.8681	526.267	50.0618
-35.8688	530.936	50.0715
-35.8666	533.148	50.0813
-35.8666	534.0882	50.0911
-35.8663	533.6662	50.10083
-35.8637	528.332	50.1106
-35.865	524.7052	50.1204
-35.8631	528.375	50.1301
-35.8622	532.434	50.1399
-35.8615	536.301	50.1497
-35.8606	532.238	50.1594
-35.8594	527.457	50.1692
-35.859	527.9	50.179
-35.858	527.915	50.1887
-35.8574	531.824	50.1985
-35.8558	531.774	50.2083
-35.8546	533.949	50.218
-35.8538	532.292	50.2278
-35.8543	526.324	50.2375
-35.8535	528.729	50.2473
-35.8531	529.528	50.25708
-35.8521	531.691	50.2668
-35.8498	535.1911	50.2766
-35.8495	529.555	50.2864
-35.8488	528.998	50.2961
-35.84811	529.652	50.3059
-35.8481	528.511	50.3157
-35.8464	531.59	50.3254
-35.8454	532.562	50.3352
-35.8457	533.739	50.345
-35.8439	532.454	50.3547
-35.8433	527.369	50.3645
-35.84346	526.327	50.3743
-35.8417	530.407	50.384
-35.8411	532.33	50.3938
-35.84	531.415	50.4036
-35.83989	531.003	50.41333
-35.8385	530.475	50.4231
-35.83744	529.238	50.4329
-35.8369	528.343	50.4426
-35.8354	529.192	50.4524
-35.8354	533.331	50.4622
-35.8348	535.428	50.4719
-35.8332	532.281	50.4817
-35.8331	525.608	50.4915
-35.83099	527.307	50.5012
-35.8317	531.186	50.511
-35.83054	530.635	50.5208
-35.8294	534.946	50.5305
-35.828	531.183	50.5403
-35.82782	530.898	50.55
-35.82666	526.848	50.5598
-35.8267	525.474	50.56958
-35.8261	530.864	50.5793
-35.8246	536.087	50.5891
-35.8236	534.8905	50.5989
-35.823	528.622	50.6086
-35.822	526.064	50.6184
-35.8211	528.272	50.6282
-35.8212	530.264	50.6379
-35.8195	533.938	50.6477
-35.81992	533.098	50.6575
-35.8174	532.867	50.6672
-35.8167	529.125	50.677
-35.8162	524.741	50.6868
-35.81572	528.472	50.6965
-35.8135	533.219	50.7063
-35.813	535.714	50.7161
-35.8134	531.831	50.72583
-35.8133	526.513	50.7356
-35.8123	525.917	50.7454
-35.8116	529.065	50.7551
-35.8093	530.982	50.7649
-35.8091	533.833	50.7747
-35.8091	533.666	50.7844
-35.8078	530.302	50.7942
-35.8064	527.229	50.804
-35.8051	526.0329	50.8137
-35.8048	529.5415	50.8235
-35.8036	535.605	50.8333
-35.8034	531.282	50.843
-35.8023	528.678	50.8528
-35.8013	526.272	50.8625
-35.8012	526.599	50.8723
-35.8009	529.156	50.88208
-35.7985	529.656	50.8918
-35.7989	533.4895	50.9016
-35.79707	531.706	50.9114
-35.7972	526.319	50.9211
-35.7963	526.433	50.9309
-35.7955	526.283	50.9407
-35.794	530.717	50.9504
-35.79372	534.4339	50.9602
-35.7919	529.895	50.97
-35.7911	530.081	50.9797
-35.7908	528.234	50.9895
-35.7903	528.323	50.9993
-35.79	529.689	51.009
-35.7887	529.2666	51.0188
-35.7873	533.625	51.0286
-35.7866	532.701	51.03833
-35.7869	527.981	51.0481
-35.7855	524.6217	51.0579
-35.7841	526.774	51.0676
-35.7838	530.484	51.0774
-35.7835	530.101	51.0872
-35.7815	531.603	51.0969
-35.7824	530.784	51.1067
-35.7801	528.1474	51.1165
-35.7803	525.748	51.1262
-35.77914	526.749	51.136
-35.7783	530.538	51.1458
-35.7782	535.164	51.1555
-35.7767	532.113	51.1653
-35.776	525.903	51.175
-35.7746	525.929	51.1848
-35.775	527.775	51.19458
-35.7729	530.523	51.2043
-35.77269	533.769	51.2141
-35.7717	531.748	51.2239
-35.77063	530.72	51.2336
-35.7696	524.9538	51.2434
-35.7674	524.061	51.2532
-35.76915	529.671	51.2629
-35.7673	533.199	51.2727
-35.7672	535.065	51.2825
-35.7652	528.906	51.2922
-35.7667	523.807	51.302
-35.7631	526.925	51.3118
-35.7639	527.706	51.3215
-35.7621	531.768	51.3313
-35.7617	532.88	51.3411
-35.7611	530.325	51.35083
-35.7593	527.754	51.3606
-35.7601	522.932	51.3704
-35.7579	526.826	51.3801
-35.7584	530.719	51.3899
-35.7558	532.242	51.3997
-35.7558	531.122	51.4094
-35.7553	525.081	51.4192
-35.7558	524.525	51.429
-35.7535	528.024	51.4387
-35.7531	528.207	51.4485
-35.7523	531.799	51.4583
-35.7516	530.793	51.468
-35.7493	528.571	51.4778
-35.74905	526.535	51.4875
-35.7487	524.877	51.4973
-35.7479	528.246	51.50708
-35.7486	530.3277	51.5168
-35.7462	531.831	51.5266
-35.7457	527.409	51.5364
-35.7445	524.7782	51.5461
-35.7434	527.501	51.5559
-35.7432	527.333	51.5657
-35.7421	526.398	51.5754
-35.7423	529.468	51.5852
-35.7389	530.461	51.595
-35.7396	528.426	51.6047
-35.7396	527.056	51.6145
-35.7391	522.742	51.6243
-35.7365	527.845	51.634
-35.7365	530.58	51.6438
-35.7359	528.365	51.6536
-35.735	528.92	51.66333
-35.7334	525.937	51.6731
-35.7332	525.695	51.6829
-35.7321	524.212	51.6926
-35.7327	524.981	51.7024
-35.7311	531.219	51.7122
-35.73	531.756	51.7219
-35.7289	528.515	51.7317
-35.7277	523.8501	51.7415
-35.7272	522.893	51.7512
-35.7269	527.244	51.761
-35.72596	528.07	51.7708
-35.7245	531.327	51.7805
-35.725	528.241	51.7903
-35.72459	524.854	51.8
-35.7226	521.9303	51.8098
-35.7224	522.712	51.81958
-35.7214	526.671	51.8293
-35.7205	532.431	51.8391
-35.7192	530.406	51.8489
-35.718	524.518	51.8586
-35.7181	522.11	51.8684
-35.7175	523.434	51.8782
-35.715	527.2984	51.8879
-35.715	529.079	51.8977
-35.7147	529.981	51.9075
-35.71402	528.594	51.9172
-35.714	524.058	51.927
-35.711	520.991	51.9368
-35.7114	523.879	51.9465
-35.711	528.768	51.9563
-35.7093	532.5069	51.9661
-35.7096	526.416	51.97583
-35.7087	524.084	51.9856
-35.7071	521.547	51.9954
-35.7073	523.777	52.0051
-35.7059	528.113	52.0149
-35.7049	528.423	52.0247
-35.70433	528.607	52.0344
-35.7032	527.874	52.0442
-35.7029	521.883	52.054
-35.7017	523.725	52.0637
-35.7003	526.026	52.0735
-35.6991	530.552	52.0833
-35.7003	529.527	52.093
-35.6984	524.182	52.1028
-35.6984	522.793	52.1125
-35.6967	524.108	52.1223
-35.6962	524.392	52.13208
-35.69495	527.262	52.1418
-35.6949	527.323	52.1516
-35.69352	529.326	52.1614
-35.6928	524.963	52.1711
-35.691	522.227	52.1809
-35.6906	523.203	52.1907
-35.6908	525.084	52.2004
-35.68993	527.91	52.2102
-35.6892	526.8999	52.22
-35.6874	523.19	52.2297
-35.6867	523.852	52.2395
-35.687	523.262	52.2493
-35.6855	520.409	52.259
-35.6855	526.023	52.2688
-35.6841	524.604	52.2786
-35.6826	527.498	52.28833
-35.6812	522.531	52.2981
-35.6816	520.181	52.3079
-35.6816	521.276	52.3176
-35.6783	525.031	52.3274
-35.6798	524.891	52.3372
-35.6775	528.344	52.3469
-35.6776	522.053	52.3567
-35.6757	521.55	52.3665
-35.6759	519.301	52.3762
-35.6756	521.709	52.386
-35.6742	525.077	52.3958
-35.6725	527.565	52.4055
-35.673	525.132	52.4153
-35.6718	519.953	52.425
-35.6704	516.85	52.4348
-35.6712	522.8811	52.44458
-35.6695	523.008	52.4543
-35.6683	526.9516	52.4641
-35.6668	523.924	52.4739
-35.6663	520.871	52.4836
-35.6648	519.268	52.4934
-35.6653	518.2135	52.5032
-35.6639	520.982	52.5129
-35.6633	527.335	52.5227
-35.6625	526.317	52.5325
-35.6609	521.584	52.5422
-35.6602	517.28	52.552
-35.6604	516.4411	52.5618
-35.6593	521.995	52.5715
-35.6586	524.368	52.5813
-35.6567	524.035	52.5911
-35.6566	522.325	52.60083
-35.6559	518.366	52.6106
-35.6555	516.469	52.6204
-35.655	516.944	52.6301
-35.6531	522.617	52.6399
-35.6527	526.083	52.6497
-35.652	521.772	52.6594
-35.6513	517.078	52.6692
-35.6508	515.838	52.679
-35.6497	517.824	52.6887
-35.6487	520.287	52.6985
-35.6476	520.9425	52.7083
-35.64756	522.199	52.718
-35.6451	520.58	52.7278
-35.6455	514.838	52.7375
-35.6446	515.145	52.7473
-35.644	516.926	52.75708
-35.6424	520.841	52.7668
-35.6419	521.784	52.7766
-35.6424	517.328	52.7864
-35.6408	517.639	52.7961
-35.6397	515.6239	52.8059
-35.6398	515.902	52.8157
-35.6388	515.949	52.8254
-35.638	518.441	52.8352
-35.6365	520.978	52.845
-35.6352	518.367	52.8547
-35.6334	515.754	52.8645
-35.6338	512.8988	52.8743
-35.6338	514.423	52.884
-35.63129	519.051	52.8938
-35.6324	518.461	52.9036
-35.6314	516.724	52.91333
-35.6308	514.424	52.9231
-35.6285	512.716	52.9329
-35.6284	512.248	52.9426
-35.6274	510.6727	52.9524
-35.627	514.25	52.9622
-35.6266	518.64	52.9719
-35.62571	511.923	52.9817
-35.6243	507.243	52.9915
-35.6232	507.63	53.0012
-35.6228	511.293	53.011
-35.62199	513.431	53.0208
-35.6214	514.457	53.0305
-35.6204	512.215	53.0403
-35.6194	508.481	53.05
-35.6191	503.5311	53.0598
-35.6187	502.53	53.06958
-35.6173	506.895	53.0793
-35.6161	509.588	53.0891
-35.6151	508.196	53.0989
-35.6141	501.429	53.1086
-35.6138	496.5014	53.1184
-35.6129	495.029	53.1282
-35.6093	-160.386	53.1379
-35.60693	-40.171	53.1477
-35.6077	-53.1029	53.1575
-35.6075	-26.4271	53.1672
-35.6074	-42.9152	53.177
-35.6069	-51.6463	53.1868
-35.6054	-44.2522	53.1965
-35.6055	-38.7236	53.2063
-35.6053	-38.596	53.2161
-35.6048	-41.5015	53.22583
-35.6033	-47.5872	53.2356
-35.6024	-47.4255	53.2454
-35.6013	-42.7163	53.2551
-35.601	-42.0336	53.2649
-35.6006	-40.6145	53.2747
-35.5996	-41.1783	53.2844
-35.5986	-43.4736	53.2942
-35.5972	-46.4044	53.304
-35.59663	-47.3862	53.3137
-35.5971	-42.2818	53.3235
-35.595	-40.8712	53.3333
-35.594	-38.6484	53.343
-35.5932	-43.80431	53.3528
-35.5925	-47.0474	53.3625
-35.5925	-45.9396	53.3723
-35.5906	-43.8736	53.38208
-35.5904	-44.1121	53.3918
-35.58984	-40.7111	53.4016
-35.5897	-41.1951	53.4114
-35.5879	-43.7465	53.4211
-35.58757	-46.1475	53.4309
-35.5861	-46.9729	53.4407
-35.58606	-43.1589	53.4504
-35.5843	-39.2975	53.4602
-35.5854	-43.1379	53.47
-35.5836	-42.2088	53.4797
-35.5825	-45.60535	53.4895
-35.5807	-46.1902	53.4993
-35.5808	-43.9619	53.509
-35.5788	-43.512	53.5188
-35.57803	-41.6843	53.5286
-35.5798	-42.1383	53.53833
-35.5767	-42.8937	53.5481
-35.5769	-47.5099	53.5579
-35.5763	-47.7712	53.5676
-35.5755	-41.7012	53.5774
-35.57399	-42.3038	53.5872
-35.5723	-39.6376	53.5969
-35.5732	-44.6768	53.6067
-35.5721	-46.1026	53.6165
-35.5704	-44.8276	53.6262
-35.5692	-46.5117	53.636
-35.5695	-43.3691	53.6458
-35.5693	-37.68914	53.6555
-35.5681	-42.8368	53.6653
-35.5675	-46.2594	53.675
-35.5669	-49.0866	53.6848
-35.5662	-45.6207	53.69458
-35.5657	-40.0319	53.7043
-35.5634	-40.7677	53.7141
-35.5632	-42.093	53.7239
-35.56102	-43.0201	53.7336
-35.5614	-49.0451	53.7434
-35.561	-48.017	53.7532
-35.5591	-45.413	53.7629
-35.5595	-40.4909	53.7727
-35.558	-40.0309	53.7825
-35.5574	-43.2511	53.7922
-35.5562	-49.0063	53.802
-35.5557	-48.3723	53.8118
-35.5553	-43.2365	53.8215
-35.5537	-41.7353	53.8313
-35.5532	-42.3876	53.8411
-35.5514	-42.3137	53.85083
-35.5508	-44.5388	53.8606
-35.5507	-49.1178	53.8704
-35.5492	-44.692	53.8801
-35.5492	-42.9945	53.8899
-35.548	-38.4422	53.8997
-35.5468	-40.6969	53.9094
-35.547	-47.2938	53.9192
-35.54546	-46.4431	53.929
-35.5444	-43.5639	53.9387
-35.5437	-41.4245	53.9485
-35.5433	-40.846	53.9583
-35.5425	-42.0278	53.968
-35.542	-42.9663	53.9778
-35.5408	-46.8279	53.9875
-35.5404	-45.7116	53.9973
-35.5397	-45.96122	54.00708
-35.5389	-40.6887	54.0168
-35.5382	-38.8541	54.0266
-35.5367	-42.8016	54.0364
-35.5365	-44.7908	54.0461
-35.5363	-45.3746	54.0559
-35.5344	-46.9534	54.0657
-35.5329	-45.2917	54.0754
-35.53339	-41.3489	54.0852
-35.5317	-40.561	54.095
-35.5309	-41.4951	54.1047