File: data/processed_data_files/tensile/0.254_hd_uprint_typei_090_r(2).dat
MTS793|BTW|ENU|1|2|.|/|:|1|0|0|A

Data Header:			0.254_hd_uprint_typei_090_r0			Time:	20.0261	s	4/15/2019 3:51:04 PM
Data Acquisition:	Timed
Station Name:	ft40.cfg
Test File Name:	monotonic_0.2540_typei_hd_090_uprint.tst
Displacement	Force	Running Time
mm	N	s
9.98113	-209.461	0.0310059
9.98164	-203.868	0.0505371
9.98145	-203.25	0.0700684
9.98068	-209.29	0.0895996
9.98228	-210.712	0.109131
9.98312	-199.585	0.128662
9.985178	-205.97	0.148193
9.98648	-208.624	0.167725
9.98772	-201.079	0.187256
9.98981	-201.61	0.206787
9.99219	-211.875	0.226318
9.99286	-202.346	0.24585
9.99461	-201.61	0.265381
9.99644	-208.563	0.284912
9.99895	-200.899	0.304443
9.99946	-199.7869	0.323975
10.001	-208.052	0.343506
10.0038	-203.576	0.363037
10.0048	-196.918	0.382568
10.0052	-202.947	0.4021
10.0079	-204.235	0.421631
10.0083	-200.652	0.441162
10.0105	-203.891	0.460693
10.0132	-205.437	0.480225
10.013	-196.381	0.499756
10.0161	-197.924	0.519287
10.0161	-201.934	0.538818
10.0191	-199.21	0.55835
10.0211	-195.109	0.577881
10.0219	-203.692	0.597412
10.0251	-198.193	0.616943
10.0253	-192.663	0.636475
10.0276	-197.909	0.656006
10.0279	-202.669	0.675537
10.0304	-192.814	0.695068
10.0322	-199.953	0.7146
10.0341	-197.237	0.734131
10.0357	-190.579	0.753662
10.0358	-194.391	0.773193
10.0386	-204.0658	0.792725
10.0405	-190.77	0.812256
10.0417	-194.758	0.831787
10.04353	-199.261	0.851318
10.04494	-192.317	0.87085
10.0466	-191.576	0.890381
10.0482	-199.46	0.909912
10.0494	-191.625	0.929443
10.0516	-190.32	0.948975
10.0534	-196.962	0.968506
10.0538	-194.015	0.988037
10.0561	-186.575	1.00757
10.0581	-195.192	1.0271
10.0601	-194.713	1.04663
10.06051	-186.828	1.06616
10.0629	-189.684	1.08569
10.0656	-193.0791	1.10522
10.0659	-187.669	1.12476
10.0693	-189.071	1.14429
10.0694	-194.856	1.16382
10.07025	-185.496	1.18335
10.0731	-186.934	1.20288
10.0748	-194.513	1.22241
10.0756	-191.397	1.24194
10.07764	-182.829	1.26147
10.0794	-191.398	1.28101
10.0805	-188.896	1.30054
10.08215	-182.793	1.32007
10.0851	-186.972	1.3396
10.0859	-192.111	1.35913
10.0873	-180.049	1.37866
10.0891	-188.417	1.39819
10.0911	-189.031	1.41772
10.09095	-180.711	1.43726
10.095	-181.188	1.45679
10.0949	-192.959	1.47632
10.0972	-180.758	1.49585
10.0988	-181.759	1.51538
10.1009	-186.023	1.53491
10.1018	-181.907	1.55444
10.1037	-177.184	1.57397
10.1058	-187.833	1.59351
10.1072	-180.771	1.61304
10.1086	-176.358	1.63257
10.1096	-181.949	1.6521
10.11167	-184.303	1.67163
10.1134	-175.877	1.69116
10.1143	-181.819	1.71069
10.1162	-181.373	1.73022
10.1186	-176.497	1.74976
10.1213	-176.396	1.76929
10.1217	-182.435	1.78882
10.1236	-175.61	1.80835
10.1247	-176.448	1.82788
10.1264	-181.44	1.84741
10.1279	-177.623	1.86694
10.1289	-170.809	1.88647
10.131	-178.3308	1.90601
10.1334	-178.1049	1.92554
10.1342	-170.776	1.94507
10.13665	-174.537	1.9646
10.13739	-175.868	1.98413
10.1401	-168.915	2.00366
10.1408	-172.371	2.02319
10.1421	-181.167	2.04272
10.144	-167.7	2.06226
10.1461	-170.43	2.08179
10.14826	-176.132	2.10132
10.149	-168.105	2.12085
10.1507	-164.781	2.14038
10.1524	-176.293	2.15991
10.1541	-167.724	2.17944
10.1551	-167.316	2.19897
10.15707	-171.572	2.21851
10.1589	-168.679	2.23804
10.1603	-160.44	2.25757
10.16219	-171.901	2.2771
10.1637	-168.367	2.29663
10.1646	-161.762	2.31616
10.1673	-162.697	2.33569
10.1681	-168.6181	2.35522
10.1693	-161.947	2.37476
10.171	-164.07	2.39429
10.1737	-165.94	2.41382
10.17586	-161.89	2.43335
10.1771	-158.921	2.45288
10.1782	-165.691	2.47241
10.1802	-160.913	2.49194
10.1814	-158.596	2.51147
10.1834	-162.149	2.53101
10.1849	-163.754	2.55054
10.1866	-153.938	2.57007
10.1876	-158.236	2.5896
10.1899	-161.832	2.60913
10.1906	-155.712	2.62866
10.1933	-154.824	2.64819
10.1943	-160.019	2.66772
10.1958	-152.519	2.68726
10.1974	-153.396	2.70679
10.19931	-162.773	2.72632
10.20158	-154.065	2.74585
10.2022	-150.636	2.76538
10.2054	-157.45	2.78491
10.2062	-154.895	2.80444
10.2084	-146.5085	2.82397
10.2091	-157.12	2.84351
10.211	-150.569	2.86304
10.2124	-147.691	2.88257
10.21416	-152.827	2.9021
10.2159	-153.493	2.92163
10.2181	-141.636	2.94116
10.2195	-151.443	2.96069
10.2213	-151.167	2.98022
10.2223	-146.527	2.99976
10.2257	-143.55	3.01929
10.2254	-149.028	3.03882
10.2268	-144.1105	3.05835
10.2292	-146.128	3.07788
10.2301	-147.535	3.09741
10.2326	-145.146	3.11694
10.2345	-136.909	3.13647
10.235	-144.799	3.15601
10.2364	-144.707	3.17554
10.23895	-139.087	3.19507
10.2405	-138.6644	3.2146
10.241	-143.39	3.23413
10.2439	-135.939	3.25366
10.245	-137.419	3.27319
10.2466	-142.23	3.29272
10.2496	-135.963	3.31226
10.2503	-134.955	3.33179
10.2509	-141.861	3.35132
10.2535	-133.73	3.37085
10.2541	-129.4232	3.39038
10.2565	-138.535	3.40991
10.2588	-135.176	3.42944
10.2599	-128.836	3.44897
10.2621	-134.963	3.46851
10.2636	-133.045	3.48804
10.2651	-125.8699	3.50757
10.2669	-134.48	3.5271
10.2676	-133.139	3.54663
10.2702	-124.3461	3.56616
10.27	-126.594	3.58569
10.2723	-133.559	3.60522
10.2746	-121.149	3.62476
10.27465	-127.292	3.64429
10.27731	-128.328	3.66382
10.2799	-123.943	3.68335
10.282	-120.6878	3.70288
10.2821	-128.529	3.72241
10.2845	-120.377	3.74194
10.2857	-119.295	3.76147
10.2874	-122.706	3.78101
10.2897	-123.729	3.80054
10.2902	-114.081	3.82007
10.2917	-119.328	3.8396
10.2938	-119.175	3.85913
10.2953	-116.021	3.87866
10.2971	-115.917	3.89819
10.2988	-120.688	3.91772
10.3009	-110.869	3.93726
10.3014	-113.875	3.95679
10.303	-118.403	3.97632
10.305	-114.645	3.99585
10.3066	-106.234	4.01538
10.308	-116.3233	4.03491
10.3099	-111.232	4.05444
10.311	-105.564	4.07397
10.31255	-113.534	4.09351
10.3147	-111.039	4.11304
10.3167	-102.826	4.13257
10.318	-109.407	4.1521
10.3208	-111.23	4.17163
10.3219	-99.7103	4.19116
10.3231	-106.9443	4.21069
10.3243	-111.418	4.23022
10.3269	-99.253	4.24976
10.3279	-98.221	4.26929
10.3299	-106.409	4.28882
10.3307	-100.5653	4.30835
10.3338	-100.457	4.32788
10.3351	-103.083	4.34741
10.336	-98.7823	4.36694
10.3382	-92.0956	4.38647
10.3392	-101.278	4.40601
10.34121	-95.5243	4.42554
10.3438	-92.32502	4.44507
10.3448	-94.1693	4.4646
10.3454	-99.2374	4.48413
10.3471	-87.4314	4.50366
10.3493	-91.2853	4.52319
10.3509	-95.4659	4.54272
10.3512	-91.6157	4.56226
10.3541	-87.6315	4.58179
10.3569	-94.448	4.60132
10.35756	-84.2006	4.62085
10.3589	-82.4574	4.64038
10.3606	-91.0252	4.65991
10.3623	-88.2661	4.67944
10.3637	-79.9462	4.69897
10.3661	-86.7273	4.71851
10.3683	-85.1244	4.73804
10.3705	-78.4498	4.75757
10.371	-84.0981	4.7771
10.3721	-86.4883	4.79663
10.3746	-73.63485	4.81616
10.3756	-79.5233	4.83569
10.3773	-82.7684	4.85522
10.3782	-73.6626	4.87476
10.3803	-76.0593	4.89429
10.3823	-81.3797	4.91382
10.383	-74.1044	4.93335
10.3854	-71.4767	4.95288
10.3867	-78.2757	4.97241
10.3888	-71.3493	4.99194
10.39	-70.3503	5.01147
10.3915	-74.7861	5.03101
10.3928	-71.4268	5.05054
10.3945	-62.6753	5.07007
10.3966	-70.0637	5.0896
10.3992	-70.8795	5.10913
10.3998	-63.0552	5.12866
10.4014	-64.0973	5.14819
10.4025	-69.3919	5.16772
10.4051	-58.1908	5.18726
10.4066	-59.849	5.20679
10.4084	-63.0165	5.22632
10.4098	-61.5874	5.24585
10.4113	-53.3853	5.26538
10.4134	-65.6091	5.28491
10.4139	-59.2849	5.30444
10.4163	-50.4699	5.32397
10.4181	-58.4403	5.34351
10.4191	-60.5504	5.36304
10.4209	-48.5856	5.38257
10.4225	-56.3558	5.4021
10.4234	-54.8532	5.42163
10.4258	-46.6236	5.44116
10.4274	-50.9687	5.46069
10.4283	-57.7745	5.48022
10.4305	-44.0746	5.49976
10.433	-46.5589	5.51929
10.4337	-54.3172	5.53882
10.4358	-44.4323	5.55835
10.4365	-42.861	5.57788
10.43843	-52.08165	5.59741
10.43993	-43.7058	5.61694
10.442	-38.64521	5.63647
10.4431	-46.4426	5.65601
10.4452	-43.1429	5.67554
10.4466	-35.1438	5.69507
10.4483	-41.9413	5.7146
10.4503	-43.8927	5.73413
10.4516	-31.9266	5.75366
10.454	-36.509	5.77319
10.454	-37.4426	5.79272
10.4569	-35.043	5.81226
10.4583	-31.1394	5.83179
10.46016	-39.30191	5.85132
10.4616	-29.8851	5.87085
10.4632	-27.8311	5.89038
10.4654	-34.005	5.90991
10.4661	-31.5539	5.92944
10.4679	-23.1122	5.94897
10.4691	-32.4607	5.96851
10.47153	-28.8277	5.98804
10.4727	-22.2099	6.00757
10.4741	-24.3627	6.0271
10.4767	-30.1014	6.04663
10.4772	-17.305	6.06616
10.4795	-22.3488	6.08569
10.4814	-24.3818	6.10522
10.4828	-15.8829	6.12476
10.4849	-16.1384	6.14429
10.4857	-25.7816	6.16382
10.4875	-15.7407	6.18335
10.4895	-14.907	6.20288
10.4919	-18.7118	6.22241
10.4932	-13.2515	6.24194
10.49292	-8.34972	6.26147
10.4955	-18.5396	6.28101
10.49684	-11.63668	6.30054
10.4995	-7.65689	6.32007
10.5015	-12.7321	6.3396
10.503	-11.17141	6.35913
10.5044	-4.55047	6.37866
10.506	-8.764411	6.39819
10.5074	-12.8118	6.41772
10.5095	-3.67814	6.43726
10.5106	-4.02292	6.45679
10.5126	-7.12222	6.47632
10.5128	-2.4589	6.49585
10.5146	0.647113	6.51538
10.5166	-5.06048	6.53491
10.5186	-1.11892	6.55444
10.5205	6.71015	6.57397
10.52127	0.449629	6.59351
10.5228	-1.49504	6.61304
10.5258	11.05831	6.63257
10.5264	3.33064	6.6521
10.5286	3.67448	6.67163
10.5296	10.4748	6.69116
10.5315	8.9988	6.71069
10.5326	1.16142	6.73022
10.5351	14.7628	6.74976
10.536	10.5726	6.76929
10.5383	6.77423	6.78882
10.5395	15.14203	6.80835
10.5406	19.616	6.82788
10.54275	7.44771	6.84741
10.54431	16.9011	6.86694
10.54581	20.5966	6.88647
10.548	14.3199	6.90601
10.5501	17.19194	6.92554
10.5503	24.5124	6.94507
10.5526	15.2034	6.9646
10.5551	19.9883	6.98413
10.5558	26.68664	7.00366
10.558	25.0048	7.02319
10.5597	19.5408	7.04272
10.56064	28.0966	7.06226
10.56439	26.5136	7.08179
10.56362	24.76235	7.10132
10.5649	29.5554	7.12085
10.567	31.2449	7.14038
10.5691	26.49851	7.15991
10.5702	30.9894	7.17944
10.5716	35.3903	7.19897
10.5747	30.2334	7.21851
10.5759	30.3813	7.23804
10.5767	40.3262	7.25757
10.5783	36.1626	7.2771
10.58047	31.9521	7.29663
10.58213	40.1674	7.31616
10.5838	38.3867	7.33569
10.5853	35.8895	7.35522
10.5876	44.28521	7.37476
10.5886	44.1884	7.39429
10.5895	33.4496	7.41382
10.5921	45.7552	7.43335
10.5935	47.7294	7.45288
10.5948	41.6467	7.47241
10.597	46.7601	7.49194
10.5983	51.4081	7.51147
10.5985	41.95	7.53101
10.6015	48.5111	7.55054
10.6031	51.8671	7.57007
10.6056	49.76371	7.5896
10.6074	49.1849	7.60913
10.6079	58.8596	7.62866
10.6095	50.4483	7.64819
10.6107	50.9188	7.66772
10.6123	58.8719	7.68726
10.6142	59.5067	7.70679
10.6169	54.5397	7.72632
10.6171	61.7211	7.74585
10.619	58.7261	7.76538
10.621	56.8214	7.78491
10.6229	62.0696	7.80444
10.6242	66.84742	7.82397
10.6263	60.1882	7.84351
10.6274	60.9169	7.86304
10.6297	67.6747	7.88257
10.6314	66.31266	7.9021
10.6319	62.2795	7.92163
10.6332	70.2048	7.94116
10.6358	69.3657	7.96069
10.6375	66.1185	7.98022
10.6384	74.1079	7.99976
10.6405	73.6961	8.01929
10.6416	68.0651	8.03882
10.6428	74.4583	8.05835
10.6452	81.1676	8.07788
10.6471	68.4851	8.09741
10.6481	75.8561	8.11694
10.6509	83.6044	8.13647
10.6527	77.1831	8.15601
10.6536	77.8675	8.17554
10.6557	86.313	8.19507
10.6568	77.352	8.2146
10.6583	81.8089	8.23413
10.65975	87.9536	8.25366
10.6608	85.5506	8.27319
10.6627	79.7479	8.29272
10.6651	92.8457	8.31226
10.6669	88.063	8.33179
10.6683	84.6905	8.35132
10.6703	89.1223	8.37085
10.6716	94.9076	8.39038
10.6732	88.885	8.40991
10.674	93.7685	8.42944
10.6753	95.9656	8.44897
10.6779	92.6449	8.46851
10.67997	93.3629	8.48804
10.6806	102.2008	8.50757
10.6824	96.4877	8.5271
10.6845	93.9841	8.54663
10.6868	100.728	8.56616
10.6878	100.9267	8.58569
10.69027	95.9879	8.60522
10.6922	104.325	8.62476
10.6924	104.744	8.64429
10.693	98.6438	8.66382
10.6958	106.785	8.68335
10.6977	111.152	8.70288
10.7001	103.3371	8.72241
10.7006	105.566	8.74194
10.7023	114.8382	8.76147
10.7038	107.408	8.78101
10.7059	108.245	8.80054
10.7068	115.22	8.82007
10.7086	112.441	8.8396
10.71118	111.193	8.85913
10.7118	120.307	8.87866
10.7129	112.369	8.89819
10.715	110.787	8.91772
10.7161	120.13	8.93726
10.7185	121.9482	8.95679
10.7203	115.387	8.97632
10.7214	123.036	8.99585
10.7241	120.871	9.01538
10.7254	120.721	9.03491
10.7271	122.017	9.05444
10.7289	129.611	9.07397
10.73014	122.715	9.09351
10.7314	126.6992	9.11304
10.7329	129.48	9.13257
10.7361	128.544	9.1521
10.7366	123.361	9.17163
10.7388	135.587	9.19116
10.73952	133.08	9.21069
10.74182	129.177	9.23022
10.7441	134.1032	9.24976
10.7448	138.1	9.26929
10.7461	131.175	9.28882
10.7484	138.634	9.30835
10.7498	142.577	9.32788
10.7513	132.176	9.34741
10.75299	137.377	9.36694
10.75426	146.623	9.38647
10.7569	138.823	9.40601
10.7575	136.612	9.42554
10.7592	148.722	9.44507
10.7615	140.747	9.4646
10.7633	140.808	9.48413
10.7634	149.083	9.50366
10.7664	145.617	9.52319
10.7674	142.625	9.54272
10.7691	153.43	9.56226
10.7713	151.4633	9.58179
10.7724	145.4122	9.60132
10.7741	150.166	9.62085
10.7756	157.166	9.64038
10.7765	148.773	9.65991
10.7792	156.043	9.67944
10.7797	156.137	9.69897
10.7831	153.9608	9.71851
10.7834	154.759	9.73804
10.7863	165.436	9.75757
10.7866	156.844	9.7771
10.7891	156.584	9.79663
10.7889	163.411	9.81616
10.7911	164.631	9.83569
10.7936	157.35	9.85522
10.796	167.073	9.87476
10.7969	167.21	9.89429
10.7988	163.125	9.91382
10.7998	166.083	9.93335
10.80199	172.368	9.95288
10.8032	162.508	9.97241
10.8055	170.075	9.99194
10.80684	176.64	10.0115
10.8086	168.5658	10.031
10.8098	167.318	10.0505
10.8112	177.982	10.0701
10.8121	172.917	10.0896
10.81506	172.766	10.1091
10.81532	181.367	10.1287
10.8171	175.695	10.1482
10.8193	172.532	10.1677
10.8198	183.404	10.1873
10.8228	183.049	10.2068
10.8255	175.267	10.2263
10.8263	186.009	10.24585
10.8281	186.768	10.2654
10.8293	180.633	10.2849
10.8305	183.977	10.3044
10.8329	190.366	10.324
10.8333	183.385	10.3435
10.836	187.542	10.363
10.8377	191.346	10.3826
10.8382	188.922	10.4021
10.84065	185.535	10.4216
10.84127	197.155	10.4412
10.8447	193.997	10.4607
10.8451	191.137	10.4802
10.8467	194.491	10.4998
10.8499	201.1756	10.5193
10.85	191.728	10.5388
10.8517	201.09	10.55835
10.8537	201.6028	10.5779
10.8556	196.346	10.5974
10.8571	197.918	10.6169
10.859	208.163	10.6365
10.8591	198.16	10.656
10.8619	201.818	10.6755
10.8619	208.754	10.6951
10.8653	204.366	10.7146
10.8658	199.746	10.7341
10.8678	213.2711	10.7537
10.87	207.813	10.7732
10.8724	204.73	10.7927
10.8724	214.411	10.8123
10.87576	212.298	10.8318
10.8764	205.162	10.8513
10.8784	216.085	10.87085
10.8794	217.313	10.8904
10.881	211.303	10.9099
10.8826	217.009	10.9294
10.8852	220.259	10.949
10.8868	214.495	10.9685
10.888	217.045	10.988
10.8893	224.1864	11.0076
10.892	217.962	11.0271
10.8928	219.818	11.0466
10.8942	226.419	11.0662
10.8955	225.415	11.0857
10.8971	219.451	11.1052
10.899	227.81	11.1248
10.90135	227.353	11.1443
10.9028	224.572	11.1638
10.9055	228.023	11.18335
10.9047	234.842	11.2029
10.9081	223.639	11.2224
10.9089	232.065	11.2419
10.9099	237.002	11.2615
10.9114	231.26	11.281
10.9137	228.907	11.3005
10.9152	240.821	11.3201
10.9166	233.644	11.3396
10.9197	233.578	11.3591
10.9204	243.164	11.3787
10.9222	240.806	11.3982
10.9236	234.049	11.4177
10.925	244.9407	11.4373
10.92638	240.778	11.4568
10.9276	237.063	11.4763
10.93	247.627	11.49585
10.9313	249.512	11.5154
10.9337	237.826	11.5349
10.9355	246.488	11.5544
10.9354	250.814	11.574
10.9373	245.879	11.5935
10.9398	248.978	11.613
10.9416	252.9079	11.6326
10.9436	247.032	11.6521
10.94543	250.499	11.6716
10.9456	258.7757	11.6912
10.9478	253.585	11.7107
10.9495	252.705	11.7302
10.9509	258.486	11.7498
10.9535	261.425	11.7693
10.95474	253.066	11.7888
10.956	260.947	11.80835
10.9589	261.632	11.8279
10.959	258.011	11.8474
10.9614	261.576	11.8669
10.9617	268.82	11.8865
10.9641	258.378	11.906
10.9654	263.296	11.9255
10.96722	271.135	11.9451
10.9693	267.759	11.9646
10.9708	259.257	11.9841
10.9724	274.894	12.0037
10.9738	268.33	12.0232
10.97525	265.5806	12.0427
10.9773	275.711	12.0623
10.9792	277.285	12.0818
10.9808	264.5278	12.1013
10.98204	279.531	12.12085
10.9839	280.381	12.1404
10.9852	273.405	12.1599
10.9862	277.955	12.1794
10.988	286.401	12.199
10.99	274.5687	12.2185
10.9919	279.844	12.238
10.9933	285.736	12.2576
10.9956	281.294	12.2771
10.9957	281.174	12.2966
10.9986	290.159	12.3162
11.0005	282.712	12.3357
11.0016	281.013	12.3552
11.0032	291.45	12.3748
11.005	291.5	12.3943
11.0063	285.196	12.4138
11.0081	289.256	12.43335
11.0101	293.498	12.4529
11.0117	287.412	12.4724
11.0127	293.576	12.4919
11.0152	298.73	12.5115
11.0166	292.877	12.531
11.0169	292.817	12.5505
11.0198	302.2771	12.5701
11.0216	295.053	12.5896
11.02248	294.653	12.6091
11.0245	304.054	12.6287
11.0262	301.649	12.6482
11.0278	294.752	12.6677
11.0288	305.55	12.6873
11.031	304.313	12.7068
11.0333	299.929	12.7263
11.034	307.57	12.74585
11.037	311.935	12.7654
11.0378	300.574	12.7849
11.04	308.913	12.8044
11.04	314.966	12.824
11.0419	308.979	12.8435
11.043	308.979	12.863
11.0457	318.875	12.8826
11.0473	308.124	12.9021
11.0495	311.581	12.9216
11.0491	318.649	12.9412
11.0528	316.069	12.9607
11.0537	311.452	12.9802
11.05526	320.686	12.9998
11.0573	316.465	13.0193
11.05819	314.44	13.0388
11.0605	321.396	13.05835
11.0621	326.696	13.0779
11.0636	319.595	13.0974
11.0644	322.73	13.1169
11.0668	325.797	13.1365
11.0682	320.642	13.156
11.06993	323.892	13.1755
11.0718	332.313	13.1951
11.073	326.486	13.2146
11.0751	321.285	13.2341
11.0762	333.702	13.2537
11.0786	330.5238	13.2732
11.0798	328.099	13.2927
11.081	333.9	13.3123
11.0829	336.5723	13.3318
11.0848	326.27	13.3513
11.08611	338.031	13.37085
11.0887	338.2587	13.3904
11.0898	333.024	13.4099
11.0917	337.563	13.4294
11.0933	346.974	13.449
11.0941	335.125	13.4685
11.0955	339.36	13.488
11.0973	345.133	13.5076
11.0997	341.87	13.5271
11.1007	339.901	13.5466
11.1023	349.869	13.5662
11.1043	342.45	13.5857
11.106	344.002	13.6052
11.1076	351.898	13.6248
11.1098	351.675	13.6443
11.1103	343.6123	13.6638
11.112	353.15	13.68335
11.1144	353.576	13.7029
11.1164	348.458	13.7224
11.1177	352.209	13.7419
11.1185	359.811	13.7615
11.1205	351.543	13.781
11.1223	354.96	13.8005
11.1247	360.1918	13.8201
11.1248	356.365	13.8396
11.1268	354.892	13.8591
11.1289	363.5	13.8787
11.13	362.423	13.8982
11.1317	354.978	13.9177
11.1341	363.108	13.9373
11.1349	365.954	13.9568
11.1368	359.008	13.9763
11.1382	365.302	13.99585
11.1402	372.05	14.0154
11.142	360.042	14.0349
11.1435	366.4704	14.0544
11.1448	374.593	14.074
11.1473	367.517	14.0935
11.1487	367.269	14.113
11.1499	377.253	14.1326
11.152	367.956	14.1521
11.1526	371.15	14.1716
11.1545	378.329	14.1912
11.1564	375.229	14.2107
11.1574	371.178	14.2302
11.16	381.76	14.2498
11.1599	377.39	14.2693
11.1628	373.828	14.2888
11.1648	380.258	14.30835
11.1661	385.679	14.3279
11.1689	377.8205	14.3474
11.1691	381.856	14.3669
11.1708	383.391	14.3865
11.17244	382.231	14.406
11.1743	382.968	14.4255
11.1768	391.672	14.4451
11.1776	384.79	14.4646
11.18	384.693	14.4841
11.1808	391.478	14.5037
11.1811	391.634	14.5232
11.1845	384.2	14.5427
11.18628	394.548	14.5623
11.1877	395.113	14.5818
11.1886	388.408	14.6013
11.1899	394.704	14.62085
11.1918	398.745	14.6404
11.1934	391.631	14.6599
11.19587	395.282	14.6794
11.1959	405.788	14.699
11.1985	393.429	14.7185
11.2003	395.5878	14.738
11.2028	406.372	14.7576
11.20381	400.877	14.7771
11.2057	397.273	14.7966
11.207	409.389	14.8162
11.208	402.298	14.8357
11.2105	401.172	14.8552
11.2113	410.001	14.8748
11.2132	411.677	14.8943
11.2159	402.19	14.9138
11.2169	412.7352	14.93335
11.218	412.25	14.9529
11.2189	407.754	14.9724
11.2217	409.726	14.9919
11.2228	419.014	15.0115
11.2247	411.3898	15.031
11.2271	414.8	15.0505
11.2272	417.416	15.0701
11.2289	417.2684	15.0896
11.2319	412.447	15.1091
11.2318	426.114	15.1287
11.2344	420.807	15.1482
11.2355	414.666	15.1677
11.2374	423.592	15.1873
11.2392	426.952	15.2068
11.2408	417.2959	15.2263
11.2422	425.153	15.24585
11.2433	429.992	15.2654
11.246	422.754	15.2849
11.2476	424.334	15.3044
11.2489	434.375	15.324
11.2504	424.06	15.3435
11.2519	426.502	15.363
11.2541	435.392	15.3826
11.2548	428.881	15.4021
11.2574	427.107	15.4216
11.2594	437.804	15.4412
11.25998	434.567	15.4607
11.2619	431.522	15.4802
11.2632	441.313	15.4998
11.2643	435.757	15.5193
11.267	432.147	15.5388
11.2683	439.66	15.55835
11.2702	443.403	15.5779
11.2718	431.768	15.5974
11.273	440.815	15.6169
11.2756	445.557	15.6365
11.2766	440.138	15.656
11.2791	441.0502	15.6755
11.28081	450.659	15.6951
11.2813	442.627	15.7146
11.2834	445.3923	15.7341
11.28409	450.125	15.7537
11.2864	448.966	15.7732
11.2875	442.33	15.7927
11.2898	454.048	15.8123
11.2902	455.445	15.8318
11.2919	447.188	15.8513
11.2953	451.006	15.87085
11.2961	459.322	15.8904
11.2977	447.665	15.9099
11.2997	454.956	15.9294
11.3018	461.522	15.949
11.30233	452.6	15.9685
11.3049	452.917	15.988
11.3058	466.508	16.0076
11.3068	457.844	16.0271
11.30915	454.453	16.0466
11.3108	466.408	16.0662
11.312	462.826	16.0857
11.3153	456.186	16.1052
11.3153	467.874	16.1248
11.3181	465.662	16.1443
11.3194	458.289	16.1638
11.3208	471.297	16.18335
11.3221	470.65	16.2029
11.3232	461.308	16.2224
11.326	467.798	16.2419
11.3278	476.235	16.2615
11.3291	467.089	16.281
11.3312	469.65	16.3005
11.3324	474.469	16.3201
11.3333	471.8	16.3396
11.3356	470.833	16.3591
11.3363	481.693	16.3787
11.3383	475.127	16.3982
11.3401	472.348	16.4177
11.3422	480.4278	16.4373
11.3433	484.798	16.4568
11.3443	473.5069	16.4763
11.3476	484.223	16.49585
11.349	485.535	16.5154
11.3496	480.915	16.5349
11.351	481.656	16.5544
11.3532	490.629	16.574
11.3542	480.652	16.5935
11.3558	485.517	16.613
11.359	494.399	16.6326
11.3596	487.595	16.6521
11.3609	479.619	16.6716
11.362	496.659	16.6912
11.3646	491.246	16.7107
11.36546	487.16	16.7302
11.368	496.813	16.7498
11.3694	493.799	16.7693
11.3709	486.645	16.7888
11.3727	499.552	16.80835
11.3748	500.222	16.8279
11.3763	490.658	16.8474
11.3777	498.728	16.8669
11.3797	504.196	16.8865
11.3808	493.915	16.906
11.382	497.463	16.9255
11.3846	505.833	16.9451
11.3858	499.5791	16.9646
11.3871	501.118	16.9841
11.3887	507.816	17.0037
11.3911	504.041	17.0232
11.3926	500.215	17.0427
11.39374	511.128	17.0623
11.3953	510.524	17.0818
11.3972	504.538	17.1013
11.3989	508.956	17.12085
11.4014	516.6217	17.1404
11.4016	504.96	17.1599
11.4038	511.641	17.1794
11.4053	519.661	17.199
11.4066	511.64	17.2185
11.4091	510.867	17.238
11.4101	521.654	17.2576
11.41314	511.197	17.2771
11.4131	512.489	17.2966
11.4155	526.607	17.3162
11.417	520.577	17.3357
11.4184	513.107	17.3552
11.4197	525.25	17.3748
11.4217	522.78	17.3943
11.4224	518.133	17.4138
11.42525	526.547	17.43335
11.4259	527.441	17.4529
11.42842	516.7785	17.4724
11.4305	527.071	17.4919
11.4313	532.24	17.5115
11.433	524.159	17.531
11.4353	527.5567	17.5505
11.43629	533.946	17.5701
11.4374	526.274	17.5896
11.44	528.304	17.6091
11.4408	534.873	17.6287
11.4433	530.586	17.6482
11.4438	529.472	17.6677
11.4462	537.097	17.6873
11.44717	537.935	17.7068
11.4491	527.945	17.7263
11.4516	538.353	17.74585
11.4524	541.482	17.7654
11.4542	536.021	17.7849
11.4553	537.035	17.8044
11.4568	544.533	17.824
11.4587	534.901	17.8435
11.4607	540.635	17.863
11.4617	548.853	17.8826
11.4631	543.785	17.9021
11.4655	538.076	17.9216
11.4668	552.627	17.9412
11.4695	546.175	17.9607
11.47	541.959	17.9802
11.4723	551.094	17.9998
11.4738	552.119	18.0193
11.4764	542.192	18.0388
11.4767	554.676	18.05835
11.4777	552.525	18.0779
11.4793	547.432	18.0974
11.4812	552.374	18.1169
11.48345	560.701	18.1365
11.4846	547.589	18.156
11.4855	552.75	18.1755
11.4881	561.336	18.1951
11.4906	554.3504	18.2146
11.4914	555.135	18.2341
11.4935	564.43	18.2537
11.4955	557.931	18.2732
11.4964	556.411	18.2927
11.4984	565.353	18.3123
11.5004	563.848	18.3318
11.5011	558.024	18.3513
11.5032	565.981	18.37085
11.5046	566.1936	18.3904
11.5062	561.062	18.4099
11.5076	566.226	18.4294
11.50876	569.638	18.449
11.5109	566.392	18.4685
11.5122	565.547	18.488
11.5141	572.8299	18.5076
11.5161	567.261	18.5271
11.5179	567.397	18.5466
11.5197	576.874	18.5662
11.5209	576.02	18.5857
11.5228	565.122	18.6052
11.5247	578.0047	18.6248
11.5255	575.623	18.6443
11.527	572.168	18.6638
11.5293	578.694	18.68335
11.531	582.265	18.7029
11.5319	570.367	18.7224
11.534	581.854	18.7419
11.5362	585.49	18.7615
11.5367	579.431	18.781
11.5386	580.158	18.8005
11.5408	588.807	18.8201
11.5415	580.332	18.8396
11.5442	582.549	18.8591
11.5447	588.9455	18.8787
11.5466	586.675	18.8982
11.5477	582.492	18.9177
11.5498	591.623	18.9373
11.5523	585.691	18.9568
11.5532	584.569	18.9763
11.5545	592.325	18.99585
11.5561	595.773	19.0154
11.5585	586.448	19.0349
11.56	591.4809	19.0544
11.5614	595.503	19.074
11.56286	592.61	19.0935
11.5647	592.133	19.113
11.5671	599.6239	19.1326
11.5675	595.251	19.1521
11.5696	592.624	19.1716
11.5715	601.648	19.1912
11.5726	599.563	19.2107
11.5751	593.913	19.2302
11.57631	603.651	19.2498
11.5781	605.505	19.2693
11.5798	596.337	19.2888
11.5815	604.461	19.30835
11.5825	607.7666	19.3279
11.58497	600.401	19.3474
11.5866	606.062	19.3669
11.5881	612.989	19.3865
11.58939	600.891	19.406
11.5915	605.636	19.4255
11.5925	613.7926	19.4451
11.5953	608.321	19.4646
11.5956	606.8515	19.4841
11.59782	615.339	19.5037
11.5982	610.554	19.5232
11.6013	609.723	19.5427
11.6019	617.445	19.5623
11.6035	615.741	19.5818
11.6051	609.961	19.6013
11.6072	620.705	19.62085
11.6087	620.5	19.6404
11.6103	613.441	19.6599
11.6121	616.079	19.6794
11.6138	625.189	19.699
11.615	617.24	19.7185
11.6165	617.869	19.738
11.6194	624.361	19.7576
11.6202	622.206	19.7771
11.6222	619.948	19.7966
11.62453	629.839	19.8162
11.6252	625.293	19.8357
11.6276	617.737	19.8552
11.6274	629.873	19.8748
11.6302	630.864	19.8943
11.6318	622.737	19.9138
11.6333	629.596	19.93335
11.6337	635.229	19.9529
11.6371	624.135	19.9724
11.638	630.709	19.9919
11.6397	635.694	20.0115
11.6407	635.752	20.02124

Data Header:			0.254_hd_uprint_typei_090_r0			Time:	39.4031	s	4/15/2019 3:51:24 PM
Data Acquisition:	Timed
Station Name:	ft40.cfg
Test File Name:	monotonic_0.2540_typei_hd_090_uprint.tst
Displacement	Force	Running Time
mm	N	s
11.64109	627.156	20.031
11.6425	630.527	20.0505
11.6444	640.905	20.0701
11.6461	629.671	20.0896
11.6468	631.937	20.1091
11.64915	640.067	20.1287
11.6502	638.188	20.1482
11.6526	633.83	20.1677
11.6534	643.9303	20.1873
11.6561	638.773	20.2068
11.6573	636.37	20.2263
11.6589	641.828	20.24585
11.6602	648.153	20.2654
11.6624	636.665	20.2849
11.6634	645.234	20.3044
11.6655	647.666	20.324
11.6666	642.947	20.3435
11.66864	642.425	20.363
11.6698	652.746	20.3826
11.6724	645.95	20.4021
11.6744	645.862	20.4216
11.6752	650.749	20.4412
11.6765	650.46	20.4607
11.6787	643.304	20.4802
11.6801	655.44	20.4998
11.6819	656.488	20.5193
11.6829	647.809	20.5388
11.6845	652.378	20.55835
11.6867	660.896	20.5779
11.6886	650.474	20.5974
11.6892	656.9303	20.6169
11.6913	661.864	20.6365
11.694	653.331	20.656
11.6957	657.246	20.6755
11.6967	665.291	20.6951
11.6979	658.015	20.7146
11.6994	655.659	20.7341
11.7008	668.921	20.7537
11.7029	661.008	20.7732
11.7049	658.063	20.7927
11.7069	666.318	20.8123
11.7081	667.184	20.8318
11.7091	660.3667	20.8513
11.711	670.282	20.87085
11.7121	668.04	20.8904
11.714	662.314	20.9099
11.7154	667.902	20.9294
11.7176	675.529	20.949
11.71912	668.1319	20.9685
11.7203	670.697	20.988
11.7228	673.922	21.0076
11.7247	674.634	21.0271
11.72568	668.731	21.0466
11.7265	679.824	21.0662
11.7294	675.707	21.0857
11.731	670.263	21.1052
11.7319	676.421	21.1248
11.7343	680.271	21.1443
11.7346	670.309	21.1638
11.7368	681.3139	21.18335
11.73884	685.546	21.2029
11.7402	674.727	21.2224
11.7431	678.164	21.2419
11.7437	686.905	21.2615
11.7452	678.192	21.281
11.7462	680.234	21.3005
11.7491	690.914	21.3201
11.7504	681.611	21.3396
11.75223	679.152	21.3591
11.7542	691.93	21.3787
11.7547	687.132	21.3982
11.7569	681.294	21.4177
11.7591	695.44	21.4373
11.7603	689.201	21.4568
11.76202	683.024	21.4763
11.7629	692.57	21.49585
11.76494	693.577	21.5154
11.7658	686.054	21.5349
11.76758	696.065	21.5544
11.7696	696.453	21.574
11.7709	690.967	21.5935
11.7728	692.25	21.613
11.7742	701.356	21.6326
11.7759	693.693	21.6521
11.7777	695.38	21.6716
11.7792	699.817	21.6912
11.7805	699.6145	21.7107
11.7831	694.368	21.7302
11.7842	706.713	21.7498
11.7859	702.292	21.7693
11.7878	696.809	21.7888
11.7893	701.54	21.80835
11.79	710.416	21.8279
11.7919	698.142	21.8474
11.7935	705.578	21.8669
11.7965	711.3396	21.8865
11.797	703.262	21.906
11.7988	702.067	21.9255
11.8003	714.379	21.9451
11.8022	705.561	21.9646
11.8045	706.38	21.9841
11.8054	716.22	22.0037
11.8072	711.9375	22.0232
11.8097	703.815	22.0427
11.8102	717.176	22.0623
11.8122	714.658	22.0818
11.8137	708.55	22.1013
11.8155	717.1546	22.12085
11.817	718.237	22.1404
11.819	709.508	22.1599
11.8202	719.013	22.1794
11.8208	723.437	22.199
11.8229	711.81	22.2185
11.8247	717.176	22.238
11.8257	724.23	22.2576
11.8286	718.216	22.2771
11.8288	715.9679	22.2966
11.83155	726.7514	22.3162
11.8331	722.472	22.3357
11.8339	718.719	22.3552
11.8365	724.423	22.3748
11.837	727.956	22.3943
11.8403	717.439	22.4138
11.8417	728.88	22.43335
11.8428	732.149	22.4529
11.8456	723.489	22.4724
11.8472	724.1095	22.4919
11.8479	734.666	22.5115
11.8497	725.67	22.531
11.8513	729.437	22.5505
11.8526	736.4082	22.5701
11.8541	729.889	22.5896
11.8558	726.218	22.6091
11.8575	740.648	22.6287
11.859	733.101	22.6482
11.8604	728.459	22.6677
11.8623	741.024	22.6873
11.8642	739.219	22.7068
11.8664	728.338	22.7263
11.8676	739.382	22.74585
11.8698	740.154	22.7654
11.8719	733.839	22.7849
11.8722	740.346	22.8044
11.8749	745.563	22.824
11.876	734.183	22.8435
11.8769	739.8949	22.863
11.8799	747.08	22.8826
11.8806	740.658	22.9021
11.8821	739.545	22.9216
11.8842	747.966	22.9412
11.88494	744.147	22.9607
11.8871	740.289	22.9802
11.8877	748.823	22.9998
11.8906	747.135	23.0193
11.8908	743.1734	23.0388
11.8932	750.088	23.05835
11.8952	753.3941	23.0779
11.897	741.941	23.0974
11.8986	750.766	23.1169
11.901	753.665	23.1365
11.9012	748.339	23.156
11.9022	748.18	23.1755
11.9052	760.339	23.1951
11.9064	749.335	23.2146
11.9075	750.607	23.2341
11.9102	760.693	23.2537
11.9108	755.938	23.2732
11.9118	747.161	23.2927
11.91414	762.78	23.3123
11.9159	758.8609	23.3318
11.9158	752.771	23.3513
11.9203	761.277	23.37085
11.92099	765.198	23.3904
11.9221	752.438	23.4099
11.9244	763.141	23.4294
11.9249	763.925	23.449
11.9277	755.9483	23.4685
11.929	760.7171	23.488
11.9311	769.391	23.5076
11.933	759.523	23.5271
11.9343	759.744	23.5466
11.9349	768.929	23.5662
11.9374	765.945	23.5857
11.9399	762.358	23.6052
11.9408	769.5	23.6248
11.9419	769.1839	23.6443
11.9435	763.4624	23.6638
11.9454	771.527	23.68335
11.9469	772.649	23.7029
11.9486	765.376	23.7224
11.95139	768.271	23.7419
11.9517	777.385	23.7615
11.9525	767.455	23.781
11.9549	770.175	23.8005
11.957	777.84	23.8201
11.9583	773.797	23.8396
11.9603	769.154	23.8591
11.9622	781.362	23.8787
11.963	774.203	23.8982
11.9658	771.818	23.9177
11.967	782.0257	23.9373
11.9685	779.991	23.9568
11.9699	769.0152	23.9763
11.9714	782.396	23.99585
11.9731	783.383	24.0154
11.9756	775.62	24.0349
11.9765	781.6745	24.0544
11.978	785.541	24.074
11.98	775.686	24.0935
11.9817	781.489	24.113
11.9837	787.968	24.1326
11.9848	781.349	24.1521
11.9864	780.682	24.1716
11.9878	790.035	24.1912
11.9899	784.997	24.2107
11.9911	782.861	24.2302
11.9919	789.6839	24.2498
11.995	788.153	24.2693
11.99605	783.647	24.2888
11.9975	792.467	24.30835
11.9994	790.966	24.3279
12.0014	784.792	24.3474
12.0031	789.965	24.3669
12.0043	796.351	24.3865
12.0055	788.279	24.406
12.0083	788.665	24.4255
12.0084	798.149	24.4451
12.0115	792.201	24.4646
12.0134	791.597	24.4841
12.0144	798.929	24.5037
12.0159	796.526	24.5232
12.0173	789.125	24.5427
12.0189	802.374	24.5623
12.0207	799.3927	24.5818
12.021	792.822	24.6013
12.0243	799.956	24.62085
12.0247	804.849	24.6404
12.0277	791.747	24.6599
12.0278	799.9212	24.6794
12.03094	804.496	24.699
12.0331	798.597	24.7185
12.0339	800.417	24.738
12.0345	808.613	24.7576
12.0368	796.604	24.7771
12.0384	801.539	24.7966
12.0392	807.896	24.8162
12.0421	804.222	24.8357
12.04321	800.081	24.8552
12.0448	809.427	24.8748
12.0459	806.852	24.8943
12.0488	803.108	24.9138
12.0486	808.546	24.93335
12.0518	810.789	24.9529
12.054	803.3598	24.9724
12.0549	809.495	24.9919
12.0558	813.154	25.0115
12.0571	805.95	25.031
12.0589	805.264	25.0505
12.0617	813.951	25.0701
12.0622	811.832	25.0896
12.06459	805.777	25.1091
12.0653	815.616	25.1287
12.06776	812.951	25.1482
12.07	807.998	25.1677
12.0707	817.004	25.1873
12.0721	816.643	25.2068
12.0744	805.1463	25.2263
12.0763	816.5083	25.24585
12.0775	819.098	25.2654
12.07869	811.286	25.2849
12.0807	815.281	25.3044
12.0821	822.695	25.324
12.0846	811.24	25.3435
12.0857	818.186	25.363
12.0872	822.376	25.3826
12.0889	816.127	25.4021
12.0901	816.622	25.4216
12.0915	828.472	25.4412
12.093	818.17	25.4607
12.0952	815.806	25.4802
12.0966	824.256	25.4998
12.098	825.608	25.5193
12.0997	817.9502	25.5388
12.1033	825.22	25.55835
12.1032	823.712	25.5779
12.1048	820.489	25.5974
12.1066	823.888	25.6169
12.1095	830.804	25.6365
12.1103	821.196	25.656
12.1119	823.904	25.6755
12.1126	830.343	25.6951
12.1145	825.135	25.7146
12.1166	822.2511	25.7341
12.1183	831.568	25.7537
12.1199	829.239	25.7732
12.1221	823.993	25.7927
12.1229	832.436	25.8123
12.1243	830.821	25.8318
12.1256	824.099	25.8513
12.1283	833.136	25.87085
12.1292	836.391	25.8904
12.1317	824.431	25.9099
12.1324	831.056	25.9294
12.1342	835.813	25.949
12.1361	829.589	25.9685
12.1376	831.053	25.988
12.1397	839.317	26.0076
12.1402	829.17	26.0271
12.1428	832.15	26.0466
12.1441	840.272	26.0662
12.1453	836.736	26.0857
12.1468	831.544	26.1052
12.1488	841.904	26.1248
12.1503	838.338	26.1443
12.1523	833.995	26.1638
12.1528	838.36	26.18335
12.156	842.777	26.2029
12.1573	835.143	26.2224
12.1596	840.626	26.2419
12.1604	842.187	26.2615
12.1627	837.074	26.281
12.1636	835.3158	26.3005
12.16414	847.506	26.3201
12.1667	840.124	26.3396
12.1685	839.477	26.3591
12.16993	844.237	26.3787
12.1716	844.247	26.3982
12.1734	836.927	26.4177
12.1749	846.708	26.4373
12.1771	845.596	26.4568
12.1788	838.096	26.4763
12.18	845.151	26.49585
12.1823	849.268	26.5154
12.1823	839.402	26.5349
12.18403	843.707	26.5544
12.1854	850.264	26.574
12.1881	841.279	26.5935
12.18918	841.393	26.613
12.1912	850.9057	26.6326
12.1937	844.776	26.6521
12.1948	842.104	26.6716
12.1952	854.069	26.6912
12.1984	845.969	26.7107
12.1992	843.073	26.7302
12.2012	852.162	26.7498
12.2027	853.5647	26.7693
12.2049	842.225	26.7888
12.205	852.194	26.80835
12.2078	850.1264	26.8279
12.2098	846.585	26.8474
12.2104	849.436	26.8669
12.2113	855.458	26.8865
12.2144	845.736	26.906
12.2152	850.3075	26.9255
12.21709	854.375	26.9451
12.2191	851.82	26.9646
12.221	847.016	26.9841
12.22172	858.9231	27.0037
12.2235	854.0036	27.0232
12.2252	849.736	27.0427
12.2279	853.2818	27.0623
12.2286	856.413	27.0818
12.2306	847.141	27.1013
12.2308	856.505	27.12085
12.233	860.434	27.1404
12.2349	847.91	27.1599
12.2364	852.656	27.1794
12.2383	861.228	27.199
12.2398	851.548	27.2185
12.24122	852.658	27.238
12.2436	861.969	27.2576
12.2447	853.371	27.2771
12.2471	850.61	27.2966
12.2483	861.636	27.3162
12.2495	856.125	27.3357
12.25198	848.363	27.3552
12.252	862.469	27.3748
12.2548	857.709	27.3943
12.2565	850.721	27.4138
12.2577	857.95	27.43335
12.2601	863.217	27.4529
12.2606	854.317	27.4724
12.2627	861.044	27.4919
12.2652	860.292	27.5115
12.2661	855.691	27.531
12.2675	856.336	27.5505
12.27	865.297	27.5701
12.2701	857.4809	27.5896
12.2724	857.0683	27.6091
12.27475	862.215	27.6287
12.2749	861.942	27.6482
12.2775	854.253	27.6677
12.2796	864.918	27.6873
12.2811	861.879	27.7068
12.28243	858.438	27.7263
12.2832	858.418	27.74585
12.2866	866.509	27.7654
12.2874	855.183	27.7849
12.289	861.6756	27.8044
12.2904	867.486	27.824
12.2917	856.973	27.8435
12.2938	854.478	27.863
12.2963	867.202	27.8826
12.2967	860.63	27.9021
12.2992	858.259	27.9216
12.3001	866.56	27.9412
12.302	861.22	27.9607
12.3038	854.928	27.9802
12.30452	867.438	27.9998
12.3075	864.485	28.0193
12.3087	854.989	28.0388
12.3091	863.368	28.05835
12.3115	865.688	28.0779
12.3138	857.891	28.0974
12.3152	861.178	28.1169
12.3166	868.326	28.1365
12.3178	859.943	28.156
12.3195	863.658	28.1755
12.3207	866.656	28.1951
12.3238	861.326	28.2146
12.3246	858.3468	28.2341
12.3261	870.28	28.2537
12.3283	864.768	28.2732
12.3291	859.628	28.2927
12.3317	864.183	28.3123
12.3334	867.668	28.3318
12.3337	857.575	28.3513
12.3357	868.532	28.37085
12.33665	869.083	28.3904
12.3393	860.503	28.4099
12.3405	860.655	28.4294
12.3435	870.947	28.449
12.3443	858.377	28.4685
12.3457	863.055	28.488
12.3482	870.869	28.5076
12.3489	865.791	28.5271
12.3515	857.693	28.5466
12.3523	869.71	28.5662
12.3534	865.0813	28.5857
12.3555	860.664	28.6052
12.3569	871.362	28.6248
12.3591	867.621	28.6443
12.36	856.199	28.6638
12.3622	868.53	28.68335
12.3639	869.667	28.7029
12.3653	860.706	28.7224
12.3676	866.677	28.7419
12.3683	867.706	28.7615
12.3704	860.469	28.781
12.37249	863.797	28.8005
12.3734	870.045	28.8201
12.3747	861.023	28.8396
12.3763	862.945	28.8591
12.3782	869.532	28.8787
12.38076	866.572	28.8982
12.3819	858.932	28.9177
12.3836	869.1557	28.9373
12.385	867.695	28.9568
12.3861	862.119	28.9763
12.3899	863.383	28.99585
12.3905	869.683	29.0154
12.3918	857.992	29.0349
12.3935	866.601	29.0544
12.3941	871.383	29.074
12.3967	861	29.0935
12.3984	860.366	29.113
12.3999	872.469	29.1326
12.4017	861.784	29.1521
12.4021	859.919	29.1716
12.4047	869.912	29.1912
12.4061	866.436	29.2107
12.4078	858.054	29.2302
12.4093	870.335	29.2498
12.4116	865.857	29.2693
12.4137	858.139	29.2888
12.4142	867.782	29.30835
12.4156	870.239	29.3279
12.4184	856.544	29.3474
12.4196	864.139	29.3669
12.4214	869.371	29.3865
12.4225	860.949	29.406
12.4232	863.778	29.4255
12.42539	867.311	29.4451
12.4274	859.172	29.4646
12.4286	859.649	29.4841
12.4305	869.232	29.5037
12.4315	863.397	29.5232
12.4344	859.002	29.5427
12.4351	865.589	29.5623
12.437	865.731	29.5818
12.4387	858.297	29.6013
12.4402	865.349	29.62085
12.4419	865.092	29.6404
12.4435	860.236	29.6599
12.4454	861.538	29.6794
12.4465	868.54	29.699
12.449	856.955	29.7185
12.4492	861.486	29.738
12.4518	868.882	29.7576
12.4545	862.069	29.7771
12.45471	855.5542	29.7966
12.4569	869.956	29.8162
12.4581	860.719	29.8357
12.4602	857.963	29.8552
12.4607	865.036	29.8748
12.463	864.976	29.8943
12.465	851.499	29.9138
12.466	867.52	29.93335
12.46826	863.98	29.9529
12.4692	856.496	29.9724
12.4709	861.114	29.9919
12.4723	867.823	30.0115
12.4741	856.931	30.031
12.4764	860.895	30.0505
12.4779	865.4754	30.0701
12.4781	861.371	30.0896
12.4804	861.488	30.1091
12.4831	867.661	30.1287
12.4842	858.843	30.1482
12.4849	857.0332	30.1677
12.4871	864.441	30.1873
12.4885	863.187	30.2068
12.4902	856.859	30.2263
12.4911	860.974	30.24585
12.4936	863.556	30.2654
12.4954	857.558	30.2849
12.4969	860.735	30.3044
12.499	864.239	30.324
12.5007	857.089	30.3435
12.5019	857.174	30.363
12.5041	866.621	30.3826
12.5054	858.018	30.4021
12.5064	856.484	30.4216
12.5084	863.607	30.4412
12.5103	861.649	30.4607
12.5114	853.296	30.4802
12.5136	863.529	30.4998
12.5145	860.281	30.5193
12.51727	853.828	30.5388
12.5186	860.653	30.55835
12.5198	864.456	30.5779
12.522	849.959	30.5974
12.5234	858.959	30.6169
12.525	861.306	30.6365
12.5268	854.88	30.656
12.5285	855.958	30.6755
12.53	865.336	30.6951
12.5317	852.271	30.7146
12.533	855.814	30.7341
12.5346	861.052	30.7537
12.5362	857.053	30.7732
12.5377	853.729	30.7927
12.5393	861.879	30.8123
12.5424	856.553	30.8318
12.5429	852.262	30.8513
12.5437	858.331	30.87085
12.5473	860.51	30.8904
12.5477	853.937	30.9099
12.5486	856.496	30.9294
12.5505	859.14	30.949
12.55235	854.0072	30.9685
12.5537	854.984	30.988
12.5557	861.153	31.0076
12.5568	854.361	31.0271
12.5598	849.307	31.0466
12.56062	861.094	31.0662
12.5614	856.877	31.0857
12.56365	850.868	31.1052
12.5655	858.041	31.1248
12.5675	858.415	31.1443
12.5693	848.672	31.1638
12.5699	857.463	31.18335
12.5715	857.422	31.2029
12.5733	849.887	31.2224
12.57552	854.808	31.2419
12.57658	861.136	31.2615
12.57775	847.836	31.281
12.5803	854.6709	31.3005
12.5821	858.827	31.3201
12.5832	852.451	31.3396
12.5852	852.792	31.3591
12.5869	861.022	31.3787
12.5891	850.086	31.3982
12.5895	851.203	31.4177
12.5922	855.929	31.4373
12.5926	855.372	31.4568
12.5945	848.051	31.4763
12.5972	856.419	31.49585
12.5974	854.554	31.5154
12.6003	849.86	31.5349
12.6007	850.847	31.5544
12.6037	858.171	31.574
12.6044	849.912	31.5935
12.6057	850.3139	31.613
12.6083	855.496	31.6326
12.6096	849.775	31.6521
12.61083	848.558	31.6716
12.6133	855.7218	31.6912
12.6142	851.297	31.7107
12.616	846.012	31.7302
12.6179	853.083	31.7498
12.6198	853.559	31.7693
12.6206	846.621	31.7888
12.6225	851.615	31.80835
12.6243	855.981	31.8279
12.6252	843.754	31.8474
12.6274	851.931	31.8669
12.6289	856.14	31.8865
12.6307	847.362	31.906
12.63268	847.209	31.9255
12.6342	858.28	31.9451
12.635	846.41	31.9646
12.6376	848.975	31.9841
12.6385	853.086	32.0037
12.6405	848.702	32.0232
12.64236	844.263	32.0427
12.6436	854.842	32.0623
12.6452	847.298	32.0818
12.6472	845.384	32.1013
12.6488	850.33	32.12085
12.6503	854.679	32.1404
12.651	844.732	32.1599
12.6537	848.2146	32.1794
12.6549	849.272	32.199
12.6561	846.7746	32.2185
12.6583	846.644	32.238
12.6601	854.479	32.2576
12.6624	846.263	32.2771
12.663	843.476	32.2966
12.6652	851.189	32.3162
12.6675	849.771	32.3357
12.6685	841.513	32.3552
12.6692	851.224	32.3748
12.6721	850.121	32.3943
12.6722	842.889	32.4138
12.6745	847.077	32.43335
12.6759	851.468	32.4529
12.6776	841.857	32.4724
12.6801	846.032	32.4919
12.6821	854.689	32.5115
12.6813	841.191	32.531
12.6842	844.896	32.5505
12.6866	851.568	32.5701
12.68771	845.557	32.5896
12.69	842.053	32.6091
12.6906	851.405	32.6287
12.6933	844.101	32.6482
12.6941	842.5882	32.6677
12.6961	849.821	32.6873
12.6977	847.416	32.7068
12.6997	840.991	32.7263
12.7003	850.5553	32.74585
12.703	847.473	32.7654
12.7044	841.553	32.7849
12.7052	842.865	32.8044
12.708	850.9184	32.824
12.7097	842.284	32.8435
12.7102	844.122	32.863
12.7131	846.59	32.8826
12.7125	844.87	32.9021
12.7149	840.362	32.9216
12.7175	851.428	32.9412
12.7185	845.809	32.9607
12.7198	840.773	32.9802
12.7215	845.4599	32.9998
12.7239	848.1087	33.0193
12.7253	837.78	33.0388
12.7266	845.522	33.05835
12.72906	849.372	33.0779
12.7301	840.311	33.0974
12.7324	842.991	33.1169
12.73286	848.5307	33.1365
12.7356	838.181	33.156
12.737	840.557	33.1755
12.7381	850.268	33.1951
12.7397	840.629	33.2146
12.7414	835.906	33.2341
12.7432	847.524	33.2537
12.7444	844.522	33.2732
12.7465	837.846	33.2927
12.74813	848.419	33.3123
12.7494	842.7439	33.3318
12.7513	837.116	33.3513
12.7535	844.889	33.37085
12.7543	847.734	33.3904
12.7565	835.5752	33.4099
12.7583	842.595	33.4294
12.7585	843.798	33.449
12.76049	839.856	33.4685
12.7617	837.775	33.488
12.7643	846.959	33.5076
12.7657	839.573	33.5271
12.7666	840.177	33.5466
12.7684	843.494	33.5662
12.7702	844.688	33.5857
12.772	835.785	33.6052
12.7741	847.09	33.6248
12.77444	846.972	33.6443
12.7771	837.286	33.6638
12.78	841.278	33.68335
12.77985	845.678	33.7029
12.7823	836.677	33.7224
12.7836	841.48	33.7419
12.7859	847.71	33.7615
12.7867	837.588	33.781
12.7886	838.393	33.8005
12.7896	849.108	33.8201
12.79242	837.597	33.8396
12.7931	837.694	33.8591
12.7949	848.335	33.8787
12.7966	840.929	33.8982
12.7976	835.439	33.9177
12.7995	844.127	33.9373
12.8008	842.384	33.9568
12.8023	834.615	33.9763
12.80403	843.632	33.99585
12.80584	840.875	34.0154
12.808	834.065	34.0349
12.8087	839.726	34.0544
12.8118	846.117	34.074
12.8126	836.461	34.0935
12.8147	839.286	34.113
12.8158	844.112	34.1326
12.8186	838.763	34.1521
12.8196	836.109	34.1716
12.8215	845.991	34.1912
12.823	839.6615	34.2107
12.8248	837.06	34.2302
12.8273	840.717	34.2498
12.8286	842.88	34.2693
12.8291	831.742	34.2888
12.8317	841.093	34.30835
12.8324	844.15	34.3279
12.8342	835.603	34.3474
12.836	835.327	34.3669
12.8375	844.976	34.3865
12.8382	832.791	34.406
12.8392	835.8092	34.4255
12.8427	845.983	34.4451
12.84367	837.258	34.4646
12.8462	831.78	34.4841
12.848	846.7027	34.5037
12.8485	839.163	34.5232
12.8498	832.748	34.5427
12.8527	842.122	34.5623
12.8533	841.373	34.5818
12.8544	830.923	34.6013
12.857	840.971	34.62085
12.8576	840.828	34.6404
12.8611	832.247	34.6599
12.8615	838.593	34.6794
12.86358	842.2511	34.699
12.8639	832.813	34.7185
12.8667	835.415	34.738
12.868	843.908	34.7576
12.8693	834.515	34.7771
12.8722	835.5874	34.7966
12.8734	840.675	34.8162
12.8746	837.283	34.8357
12.8772	832.6413	34.8552
12.8777	842.323	34.8748
12.8796	839.304	34.8943
12.8812	833.174	34.9138
12.8828	837.645	34.93335
12.8859	842.193	34.9529
12.8856	830.667	34.9724
12.888	838.47	34.9919
12.8892	841.545	35.0115
12.8912	836.3183	35.031
12.8937	831.72	35.0505
12.8942	843.445	35.0701
12.8968	833.322	35.0896
12.898	833.347	35.1091
12.8991	841.76	35.1287
12.90149	838.988	35.1482
12.9021	828.694	35.1677
12.9038	840.149	35.1873
12.906	837.9397	35.2068
12.9083	831.225	35.2263
12.9096	839.022	35.24585
12.9109	838.84	35.2654
12.9127	827.945	35.2849
12.9142	837.268	35.3044
12.9149	841.617	35.324
12.9182	832.353	35.3435
12.9193	834.435	35.363
12.9205	839.7948	35.3826
12.922	833.308	35.4021
12.9236	831.648	35.4216
12.9251	839.541	35.4412
12.9276	834.216	35.4607
12.9286	831.717	35.4802
12.9286	838.5564	35.4998
12.9325	836.766	35.5193
12.9328	830.675	35.5388
12.935	837.792	35.55835
12.937	839.788	35.5779
12.9379	832.2049	35.5974
12.9403	831.278	35.6169
12.9415	839.88	35.6365
12.9425	830.887	35.656
12.9453	833.872	35.6755
12.9462	839.2558	35.6951
12.94838	832.291	35.7146
12.9501	825.899	35.7341
12.9522	841.213	35.7537
12.95359	834.552	35.7732
12.9541	829.135	35.7927
12.9569	838.033	35.8123
12.9582	839.462	35.8318
12.9598	825.888	35.8513
12.962	837.642	35.87085
12.9616	837.269	35.8904
12.965	831.31	35.9099
12.9667	835.819	35.9294
12.9682	841.115	35.949
12.9697	827.516	35.9685
12.9711	832.257	35.988
12.9728	838.499	36.0076
12.9737	832.209	36.0271
12.9759	830.864	36.0466
12.9771	837.878	36.0662
12.979	831.144	36.0857
12.9801	830.011	36.1052
12.9826	837.599	36.1248
12.9848	833.291	36.1443
12.985	828.19	36.1638
12.9874	834.2832	36.18335
12.9881	836.193	36.2029
12.9907	827.0033	36.2224
12.9919	831.9	36.2419
12.9934	837.875	36.2615
12.9953	830.464	36.281
12.9979	829.462	36.3005
12.9983	836.5282	36.3201
13.00031	827.5907	36.3396
13.0023	829.563	36.3591
13.003	836.884	36.3787
13.0047	834.121	36.3982
13.0068	824.3	36.4177
13.0089	836.379	36.4373
13.0093	834.406	36.4568
13.01177	826.787	36.4763
13.0134	833.267	36.49585
13.0153	836.47	36.5154
13.01601	823.481	36.5349
13.0187	833.867	36.5544
13.0191	832.601	36.574
13.0226	827.113	36.5935
13.02256	829.816	36.613
13.0238	837.047	36.6326
13.025	825.188	36.6521
13.027	825.638	36.6716
13.0297	833.6239	36.6912
13.0303	830.035	36.7107
13.0334	825.281	36.7302
13.0345	833.246	36.7498
13.0364	826.594	36.7693
13.0371	822.372	36.7888
13.0393	828.857	36.80835
13.04	829.367	36.8279
13.0423	821.299	36.8474
13.04327	825.166	36.8669
13.0457	826.728	36.8865
13.04703	820.256	36.906
13.0477	820.134	36.9255
13.0504	826.209	36.9451
13.0533	819.599	36.9646
13.054	814.788	36.9841
13.05547	819.1955	37.0037
13.0657	-11.7647	37.0232
13.0638	-36.396	37.0427
13.0638	-35.9935	37.0623
13.064	-47.1449	37.0818
13.0662	-54.237	37.1013
13.0671	-44.3849	37.12085
13.0683	-41.8869	37.1404
13.0698	-50.0674	37.1599
13.0711	-46.1633	37.1794
13.0729	-39.1709	37.199
13.0737	-53.7956	37.2185
13.0762	-46.6183	37.238
13.0773	-40.6338	37.2576
13.0798	-47.7136	37.2771
13.0809	-50.7792	37.2966
13.0822	-38.1707	37.3162
13.0837	-47.4711	37.3357
13.0862	-49.5523	37.3552
13.0871	-43.0176	37.3748
13.0882	-44.5717	37.3943
13.0911	-51.0558	37.4138
13.0924	-43.1719	37.43335
13.0931	-43.7558	37.4529
13.0947	-50.6088	37.4724
13.0976	-47.0392	37.4919
13.0987	-38.3268	37.5115
13.0995	-48.0822	37.531
13.101	-47.1554	37.5505
13.103	-43.2169	37.5701
13.1049	-45.0513	37.5896
13.1062	-50.1741	37.6091
13.1083	-40.3281	37.6287
13.1095	-45.8079	37.6482
13.112	-51.0407	37.6677
13.1119	-42.5886	37.6873
13.1152	-42.3394	37.7068
13.1157	-51.2859	37.7263
13.1177	-45.1863	37.74585
13.1198	-40.7123	37.7654
13.1203	-51.9324	37.7849
13.1224	-44.8582	37.8044
13.1238	-41.70866	37.824
13.1255	-48.8368	37.8435
13.12727	-48.4763	37.863
13.129	-39.8811	37.8826
13.1294	-50.6109	37.9021
13.1329	-48.0836	37.9216
13.1336	-41.6993	37.9412
13.1356	-44.1978	37.9607
13.1365	-49.7282	37.9802
13.138	-41.28437	37.9998
13.1407	-44.9004	38.0193
13.1424	-48.2663	38.0388
13.1436	-44.3669	38.05835
13.1458	-41.8926	38.0779
13.1472	-49.8052	38.0974
13.1484	-43.4957	38.1169
13.14984	-41.6886	38.1365
13.1515	-48.4802	38.156
13.1535	-49.8214	38.1755
13.1547	-41.3711	38.1951
13.1564	-46.1777	38.2146
13.1585	-48.6847	38.2341
13.1603	-43.6373	38.2537
13.1617	-44.8781	38.2732
13.16312	-49.9464	38.2927
13.1635	-40.2262	38.3123
13.1663	-41.9937	38.3318
13.169	-51.9887	38.3513
13.1698	-45.8014	38.37085
13.1707	-41.0752	38.3904
13.1726	-51.3979	38.4099
13.175	-47.0869	38.4294
13.1767	-39.6829	38.449
13.1782	-50.1081	38.4685
13.1807	-48.8346	38.488
13.1809	-41.556	38.5076
13.1825	-47.0234	38.5271
13.1835	-50.9224	38.5466
13.18581	-37.9038	38.5662
13.1875	-46.6056	38.5857
13.1895	-50.1099	38.6052
13.191	-42.5834	38.6248
13.19255	-42.9004	38.6443
13.1941	-51.1796	38.6638
13.1959	-42.5247	38.68335
13.197	-44.2775	38.7029
13.19882	-48.516	38.7224
13.2009	-47.0941	38.7419
13.2014	-39.4602	38.7615
13.2033	-49.4081	38.781
13.2058	-48.0075	38.8005
13.2068	-45.1181	38.8201
13.20849	-45.4537	38.8396
13.2102	-51.4115	38.8591
13.2124	-42.13483	38.8787
13.2131	-44.12159	38.8982
13.2147	-48.9238	38.9177
13.21698	-43.71983	38.9373
13.2184	-43.1676	38.9568
13.2206	-52.8595	38.9763
13.2219	-43.3959	38.99585
13.2232	-39.5548	39.0154
13.2254	-49.7529	39.0349
13.2266	-48.7512	39.0544
13.2275	-39.8745	39.074
13.22951	-49.8615	39.0935
13.2314	-46.8205	39.113
13.2332	-38.8035	39.1326
13.2347	-49.903	39.1521
13.2361	-51.2105	39.1716
13.2382	-40.0782	39.1912
13.2394	-44.7049	39.2107
13.2404	-53.06337	39.2302
13.2439	-40.6808	39.2498
13.2441	-44.6866	39.2693
13.2458	-49.3005	39.2888
13.2477	-46.098	39.30835
13.2498	-43.6502	39.3279
13.2509	-49.7833	39.3474
13.2527	-45.0533	39.3669
13.2542	-42.2466	39.3865
13.2552	-44.4696	39.39624