File: data/processed_data_files/tensile/0.254_solid_uprint_typei_090_r(1).dat
MTS793|BTW|ENU|1|2|.|/|:|1|0|0|A

Data Header:			0.254_solid_dimension_typei_090_r0			Time:	20.0225	s	4/15/2019 2:36:23 PM
Data Acquisition:	Timed
Station Name:	ft40.cfg
Test File Name:	monotonic_0.2540_typei_solid_090_dimension.tst
Displacement	Force	Running Time
mm	N	s
9.9717	-144.558	0.02734375
9.972064	-142.689	0.046875
9.97135	-135.503	0.06640625
9.97293	-136.783	0.0859375
9.97354	-144.579	0.105469
9.97481	-136.762	0.125
9.97734	-136.221	0.144531
9.978405	-141.298	0.1640625
9.97975	-133.932	0.183594
9.98192	-127.691	0.203125
9.98336	-141.782	0.222656
9.98542	-133.275	0.2421875
9.98647	-125.7492	0.261719
9.98884	-131.774	0.28125
9.9895	-132.626	0.300781
9.99241	-122.413	0.3203125
9.9939	-132.271	0.339844
9.9953	-131.102	0.359375
9.99642	-121.842	0.378906
9.997406	-123.386	0.3984375
9.99958	-129.645	0.417969
10.0014	-117.607	0.4375
10.002	-121.046	0.457031
10.0057	-125.754	0.4765625
10.0065	-121.18	0.496094
10.0087	-114.058	0.515625
10.0093	-121.158	0.535156
10.0114	-117.335	0.5546875
10.0125	-114.466	0.574219
10.0132	-117.626	0.59375
10.0157	-118.092	0.613281
10.0179	-107.643	0.6328125
10.02	-113.324	0.652344
10.0199	-117.294	0.671875
10.0223	-107.841	0.691406
10.0245	-107.154	0.7109375
10.0264	-115.79	0.730469
10.0279	-105.356	0.75
10.0288	-103.415	0.769531
10.031	-112.056	0.7890625
10.032	-104.744	0.808594
10.033	-100.237	0.828125
10.0361	-108.0431	0.847656
10.03727	-103.778	0.8671875
10.03826	-92.8078	0.886719
10.0409	-103.91	0.90625
10.0426	-103.954	0.925781
10.0438	-93.2385	0.9453125
10.0458	-98.6923	0.964844
10.0474	-101.96	0.984375
10.0492	-88.2616	1.00391
10.0494	-96.1972	1.02344
10.0529	-97.45784	1.04297
10.05389	-89.7179	1.0625
10.0557	-87.5752	1.08203
10.0565	-97.3143	1.10156
10.0583	-86.8763	1.12109
10.0589	-84.24382	1.140625
10.0617	-89.4003	1.16016
10.0637	-88.7523	1.17969
10.0653	-78.564	1.19922
10.0666	-86.7196	1.21875
10.0687	-85.5616	1.23828
10.0702	-80.0091	1.25781
10.0718	-81.3939	1.27734
10.0733	-87.3255	1.296875
10.0751	-72.4631	1.31641
10.0769	-75.4779	1.33594
10.0774	-83.2266	1.35547
10.08	-75.7397	1.375
10.0818	-70.7701	1.39453
10.0823	-79.1535	1.41406
10.0842	-71.94841	1.43359
10.086	-67.2286	1.453125
10.0878	-75.8722	1.47266
10.0899	-72.6419	1.49219
10.0909	-62.6832	1.51172
10.09224	-71.5477	1.53125
10.0947	-72.0526	1.55078
10.0953	-57.4484	1.57031
10.099	-64.79248	1.58984
10.0992	-69.1575	1.609375
10.1009	-58.7598	1.62891
10.1029	-61.0301	1.64844
10.1035	-66.479	1.66797
10.1058	-54.26273	1.6875
10.1075	-56.9897	1.70703
10.109	-62.9181	1.72656
10.1102	-55.8759	1.74609
10.1127	-48.5189	1.765625
10.114	-58.9394	1.78516
10.1152	-53.0194	1.80469
10.1174	-48.9934	1.82422
10.1183	-51.5874	1.84375
10.1193	-52.2254	1.86328
10.1221	-42.56353	1.88281
10.1233	-47.65303	1.90234
10.1252	-49.0873	1.921875
10.126	-42.5137	1.94141
10.1284	-41.747	1.96094
10.13071	-50.7989	1.98047
10.1322	-39.2296	2
10.1332	-35.8414	2.01953
10.1348	-43.3278	2.03906
10.1363	-40.6063	2.05859
10.1385	-32.87574	2.078125
10.1404	-41.9296	2.09766
10.1418	-36.927	2.11719
10.1424	-28.6591	2.13672
10.14471	-39.3621	2.15625
10.1462	-39.2348	2.17578
10.1494	-24.6962	2.19531
10.1497	-31.2812	2.21484
10.1512	-35.2653	2.234375
10.1529	-21.8681	2.25391
10.1557	-26.3952	2.27344
10.1557	-32.5962	2.29297
10.1576	-21.9269	2.3125
10.15951	-22.0737	2.33203
10.1612	-31.3817	2.35156
10.1639	-19.853	2.37109
10.1644	-16.7931	2.390625
10.165	-24.9245	2.41016
10.1678	-22.3157	2.42969
10.1699	-10.8647	2.44922
10.1706	-19.282	2.46875
10.1728	-18.3326	2.48828
10.174	-11.7517	2.50781
10.1767	-14.7741	2.52734
10.1782	-18.6051	2.546875
10.17958	-5.43872	2.56641
10.1815	-10.0681	2.58594
10.182	-13.9138	2.60547
10.1832	-8.13841	2.625
10.1862	-2.77392	2.64453
10.1868	-13.0733	2.66406
10.18854	-4.21135	2.68359
10.1901	0.139028	2.703125
10.1916	-4.65865	2.72266
10.1931	-4.91493	2.74219
10.195	5.32844	2.76172
10.19717	-5.06327	2.78125
10.1978	-4.27172	2.80078
10.1996	10.9545	2.82031
10.2021	3.19861	2.83984
10.2031	-3.93898	2.859375
10.2044	10.9913	2.87891
10.2069	7.63064	2.89844
10.2077	2.480571	2.91797
10.2092	12.8334	2.9375
10.2111	10.4393	2.95703
10.2143	4.38432	2.97656
10.2154	13.7992	2.99609
10.216	18.4713	3.015625
10.21765	7.99708	3.03516
10.2192	15.8199	3.05469
10.2221	21.011	3.07422
10.2231	14.5078	3.09375
10.2248	14.7163	3.11328
10.2258	25.2843	3.13281
10.2279	20.2173	3.15234
10.2286	18.86422	3.171875
10.2301	24.0685	3.19141
10.2328	25.6481	3.21094
10.235	18.3842	3.23047
10.23662	32.1543	3.25
10.2379	31.9591	3.26953
10.2396	23.4119	3.28906
10.2399	26.9366	3.30859
10.2438	37.8093	3.328125
10.2431	25.3495	3.34766
10.2458	31.4782	3.36719
10.2473	40.1195	3.38672
10.2493	33.0425	3.40625
10.2508	29.5967	3.42578
10.2521	46.1793	3.44531
10.2534	35.6046	3.46484
10.2554	34.5292	3.484375
10.257	46.79398	3.50391
10.2595	45.0553	3.52344
10.262	33.9256	3.54297
10.2619	47.1589	3.5625
10.2632	48.5235	3.58203
10.2656	40.9511	3.60156
10.2671	48.2609	3.62109
10.2691	52.1437	3.640625
10.2707	40.0562	3.66016
10.2725	49.4761	3.67969
10.2732	57.9322	3.69922
10.2765	48.8644	3.71875
10.2769	50.8746	3.73828
10.279	60.197	3.75781
10.2802	53.3148	3.77734
10.2819	51.8024	3.796875
10.2835	61.2838	3.81641
10.2851	60.2595	3.83594
10.28658	56.4284	3.85547
10.2884	63.2694	3.875
10.2898	67.6284	3.89453
10.29228	55.0511	3.91406
10.294	66.1218	3.93359
10.2951	72.5207	3.953125
10.29685	64.3741	3.97266
10.2977	62.0976	3.99219
10.3004	77.1924	4.01172
10.3013	65.9217	4.03125
10.3027	69.9196	4.05078
10.30411	78.9926	4.07031
10.3051	74.5826	4.08984
10.3082	65.5243	4.109375
10.309	82.9085	4.12891
10.3115	78.2141	4.14844
10.3116	72.0435	4.16797
10.3145	81.5937	4.1875
10.3161	86.3461	4.20703
10.31808	72.9156	4.22656
10.3196	83.1328	4.24609
10.3211	87.80761	4.265625
10.3229	79.0849	4.28516
10.3233	84.7594	4.30469
10.325	94.134	4.32422
10.3267	82.284	4.34375
10.3287	83.4878	4.36328
10.3304	96.3639	4.38281
10.3322	89.8487	4.40234
10.33381	89.3881	4.421875
10.336	97.19857	4.44141
10.33636	95.3819	4.46094
10.339	90.0711	4.48047
10.3406	99.6844	4.5
10.3426	100.695	4.51953
10.3435	94.7535	4.53906
10.3447	99.8458	4.55859
10.34628	108.471	4.578125
10.3491	95.6014	4.59766
10.35029	103.083	4.61719
10.3513	109.445	4.63672
10.3529	104.545	4.65625
10.3549	101.126	4.67578
10.357	115.157	4.69531
10.3586	106.845	4.71484
10.36046	106.299	4.734375
10.3616	117.58	4.75391
10.3625	116.23	4.77344
10.36467	102.877	4.79297
10.3655	119.986	4.8125
10.3677	118.834	4.83203
10.36916	111.265	4.85156
10.3707	119.235	4.87109
10.373	124.312	4.890625
10.3746	112.022	4.91016
10.3761	120.039	4.92969
10.3787	126.574	4.94922
10.3788	119.483	4.96875
10.3819	120.893	4.98828
10.3825	132.313	5.00781
10.3847	123.437	5.02734
10.3862	122.963	5.046875
10.3872	131.859	5.06641
10.3899	131.78	5.08594
10.3908	127.043	5.10547
10.3924	134.918	5.125
10.3937	133.164	5.14453
10.396	128.9054	5.16406
10.3967	136.85	5.18359
10.3991	142.279	5.203125
10.4004	132.927	5.22266
10.4018	134.796	5.24219
10.4041	145.0154	5.26172
10.4058	137.31	5.28125
10.4073	138.032	5.30078
10.4078	148.046	5.32031
10.4103	145.434	5.33984
10.41085	137.595	5.359375
10.4122	152.8	5.37891
10.4156	147.181	5.39844
10.4171	142.716	5.41797
10.41791	153.464	5.4375
10.4201	156.683	5.45703
10.42195	143.251	5.47656
10.42309	155.374	5.49609
10.4248	157.581	5.515625
10.426	152.002	5.53516
10.4281	155.311	5.55469
10.4293	164.005	5.57422
10.4299	151.507	5.59375
10.4333	157.79	5.61328
10.4347	165.463	5.63281
10.437	160.714	5.65234
10.4387	157.859	5.671875
10.4396	170.391	5.69141
10.4405	163.678	5.71094
10.4433	162.607	5.73047
10.4443	168.424	5.75
10.4453	170.617	5.76953
10.4475	165.747	5.78906
10.4487	172.185	5.80859
10.45066	175.442	5.828125
10.4518	167.075	5.84766
10.4544	172.081	5.86719
10.4557	181.121	5.88672
10.4578	174.569	5.90625
10.459	171.17	5.92578
10.4601	182.572	5.94531
10.4624	178.757	5.96484
10.4639	176.764	5.984375
10.4657	186.377	6.00391
10.4677	184.952	6.02344
10.4686	177.912	6.04297
10.4711	189.881	6.0625
10.4715	189.84	6.08203
10.4739	180.4247	6.10156
10.4759	189.169	6.12109
10.4761	197.037	6.140625
10.4787	182.984	6.16016
10.481	191.968	6.17969
10.4812	197.697	6.19922
10.4835	191.485	6.21875
10.4852	193.468	6.23828
10.4877	203.927	6.25781
10.4888	193.145	6.27734
10.4896	195.506	6.296875
10.4916	203.905	6.31641
10.4936	204.54	6.33594
10.49369	195.545	6.35547
10.4963	207.145	6.375
10.4978	206.361	6.39453
10.5001	200.264	6.41406
10.5019	207.48	6.43359
10.503	211.863	6.453125
10.50489	204.013	6.47266
10.5056	207.508	6.49219
10.5078	214.751	6.51172
10.5094	207.575	6.53125
10.5113	206.255	6.55078
10.5128	217.745	6.57031
10.5156	215.356	6.58984
10.5157	210.438	6.609375
10.5176	219.777	6.62891
10.5195	218.01	6.64844
10.5211	213.429	6.66797
10.5226	223.811	6.6875
10.5241	225.738	6.70703
10.5251	213.495	6.72656
10.5272	225.024	6.74609
10.5286	228.907	6.765625
10.5306	220.555	6.78516
10.53216	223.427	6.80469
10.5329	234.1647	6.82422
10.5345	221.615	6.84375
10.5363	226.884	6.86328
10.538	235.74	6.88281
10.5403	231.276	6.90234
10.5421	228.104	6.921875
10.5432	241.848	6.94141
10.5444	233.789	6.96094
10.5472	232.271	6.98047
10.548	238.933	7
10.5501	243.9848	7.01953
10.5521	236.352	7.03906
10.5534	242.899	7.05859
10.5545	242.488	7.078125
10.556	238.245	7.09766
10.5577	244.69	7.11719
10.5593	251.772	7.13672
10.5615	243.968	7.15625
10.5628	244.7	7.17578
10.5651	253.986	7.19531
10.5668	250.152	7.21484
10.56786	244.591	7.234375
10.5691	255.064	7.25391
10.5714	256.2	7.27344
10.57184	248.202	7.29297
10.5741	256.852	7.3125
10.5759	259.829	7.33203
10.578	250.634	7.35156
10.58	259.247	7.37109
10.581	266.933	7.390625
10.5826	254.545	7.41016
10.584	260.088	7.42969
10.5853	268.125	7.44922
10.5868	261.98	7.46875
10.5888	260.676	7.48828
10.5921	274.171	7.50781
10.5924	263.0296	7.52734
10.5941	263.973	7.546875
10.5955	273.69	7.56641
10.5963	272.413	7.58594
10.5991	264.927	7.60547
10.60128	278.2421	7.625
10.6018	274.814	7.64453
10.6027	270.524	7.66406
10.6057	274.703	7.68359
10.6076	283.183	7.703125
10.6093	273.7655	7.72266
10.6102	280.936	7.74219
10.6122	283.8829	7.76172
10.6137	279.612	7.78125
10.6146	277.12	7.80078
10.6166	291.1127	7.82031
10.6181	284.352	7.83984
10.6205	280.386	7.859375
10.622	289.227	7.87891
10.6238	292.396	7.89844
10.625	282.819	7.91797
10.6266	293.157	7.9375
10.6283	295.815	7.95703
10.6297	285.883	7.97656
10.6314	292.988	7.99609
10.6323	300.148	8.015625
10.6343	290.057	8.03516
10.6363	294.697	8.05469
10.6369	305.446	8.07422
10.6396	295.007	8.09375
10.6402	294.845	8.11328
10.6428	305.029	8.13281
10.6443	301.232	8.15234
10.6464	297.353	8.171875
10.64807	311.77	8.19141
10.6492	303.5784	8.21094
10.6513	298.68	8.23047
10.6527	309.854	8.25
10.6541	314.296	8.26953
10.656	304.863	8.28906
10.6572	313.919	8.30859
10.6585	315.1	8.328125
10.6609	310.229	8.34766
10.6625	310.277	8.36719
10.664	323.015	8.38672
10.66519	313.232	8.40625
10.66739	315.818	8.42578
10.66818	323.504	8.44531
10.6704	319.609	8.46484
10.6721	312.665	8.484375
10.6727	327.0155	8.50391
10.6747	327.5	8.52344
10.6771	316.522	8.54297
10.679	326.865	8.5625
10.6802	332.623	8.58203
10.6817	320.765	8.60156
10.6837	330.074	8.62109
10.685	336.5	8.640625
10.6854	324.593	8.66016
10.6882	326.392	8.67969
10.69019	341.439	8.69922
10.6916	331.1839	8.71875
10.6938	328.4483	8.73828
10.6957	344.936	8.75781
10.6963	336.354	8.77734
10.6981	330.478	8.796875
10.6998	343.879	8.81641
10.701	340.84	8.83594
10.7028	333.134	8.85547
10.705	347.7023	8.875
10.7059	346.148	8.89453
10.7068	336.051	8.91406
10.7099	344.594	8.93359
10.711	355.011	8.953125
10.7122	341.768	8.97266
10.7144	346.472	8.99219
10.7158	353.8613	9.01172
10.71716	348.713	9.03125
10.7197	345.9834	9.05078
10.7207	359.76	9.07031
10.722	353.612	9.08984
10.7239	350.864	9.109375
10.7258	359.298	9.12891
10.7269	362.593	9.14844
10.7289	349.91	9.16797
10.7298	363.125	9.1875
10.7324	365.189	9.20703
10.7341	356.624	9.22656
10.7355	359.285	9.24609
10.7377	372.072	9.265625
10.7392	358.912	9.28516
10.7398	365.205	9.30469
10.7422	376.163	9.32422
10.7436	365.7561	9.34375
10.745	360.074	9.36328
10.7479	376.54	9.38281
10.7495	370.442	9.40234
10.75	366.506	9.421875
10.751	379.495	9.44141
10.7535	375.36	9.46094
10.7548	366.073	9.48047
10.7577	380.281	9.5
10.7585	380.572	9.51953
10.7598	368.828	9.53906
10.7611	381.535	9.55859
10.7635	387.913	9.578125
10.765	375.6918	9.59766
10.7661	379.227	9.61719
10.7679	390.749	9.63672
10.77074	380.873	9.65625
10.7718	383.988	9.67578
10.7728	393.16	9.69531
10.7748	387.001	9.71484
10.7759	380.247	9.734375
10.7775	397.198	9.75391
10.7782	393.756	9.77344
10.7815	385.303	9.79297
10.7827	394.375	9.8125
10.7851	401.052	9.83203
10.7862	387.951	9.85156
10.7885	399.1839	9.87109
10.7895	405.789	9.890625
10.7905	394.166	9.91016
10.7933	395.4	9.92969
10.7938	410.462	9.94922
10.7964	395.821	9.96875
10.7976	398.565	9.98828
10.7987	412.115	10.0078
10.8016	405.84	10.0273
10.8027	397.278	10.0469
10.8042	413.291	10.0664
10.806	410.432	10.0859
10.80712	403.488	10.1055
10.8087	415.241	10.125
10.8106	417.735	10.1445
10.8121	403.633	10.1641
10.8133	416.113	10.1836
10.8151	422.574	10.2031
10.8174	409.994	10.2227
10.8184	415.211	10.2422
10.82023	425.333	10.2617
10.8214	414.082	10.28125
10.8237	414.906	10.3008
10.82477	428.521	10.3203
10.827	421.597	10.3398
10.8285	418.6698	10.3594
10.8298	429.821	10.3789
10.83139	426.776	10.3984
10.8336	416.6033	10.418
10.83478	429.808	10.4375
10.8365	434.328	10.457
10.838	425.015	10.4766
10.8385	428.919	10.4961
10.8413	438.891	10.5156
10.8424	427.259	10.5352
10.8442	433.547	10.5547
10.8466	442.9249	10.5742
10.8476	434.3728	10.59375
10.8491	429.239	10.6133
10.8507	446.879	10.6328
10.8521	438.327	10.6523
10.8531	434.9	10.6719
10.8561	446.981	10.6914
10.8583	447.756	10.7109
10.8593	434.395	10.7305
10.8611	448.935	10.75
10.8623	449.279	10.7695
10.8634	438.768	10.7891
10.8654	449.9151	10.8086
10.8673	457.995	10.8281
10.8688	440.935	10.8477
10.8705	448.345	10.8672
10.8731	457.855	10.8867
10.8748	449.768	10.90625
10.8757	449.675	10.9258
10.8772	460.557	10.9453
10.8795	453.061	10.9648
10.8811	451.26	10.9844
10.8812	463.555	11.0039
10.8849	460.912	11.0234
10.8841	452.401	11.043
10.8875	464.069	11.0625
10.8891	467.304	11.082
10.8899	456.4642	11.1016
10.8918	463.324	11.1211
10.8934	472.225	11.1406
10.8947	463.685	11.1602
10.8964	464.523	11.1797
10.8996	476.031	11.1992
10.899	464.568	11.21875
10.90048	466.5459	11.2383
10.903	480.051	11.2578
10.9036	473.917	11.2773
10.90646	463.5896	11.2969
10.9089	482.1	11.3164
10.9099	478.977	11.3359
10.9108	470.16	11.3555
10.9128	481.293	11.375
10.9148	485.355	11.3945
10.9164	469.221	11.4141
10.9178	483.964	11.4336
10.9195	486.63	11.4531
10.9204	478.298	11.4727
10.9222	481.911	11.4922
10.92347	495.363	11.5117
10.9258	480.569	11.53125
10.9274	483.82	11.5508
10.9291	494.061	11.5703
10.9312	488.7547	11.5898
10.931	486.3479	11.6094
10.93305	498.059	11.6289
10.9361	492.606	11.6484
10.9376	487.189	11.668
10.9387	498.685	11.6875
10.9394	499.644	11.707
10.9416	489.669	11.7266
10.9436	495.399	11.7461
10.9449	504.001	11.7656
10.9464	495.54	11.7852
10.9492	499.082	11.8047
10.9492	509.716	11.8242
10.9514	501.105	11.84375
10.9535	498.318	11.8633
10.9561	513.112	11.8828
10.9566	505.078	11.9023
10.9581	500.804	11.9219
10.9601	514.465	11.9414
10.9618	516.509	11.9609
10.9622	500.219	11.9805
10.9647	513.725	12
10.9663	517.4187	12.0195
10.9691	508.36	12.0391
10.9694	517.296	12.0586
10.9714	524.778	12.0781
10.9731	508.149	12.0977
10.9747	517.474	12.1172
10.9764	525.594	12.1367
10.97661	518.1441	12.15625
10.9802	516.725	12.1758
10.9806	532.392	12.1953
10.9821	519.321	12.2148
10.98465	519.392	12.2344
10.9856	529.323	12.2539
10.9877	530.794	12.2734
10.9892	519.395	12.293
10.9911	533.689	12.3125
10.993	531.397	12.332
10.9944	523.341	12.3516
10.9953	529.3327	12.3711
10.9974	540.625	12.3906
10.9987	529.441	12.4102
11.00025	532.477	12.4297
11.0016	540.7713	12.4492
11.0037	531.831	12.46875
11.0058	532.247	12.4883
11.0076	545.3009	12.5078
11.0091	538.721	12.5273
11.0099	531.098	12.5469
11.0126	546.75	12.5664
11.0142	546.362	12.5859
11.0151	533.909	12.6055
11.0177	546.599	12.625
11.0183	551.9137	12.6445
11.0205	536.088	12.6641
11.0215	547.566	12.6836
11.023	554.221	12.7031
11.0241	542.831	12.7227
11.0263	546.25	12.7422
11.0288	561.556	12.7617
11.02919	546.41	12.78125
11.0318	548.394	12.8008
11.0332	558.9848	12.8203
11.0353	555.678	12.8398
11.0356	549.968	12.8594
11.0376	563.7215	12.8789
11.0391	558.424	12.8984
11.0422	552.708	12.918
11.0422	563.321	12.9375
11.0433	566.645	12.957
11.0459	553.895	12.9766
11.0471	565.281	12.9961
11.0505	568.762	13.0156
11.0506	560.438	13.0352
11.0531	562.907	13.0547
11.0533	573.966	13.0742
11.056	566.2572	13.09375
11.0571	564.15	13.1133
11.0591	575.881	13.1328
11.061	569.473	13.1523
11.0625	564.726	13.1719
11.0642	579.885	13.1914
11.06549	578.472	13.2109
11.0677	566.897	13.2305
11.06855	576.197	13.25
11.0706	583.373	13.2695
11.0722	571.002	13.2891
11.0731	577.497	13.3086
11.0755	585.898	13.3281
11.0765	572.363	13.3477
11.07817	578.33	13.3672
11.0809	591.789	13.3867
11.08268	580.179	13.40625
11.0826	579.648	13.4258
11.0856	594.801	13.4453
11.0864	585.453	13.4648
11.0887	582.036	13.4844
11.0901	593.064	13.5039
11.0906	593.402	13.5234
11.0936	582.974	13.543
11.0951	597.339	13.5625
11.096	595.211	13.582
11.0984	587.115	13.6016
11.1003	594.154	13.6211
11.1016	603.218	13.6406
11.1028	591.529	13.6602
11.10419	596.914	13.6797
11.1064	602.956	13.6992
11.1075	598.893	13.71875
11.1098	594.692	13.7383
11.1116	608.772	13.7578
11.1132	601.545	13.7773
11.1148	597.813	13.7969
11.1172	608.687	13.8164
11.11764	607.319	13.8359
11.1194	596.766	13.8555
11.1213	610.565	13.875
11.1222	613.454	13.8945
11.1234	601.488	13.9141
11.1263	608.883	13.9336
11.1276	618.12	13.9531
11.1294	605.648	13.9727
11.1307	611.2005	13.9922
11.1322	624.026	14.0117
11.1343	610.755	14.03125
11.1357	608.984	14.0508
11.1378	624.938	14.0703
11.1392	617.102	14.0898
11.1408	611.45	14.1094
11.1432	627.483	14.1289
11.1429	619.766	14.1484
11.1457	613.841	14.168
11.1483	626.367	14.1875
11.1484	628.059	14.207
11.1506	615.874	14.2266
11.1508	629.5	14.2461
11.1531	630.531	14.2656
11.1557	621.973	14.2852
11.1563	625.067	14.3047
11.1587	637.624	14.3242
11.1599	627.944	14.34375
11.1612	628.807	14.3633
11.163	636.053	14.3828
11.1646	633.623	14.4023
11.1669	626.1759	14.4219
11.1679	642.087	14.4414
11.1698	639.996	14.4609
11.1719	630.764	14.4805
11.1739	638.594	14.5
11.1746	646.1358	14.5195
11.1761	631.908	14.5391
11.1771	642.433	14.5586
11.1794	648.744	14.5781
11.1813	638.07	14.5977
11.1827	640.708	14.6172
11.1838	655.057	14.6367
11.1856	640.855	14.65625
11.1877	640.336	14.6758
11.1897	657.202	14.6953
11.1909	647.583	14.7148
11.1927	638.72	14.7344
11.1949	657.894	14.7539
11.1955	654.418	14.7734
11.1984	645.802	14.793
11.1997	659.831	14.8125
11.2002	657.746	14.832
11.2023	647.894	14.8516
11.2042	659.16	14.8711
11.2055	664.245	14.8906
11.2074	651.062	14.9102
11.209	659.398	14.9297
11.2108	666.6665	14.9492
11.2123	657.971	14.96875
11.2137	656.319	14.9883
11.2151	670.6	15.0078
11.21617	661.879	15.0273
11.21789	660.84	15.0469
11.2206	670.215	15.0664
11.2212	669.528	15.0859
11.2235	658.642	15.1055
11.2251	673.997	15.125
11.2261	676.661	15.1445
11.2286	666.294	15.1641
11.2289	671.004	15.1836
11.231	680.414	15.2031
11.2341	668.034	15.2227
11.2347	674.263	15.2422
11.2365	683.2132	15.2617
11.2384	675.346	15.28125
11.2399	670.849	15.3008
11.2415	689.052	15.3203
11.2439	678.239	15.3398
11.2443	673.718	15.3594
11.2458	687.159	15.3789
11.2478	686.368	15.3984
11.2498	674.967	15.418
11.2513	689.417	15.4375
11.2531	689.473	15.457
11.2531	678.924	15.4766
11.2561	690.572	15.4961
11.2576	693.16	15.5156
11.2602	682.183	15.5352
11.261	687.633	15.5547
11.2629	699.387	15.5742
11.2652	688.263	15.59375
11.2661	689.138	15.6133
11.2676	700.315	15.6328
11.2692	693.026	15.6523
11.2702	688.869	15.6719
11.2723	702.526	15.6914
11.2744	697.434	15.7109
11.2748	693.249	15.7305
11.2772	701.768	15.75
11.2788	706.652	15.7695
11.28017	691.502	15.7891
11.2815	703.198	15.8086
11.284	710.813	15.8281
11.2843	701.062	15.8477
11.2874	700.397	15.8672
11.2882	713.593	15.8867
11.2895	702.308	15.90625
11.2925	705.707	15.9258
11.29363	717.395	15.9453
11.2947	709.567	15.9648
11.2959	701.327	15.9844
11.2979	719.962	16.0039
11.3005	714.86	16.0234
11.3005	706.407	16.043
11.3025	718.586	16.0625
11.3039	721.0304	16.082
11.3065	706.556	16.1016
11.3081	720.523	16.1211
11.31	723.576	16.1406
11.312	711.526	16.1602
11.3139	720.224	16.1797
11.31477	729.688	16.1992
11.3164	714.686	16.21875
11.317	717.156	16.2383
11.3188	729.784	16.2578
11.3208	723.386	16.2773
11.32202	721.1	16.2969
11.3247	731.809	16.3164
11.3256	728.1413	16.3359
11.32747	721.6424	16.3555
11.3284	734.348	16.375
11.3309	735.0105	16.3945
11.3324	724.605	16.4141
11.3341	731.631	16.4336
11.3355	739.446	16.4531
11.33742	727.847	16.4727
11.3385	732.975	16.4922
11.341	742.107	16.5117
11.3425	733.951	16.53125
11.3433	731.548	16.5508
11.3457	745.739	16.5703
11.3462	735.63	16.5898
11.3474	732.759	16.6094
11.3508	747.767	16.6289
11.3519	746.796	16.6484
11.3537	731.477	16.668
11.3552	747.672	16.6875
11.3572	746.499	16.707
11.3595	739.315	16.7266
11.3594	747.322	16.7461
11.3623	753.743	16.7656
11.3632	738.317	16.7852
11.3646	747.414	16.8047
11.3667	757.754	16.8242
11.36843	746.823	16.84375
11.3694	747.071	16.8633
11.3717	758.905	16.8828
11.3723	750.045	16.9023
11.3753	748.178	16.9219
11.37612	759.432	16.9414
11.3781	756.317	16.9609
11.3792	750.648	16.9805
11.38149	761.504	17
11.3815	760.323	17.0195
11.3848	751.586	17.0391
11.386	761.988	17.0586
11.3867	768.325	17.0781
11.3897	756.686	17.0977
11.3909	758.9422	17.1172
11.3928	769.379	17.1367
11.395	760.9212	17.15625
11.3957	761.731	17.1758
11.3978	770.926	17.1953
11.3986	767.801	17.2148
11.4017	759.3092	17.2344
11.4026	775.754	17.2539
11.4041	771.745	17.2734
11.4046	763.877	17.293
11.4063	775.79	17.3125
11.4093	778.855	17.332
11.4102	764.109	17.3516
11.4104	776.328	17.3711
11.4146	779.94	17.3906
11.4154	770.421	17.4102
11.4166	775.124	17.4297
11.4185	786.183	17.4492
11.4194	771.193	17.46875
11.4212	776.177	17.4883
11.4235	786.195	17.5078
11.42615	781.006	17.5273
11.4259	775.135	17.5469
11.4276	788.94	17.5664
11.4297	782.057	17.5859
11.4316	779.526	17.6055
11.4331	788.061	17.625
11.435	790.77	17.6445
11.43645	780.13	17.6641
11.4386	789.514	17.6836
11.4412	793.381	17.7031
11.44197	783.475	17.7227
11.4422	787.166	17.7422
11.44391	798.434	17.7617
11.44576	789.7522	17.78125
11.4483	788.1181	17.8008
11.4499	799.625	17.8203
11.4518	793.274	17.8398
11.453	788.084	17.8594
11.4544	802.054	17.8789
11.4554	800.884	17.8984
11.4576	788.126	17.918
11.4599	800.8866	17.9375
11.4609	804.1	17.957
11.462	795.144	17.9766
11.4648	799.747	17.9961
11.4662	809.494	18.0156
11.4669	794.9599	18.0352
11.469	803.547	18.0547
11.4701	811.462	18.0742
11.4721	802.227	18.09375
11.4728	802.134	18.1133
11.4763	817.107	18.1328
11.4766	805.299	18.1523
11.4786	803.831	18.1719
11.4808	814.218	18.1914
11.4819	814.071	18.2109
11.4826	805.713	18.2305
11.4854	818.832	18.25
11.4857	813.88	18.2695
11.4881	808.953	18.2891
11.4903	815.192	18.3086
11.4921	822.691	18.3281
11.4942	810.943	18.3477
11.4957	816.542	18.3672
11.4968	823.883	18.3867
11.49806	817.382	18.40625
11.4998	815.5412	18.4258
11.5026	826.619	18.4453
11.5032	820.086	18.4648
11.5046	816.365	18.4844
11.50668	827.72	18.5039
11.5075	824.582	18.5234
11.5097	816.4353	18.543
11.5119	828.455	18.5625
11.5133	833.673	18.582
11.51472	819.571	18.6016
11.5162	826.195	18.6211
11.5185	833.797	18.6406
11.5201	824.695	18.6602
11.5219	828.953	18.6797
11.52225	839.545	18.6992
11.5239	826.252	18.71875
11.526	828.504	18.7383
11.5279	841.286	18.7578
11.5296	834.447	18.7773
11.5304	828.491	18.7969
11.534	843.6604	18.8164
11.5341	837.582	18.8359
11.5351	830.6864	18.8555
11.537	841.016	18.875
11.5388	842.939	18.8945
11.54	834.55	18.9141
11.5424	845.414	18.9336
11.5435	845.808	18.9531
11.5458	835.813	18.9727
11.54785	839.2	18.9922
11.5477	853.169	19.0117
11.5501	841.857	19.03125
11.5517	843.168	19.0508
11.554	850.015	19.0703
11.5554	847.93	19.0898
11.557	843.575	19.1094
11.5584	854.595	19.1289
11.56	851.584	19.1484
11.5615	843.879	19.168
11.5632	852.774	19.1875
11.5658	857.348	19.207
11.5668	844.156	19.2266
11.568	854.814	19.2461
11.5701	860.976	19.2656
11.5706	850.793	19.2852
11.5732	854.057	19.3047
11.57408	863.634	19.3242
11.5765	853.761	19.34375
11.5786	853.809	19.3633
11.57971	867.955	19.3828
11.5816	857.66	19.4023
11.5825	852.505	19.4219
11.584	865.707	19.4414
11.5868	866.195	19.4609
11.5869	855.765	19.4805
11.5896	866.903	19.5
11.5916	865.878	19.5195
11.5929	859.4472	19.5391
11.5937	866.323	19.5586
11.5968	872.309	19.5781
11.5971	861.0849	19.5977
11.5992	869.265	19.6172
11.6018	874.818	19.6367
11.6031	867.086	19.65625
11.6043	863.881	19.6758
11.6061	880.175	19.6953
11.6075	872.096	19.7148
11.6084	869.442	19.7344
11.611	875.4129	19.7539
11.6129	876.671	19.7734
11.6134	867.075	19.793
11.6164	879.775	19.8125
11.6168	880.988	19.832
11.619	869.427	19.8516
11.6207	875.588	19.8711
11.6223	886.743	19.8906
11.6231	874.071	19.9102
11.6248	875.849	19.9297
11.627	887.316	19.9492
11.6289	877.697	19.96875
11.6298	876.527	19.9883
11.6314	890.558	20.0078
11.6327	890.237	20.0176

Data Header:			0.254_solid_dimension_typei_090_r0			Time:	40.0225	s	4/15/2019 2:36:43 PM
Data Acquisition:	Timed
Station Name:	ft40.cfg
Test File Name:	monotonic_0.2540_typei_solid_090_dimension.tst
Displacement	Force	Running Time
mm	N	s
11.6322	881.375	20.0273
11.6352	877.048	20.0469
11.6362	891.489	20.0664
11.6389	887.359	20.0859
11.6397	877.253	20.1055
11.6407	889.051	20.125
11.6429	891.422	20.1445
11.6461	881.935	20.1641
11.64527	890.7655	20.1836
11.6479	892.554	20.2031
11.6493	883.694	20.2227
11.6515	889.434	20.2422
11.6532	899.029	20.2617
11.6537	888.235	20.28125
11.656	889.4267	20.3008
11.6583	898.522	20.3203
11.6601	894.743	20.3398
11.66108	887.954	20.3594
11.6624	901.373	20.3789
11.6642	898.331	20.3984
11.6665	892.492	20.418
11.6677	899.154	20.4375
11.6684	902.871	20.457
11.6712	890.304	20.4766
11.6729	902.384	20.4961
11.67493	908.217	20.5156
11.676	897.661	20.5352
11.6777	896.834	20.5547
11.6775	909.873	20.5742
11.6806	896.753	20.59375
11.6828	900.582	20.6133
11.6839	910.924	20.6328
11.6863	904.5083	20.6523
11.687	897.008	20.6719
11.68837	914.094	20.6914
11.6904	908.996	20.7109
11.69177	899.395	20.7305
11.6943	911.673	20.75
11.694	912.944	20.7695
11.6971	901.878	20.7891
11.6984	911.317	20.8086
11.7008	915.731	20.8281
11.7018	904.18	20.8477
11.7037	912.201	20.8672
11.7042	918.368	20.8867
11.7069	907.611	20.90625
11.709	908.4325	20.9258
11.71102	921.135	20.9453
11.7118	913.234	20.9648
11.7129	911.8634	20.9844
11.7157	919.178	21.0039
11.71664	918.692	21.0234
11.7178	910.174	21.043
11.7189	922.166	21.0625
11.7215	920.931	21.082
11.7238	914.411	21.1016
11.7255	917.363	21.1211
11.7272	927.708	21.1406
11.7279	914.765	21.1602
11.7295	918.539	21.1797
11.73134	928.716	21.1992
11.733	922.492	21.21875
11.7342	916.773	21.2383
11.736	931.029	21.2578
11.7375	921.722	21.2773
11.7393	921	21.2969
11.741	931.507	21.3164
11.7432	927.491	21.3359
11.7439	916.693	21.3555
11.7462	932.442	21.375
11.7469	931.211	21.3945
11.7492	921.404	21.4141
11.7497	928.912	21.4336
11.75129	933.59	21.4531
11.75339	921.385	21.4727
11.7547	929.969	21.4922
11.75721	937.552	21.5117
11.7589	926.153	21.53125
11.7611	927.872	21.5508
11.762	939.393	21.5703
11.76406	930.471	21.5898
11.7653	927.459	21.6094
11.7661	938.2832	21.6289
11.76808	935.678	21.6484
11.7697	930.449	21.668
11.7714	939.02	21.6875
11.77312	937.964	21.707
11.7749	929.031	21.7266
11.776	939.21	21.7461
11.77829	943.114	21.7656
11.7798	933.447	21.7852
11.782	934.069	21.8047
11.78269	946.503	21.8242
11.7844	934.946	21.84375
11.787	935.044	21.8633
11.7885	947.312	21.8828
11.7904	942.119	21.9023
11.7928	932.3457	21.9219
11.7924	947.702	21.9414
11.7936	942.287	21.9609
11.7951	935.914	21.9805
11.798	946.855	22
11.7997	950.145	22.0195
11.8013	934.807	22.0391
11.8019	945.731	22.0586
11.80353	948.444	22.0781
11.80511	941.3988	22.0977
11.8072	945.0238	22.1172
11.80838	952.233	22.1367
11.8103	940.526	22.15625
11.81284	945.102	22.1758
11.8143	954.396	22.1953
11.8147	946.542	22.2148
11.817	942.984	22.2344
11.8188	953.262	22.2539
11.8207	949.621	22.2734
11.8226	943.874	22.293
11.8241	952.966	22.3125
11.8253	953.392	22.332
11.8274	946.619	22.3516
11.82869	952.647	22.3711
11.8305	955.513	22.3906
11.8316	945.514	22.4102
11.8339	951.001	22.4297
11.835	957.541	22.4492
11.8357	951.479	22.46875
11.8388	946.6225	22.4883
11.84045	959.533	22.5078
11.8421	952.978	22.5273
11.8432	950.732	22.5469
11.844	960.705	22.5664
11.846	957.86	22.5859
11.8485	946.321	22.6055
11.8498	960.974	22.625
11.8512	958.662	22.6445
11.8525	950.338	22.6641
11.85445	955.811	22.6836
11.85577	964.231	22.7031
11.8589	950.203	22.7227
11.8593	957.358	22.7422
11.8616	963.907	22.7617
11.8633	955.992	22.78125
11.8643	956.72	22.8008
11.8663	966.9126	22.8203
11.8675	956.155	22.8398
11.8696	954.781	22.8594
11.8698	965.442	22.8789
11.8729	963.285	22.8984
11.8751	956.379	22.918
11.8751	964.324	22.9375
11.877	962.907	22.957
11.87871	957.409	22.9766
11.8811	961.952	22.9961
11.8824	965.401	23.0156
11.8847	957.634	23.0352
11.8858	961.522	23.0547
11.8869	969.044	23.0742
11.8887	960.331	23.09375
11.8912	959.614	23.1133
11.8916	970.426	23.1328
11.8939	965.094	23.1523
11.8956	959.686	23.1719
11.8976	969.603	23.1914
11.89753	965.003	23.2109
11.9008	958.6626	23.2305
11.9014	970.237	23.25
11.9038	971.421	23.2695
11.90341	957.125	23.2891
11.9072	968.979	23.3086
11.9082	971.5235	23.3281
11.9097	963.823	23.3477
11.9128	964.898	23.3672
11.9137	974.727	23.3867
11.9149	961.08	23.40625
11.9166	965.6167	23.4258
11.9186	973.163	23.4453
11.9195	966.69	23.4648
11.9212	964.335	23.4844
11.9218	974.921	23.5039
11.9251	967.151	23.5234
11.9269	962.823	23.543
11.9283	970.049	23.5625
11.9295	973.537	23.582
11.9308	963.702	23.6016
11.9327	972.178	23.6211
11.9353	971.567	23.6406
11.9359	965.488	23.6602
11.9373	967.429	23.6797
11.9398	977.339	23.6992
11.9407	967.969	23.71875
11.9422	967.824	23.7383
11.9441	975.221	23.7578
11.9462	970.349	23.7773
11.9477	964.457	23.7969
11.9495	974.119	23.8164
11.9504	973.147	23.8359
11.9519	964.335	23.8555
11.9534	973.426	23.875
11.95562	974.788	23.8945
11.95748	964.071	23.9141
11.9598	972.71	23.9336
11.9602	979.22	23.9531
11.9621	965.612	23.9727
11.96301	968.036	23.9922
11.9656	976.995	24.0117
11.9669	969.916	24.03125
11.9682	969.2312	24.0508
11.9705	980.336	24.0703
11.9714	967.22	24.0898
11.9736	968.434	24.1094
11.9748	976.397	24.1289
11.97732	973.6	24.1484
11.9792	966.116	24.168
11.9805	976.4021	24.1875
11.9819	973.62	24.207
11.9837	968.423	24.2266
11.9855	971.727	24.2461
11.9854	978.059	24.2656
11.9885	968.636	24.2852
11.9902	972.362	24.3047
11.9924	974.372	24.3242
11.994	970.5108	24.34375
11.9944	966.304	24.3633
11.9958	980.453	24.3828
11.9963	973.73	24.4023
11.9999	966.729	24.4219
12.0009	974.201	24.4414
12.0022	974.892	24.4609
12.0042	964.823	24.4805
12.0068	975.971	24.5
12.0079	976.38	24.5195
12.0098	965.239	24.5391
12.011	972.015	24.5586
12.0129	979.9104	24.5781
12.0147	966.4389	24.5977
12.0158	970.3916	24.6172
12.01758	979.953	24.6367
12.0186	967.878	24.65625
12.0202	967.51	24.6758
12.0226	978.349	24.6953
12.02402	970.772	24.7148
12.0253	967.478	24.7344
12.027	979.96	24.7539
12.0292	971.3761	24.7734
12.0304	966.088	24.793
12.0315	974.166	24.8125
12.035	976.145	24.832
12.0346	966.592	24.8516
12.0369	974.177	24.8711
12.0385	973.453	24.8906
12.0405	968.9	24.9102
12.0415	967.861	24.9297
12.044	978.0899	24.9492
12.0448	969.185	24.96875
12.0472	968.646	24.9883
12.0482	974.471	25.0078
12.0506	971.566	25.0273
12.0518	964.248	25.0469
12.0531	976.738	25.0664
12.0546	974.207	25.0859
12.0558	966.326	25.1055
12.05684	970.41	25.125
12.0599	975.164	25.1445
12.0621	963.601	25.1641
12.0632	973.185	25.1836
12.064	976.388	25.2031
12.0664	964.9707	25.2227
12.0685	965.834	25.2422
12.0701	977.953	25.2617
12.0718	967.301	25.28125
12.0726	967.396	25.3008
12.0753	976.436	25.3203
12.0762	967.522	25.3398
12.0772	964.4646	25.3594
12.0796	974.82	25.3789
12.0805	969.861	25.3984
12.0827	962.879	25.418
12.0842	975.318	25.4375
12.0852	971.168	25.457
12.0875	962.911	25.4766
12.0894	969.114	25.4961
12.0907	973.715	25.5156
12.0927	963.708	25.5352
12.0936	969.538	25.5547
12.0955	972.757	25.5742
12.0972	964.532	25.59375
12.0986	964.383	25.6133
12.1013	974.865	25.6328
12.1031	967.31	25.6523
12.1034	962.906	25.6719
12.1042	969.656	25.6914
12.10694	970.787	25.7109
12.1077	959.907	25.7305
12.1104	971.01	25.75
12.1124	970.511	25.7695
12.11375	962.501	25.7891
12.1152	965.4928	25.8086
12.1176	972.885	25.8281
12.119	958.89	25.8477
12.1199	965.943	25.8672
12.1217	973.672	25.8867
12.1232	963.701	25.90625
12.1251	959.312	25.9258
12.1267	972.005	25.9453
12.129	964.035	25.9648
12.1294	960.607	25.9844
12.1324	970.382	26.0039
12.133	965.761	26.0234
12.1337	956.4613	26.043
12.1363	967.658	26.0625
12.1372	966.818	26.082
12.1399	956.926	26.1016
12.1405	967.095	26.1211
12.1431	968.151	26.1406
12.1448	959.081	26.1602
12.146	961.8858	26.1797
12.1483	970.45	26.1992
12.1497	959.961	26.21875
12.1502	962.196	26.2383
12.1527	968.415	26.2578
12.1535	963.067	26.2773
12.1558	956.097	26.2969
12.1585	969.043	26.3164
12.1597	963.2998	26.3359
12.1597	958.892	26.3555
12.1637	961.466	26.375
12.1644	968.557	26.3945
12.1659	954.718	26.4141
12.1663	964.51	26.4336
12.1681	967.028	26.4531
12.1704	956.007	26.4727
12.17139	956.8573	26.4922
12.1738	969.465	26.5117
12.1753	956.231	26.53125
12.1769	957.464	26.5508
12.1785	967.453	26.5703
12.1806	960.655	26.5898
12.1827	953.054	26.6094
12.1841	966.933	26.6289
12.1854	961.523	26.6484
12.1854	953.872	26.668
12.1887	963.507	26.6875
12.1911	964.496	26.707
12.1915	949.181	26.7266
12.1932	959.624	26.7461
12.1951	964.197	26.7656
12.1962	952.672	26.7852
12.19767	957.866	26.8047
12.2004	962.893	26.8242
12.2013	952.587	26.84375
12.2033	956.7804	26.8633
12.204	962.913	26.8828
12.206	954.909	26.9023
12.209	954.525	26.9219
12.2096	960.382	26.9414
12.2117	959.412	26.9609
12.2122	949.06	26.9805
12.2132	960.424	27
12.2171	960.59	27.0195
12.2173	953.144	27.0391
12.2199	954.844	27.0586
12.2206	961.251	27.0781
12.2226	949.282	27.0977
12.2246	954.6076	27.1172
12.226	963.435	27.1367
12.228	953.4931	27.15625
12.2294	948.347	27.1758
12.2313	964.3067	27.1953
12.2315	953.096	27.2148
12.233	949.109	27.2344
12.23584	959.974	27.2539
12.238	957.306	27.2734
12.2382	946.517	27.293
12.2407	960.839	27.3125
12.24237	955.702	27.332
12.2437	946.855	27.3516
12.2452	956.776	27.3711
12.2481	960.778	27.3906
12.2487	945.783	27.4102
12.2497	951.618	27.4297
12.25246	957.988	27.4492
12.2542	949.557	27.46875
12.2549	952.195	27.4883
12.2563	958.006	27.5078
12.258	949.0188	27.5273
12.2607	947.925	27.5469
12.2618	957.54	27.5664
12.264	952.8	27.5859
12.265	947.176	27.6055
12.2663	952.808	27.625
12.2686	955.384	27.6445
12.2697	946.157	27.6641
12.2715	952.508	27.6836
12.273	956.177	27.7031
12.2748	949.924	27.7227
12.2763	949.095	27.7422
12.2783	957.976	27.7617
12.27868	945.583	27.78125
12.2815	947.583	27.8008
12.2826	956.998	27.8203
12.2853	951.901	27.8398
12.2852	942.007	27.8594
12.2872	955.725	27.8789
12.289	949.712	27.8984
12.2911	946.313	27.918
12.2926	954.587	27.9375
12.2938	954.274	27.957
12.2955	940.92	27.9766
12.2987	954.708	27.9961
12.2989	954.69	28.0156
12.30051	945.656	28.0352
12.3015	948.357	28.0547
12.3049	956.429	28.0742
12.3048	944.181	28.09375
12.3075	946.955	28.1133
12.3089	954.005	28.1328
12.3097	947.653	28.1523
12.312	946.643	28.1719
12.3125	953.494	28.1914
12.3139	946.486	28.2109
12.3172	942.095	28.2305
12.3177	950.796	28.25
12.3207	951.453	28.2695
12.3219	943.154	28.2891
12.3236	945.454	28.3086
12.3256	951.197	28.3281
12.3263	942.837	28.3477
12.3297	946.31	28.3672
12.3298	952.992	28.3867
12.3308	943.992	28.40625
12.3325	943.513	28.4258
12.3343	954.0871	28.4453
12.3365	944.292	28.4648
12.3383	940.732	28.4844
12.3398	951.7	28.5039
12.342	950.263	28.5234
12.3423	938.483	28.543
12.3448	951.297	28.5625
12.3455	947.192	28.582
12.3482	941.761	28.6016
12.35004	949.584	28.6211
12.3508	954.2132	28.6406
12.3526	937.29	28.6602
12.3547	945.241	28.6797
12.3564	949.928	28.6992
12.357	943.532	28.71875
12.3594	941.417	28.7383
12.3613	953.6897	28.7578
12.3622	941.134	28.7773
12.3646	942.163	28.7969
12.3654	949.249	28.8164
12.3684	946.1073	28.8359
12.3685	940.209	28.8555
12.3705	948.84	28.875
12.3732	946.823	28.8945
12.3739	939.448	28.9141
12.3753	944.614	28.9336
12.3766	949.698	28.9531
12.3798	940.358	28.9727
12.3805	941.326	28.9922
12.3816	947.487	29.0117
12.3837	940.496	29.03125
12.3856	940.778	29.0508
12.3868	950.184	29.0703
12.3893	943.937	29.0898
12.3892	936.805	29.1094
12.3928	948.134	29.1289
12.3938	944.488	29.1484
12.3944	937.689	29.168
12.3972	946.856	29.1875
12.3986	948.538	29.207
12.4008	935.519	29.2266
12.4018	944.933	29.2461
12.4014	947.239	29.2656
12.4059	938.257	29.2852
12.4062	941.647	29.3047
12.4078	951.214	29.3242
12.4095	937.022	29.34375
12.4107	940.163	29.3633
12.41286	947.1814	29.3828
12.4148	942.8775	29.4023
12.416	938.8562	29.4219
12.4174	948.76	29.4414
12.4193	938.793	29.4609
12.4207	938.2	29.4805
12.4221	945.537	29.5
12.4249	946.907	29.5195
12.4257	936.576	29.5391
12.4273	943.425	29.5586
12.4298	944.857	29.5781
12.4305	939.346	29.5977
12.4327	938.795	29.6172
12.43464	947.306	29.6367
12.4362	938.2572	29.65625
12.4372	939.481	29.6758
12.4391	945.14	29.6953
12.4405	940.649	29.7148
12.4417	937.332	29.7344
12.4432	946.588	29.7539
12.4455	944.879	29.7734
12.4475	934.3	29.793
12.4491	941.268	29.8125
12.45	943.647	29.832
12.4523	936.26	29.8516
12.4534	940.566	29.8711
12.4554	946.468	29.8906
12.4564	932.868	29.9102
12.4583	939.029	29.9297
12.4593	946.398	29.9492
12.4626	938.372	29.96875
12.4627	935.4104	29.9883
12.4661	949.052	30.0078
12.4658	938.896	30.0273
12.4684	937.518	30.0469
12.4699	944.234	30.0664
12.4712	941.506	30.0859
12.4741	934.024	30.1055
12.4751	947.008	30.125
12.477	940.293	30.1445
12.4784	935.226	30.1641
12.4801	940.513	30.1836
12.4817	947.362	30.2031
12.4833	936.3736	30.2227
12.4847	939.782	30.2422
12.4865	942.2384	30.2617
12.4882	938.788	30.28125
12.4895	935.72	30.3008
12.4911	946.272	30.3203
12.4918	939.7326	30.3398
12.4947	936.279	30.3594
12.4964	943.3454	30.3789
12.4983	942.299	30.3984
12.4986	931.131	30.418
12.50038	941.655	30.4375
12.5025	943.249	30.457
12.50339	933.168	30.4766
12.5062	938.996	30.4961
12.508	942.948	30.5156
12.51006	934.182	30.5352
12.5113	937.216	30.5547
12.5116	947.684	30.5742
12.5132	932.5	30.59375
12.5151	935.254	30.6133
12.5181	944.187	30.6328
12.5201	939.044	30.6523
12.5203	931.366	30.6719
12.52233	943.424	30.6914
12.5235	937.521	30.7109
12.5247	934.26	30.7305
12.52676	941.25	30.75
12.5297	941.652	30.7695
12.5304	930.074	30.7891
12.5317	941.893	30.8086
12.5343	940.18	30.8281
12.5347	934.776	30.8477
12.5356	934.284	30.8672
12.5376	945.089	30.8867
12.54	935.644	30.90625
12.5424	936.1438	30.9258
12.5427	940.9765	30.9453
12.5452	936.876	30.9648
12.5469	932.706	30.9844
12.5472	943.7738	31.0039
12.5496	939.124	31.0234
12.551	932.209	31.043
12.5515	939.057	31.0625
12.5551	941.638	31.082
12.5566	932.862	31.1016
12.5577	938.6405	31.1211
12.5585	943.241	31.1406
12.5614	932.819	31.1602
12.5635	934.785	31.1797
12.5647	943.638	31.1992
12.5659	933.455	31.21875
12.5685	932.4278	31.2383
12.569	945.181	31.2578
12.5708	935.12	31.2773
12.5725	928.969	31.2969
12.5733	941.805	31.3164
12.5768	938.015	31.3359
12.57699	930.75	31.3555
12.5786	941.995	31.375
12.5798	937.3338	31.3945
12.5818	929.832	31.4141
12.5839	937.4187	31.4336
12.5855	942.431	31.4531
12.5864	930.7536	31.4727
12.5888	938.193	31.4922
12.5911	940.863	31.5117
12.5921	933.697	31.53125
12.5933	931.806	31.5508
12.5953	942.7041	31.5703
12.5977	934.664	31.5898
12.5983	933.193	31.6094
12.6002	937.1734	31.6289
12.6016	939.065	31.6484
12.6029	927.961	31.668
12.6046	941.567	31.6875
12.6057	940.7417	31.707
12.6079	931.263	31.7266
12.6098	934.8371	31.7461
12.6113	943.666	31.7656
12.6129	930.76	31.7852
12.6136	935.192	31.8047
12.6168	941.607	31.8242
12.6182	931.742	31.84375
12.6204	930.311	31.8633
12.62184	943.214	31.8828
12.6223	933.595	31.9023
12.623	929.813	31.9219
12.6258	940.8988	31.9414
12.6273	938.646	31.9609
12.62962	929.383	31.9805
12.6307	939.376	32
12.6313	936.467	32.0195
12.6339	929.921	32.0391
12.6364	938.1	32.0586
12.63765	939.332	32.0781
12.6384	929.053	32.0977
12.6409	932.389	32.1172
12.6426	942.834	32.1367
12.6422	931.827	32.15625
12.64511	933.968	32.1758
12.6479	937.226	32.1953
12.649	935.8739	32.2148
12.6509	930.066	32.2344
12.6534	941.58	32.2539
12.6535	933.257	32.2734
12.6553	930.306	32.293
12.65744	936.325	32.3125
12.6583	941.146	32.332
12.6606	926.693	32.3516
12.6617	936.169	32.3711
12.6641	939.948	32.3906
12.6654	932.146	32.4102
12.6677	929.709	32.4297
12.668	941.321	32.4492
12.6698	930	32.46875
12.672	933.0321	32.4883
12.6739	943.32	32.5078
12.6752	934.234	32.5273
12.677	927.931	32.5469
12.6783	941.4942	32.5664
12.6798	934.915	32.5859
12.6807	928.474	32.6055
12.6829	937.39	32.625
12.6853	938.254	32.6445
12.6867	927.233	32.6641
12.6879	936.501	32.6836
12.6893	938.595	32.7031
12.6914	927.744	32.7227
12.6926	935.064	32.7422
12.6946	941.106	32.7617
12.6971	929.619	32.78125
12.6977	929.154	32.8008
12.69771	940.719	32.8203
12.7	934.199	32.8398
12.7028	931.483	32.8594
12.7044	938.4436	32.8789
12.7058	935.567	32.8984
12.7081	928.193	32.918
12.7096	940.213	32.9375
12.7122	938.516	32.957
12.7126	929.357	32.9766
12.7144	933.207	32.9961
12.7152	940.2453	33.0156
12.717	929.362	33.0352
12.7195	933.284	33.0547
12.7204	939.481	33.0742
12.7226	933.5376	33.09375
12.7232	929.008	33.1133
12.7242	942.092	33.1328
12.72606	930.101	33.1523
12.7276	929.03	33.1719
12.7302	939.58	33.1914
12.7306	935.927	33.2109
12.7341	924.952	33.2305
12.7349	936.727	33.25
12.73695	937.015	33.2695
12.7394	929.343	33.2891
12.7401	935.229	33.3086
12.7427	937.878	33.3281
12.7426	925.37	33.3477
12.7451	933.913	33.3672
12.7472	938.04	33.3867
12.7483	928.036	33.40625
12.7488	930.146	33.4258
12.7516	939.058	33.4453
12.7523	931.82	33.4648
12.7554	926.3783	33.4844
12.7564	936.326	33.5039
12.758	933.438	33.5234
12.76001	929.286	33.543
12.7611	935.61	33.5625
12.7631	936.5694	33.582
12.765	926.376	33.6016
12.7665	934.162	33.6211
12.7679	938.511	33.6406
12.769	929.7002	33.6602
12.77	928.562	33.6797
12.7725	939.7757	33.6992
12.7741	928.836	33.71875
12.7753	931.465	33.7383
12.7774	938.071	33.7578
12.7798	931.871	33.7773
12.7804	924.208	33.7969
12.7832	938.868	33.8164
12.7833	932.078	33.8359
12.7859	926.904	33.8555
12.7868	936.755	33.875
12.789	935.527	33.8945
12.7898	922.632	33.9141
12.7915	934.298	33.9336
12.7939	935.887	33.9531
12.7952	927.277	33.9727
12.7972	932.556	33.9922
12.7997	939.757	34.0117
12.7993	925.4577	34.03125
12.8026	930.662	34.0508
12.803	936.085	34.0703
12.805	931.315	34.0898
12.8072	928.422	34.1094
12.8089	937.138	34.1289
12.8101	930.954	34.1484
12.8123	927.34	34.168
12.814	935.229	34.1875
12.8149	935.119	34.207
12.8165	927.635	34.2266
12.8187	933.845	34.2461
12.8195	936.195	34.2656
12.8213	926.866	34.2852
12.8229	930.231	34.3047
12.8253	937.673	34.3242
12.8264	930.221	34.34375
12.8286	927.1	34.3633
12.829	937.687	34.3828
12.83192	930.746	34.4023
12.8331	928.4635	34.4219
12.8348	938.052	34.4414
12.83563	934.664	34.4609
12.838	924.59	34.4805
12.84	936.872	34.5
12.8405	935.078	34.5195
12.8426	926.657	34.5391
12.8438	932.735	34.5586
12.8465	938.124	34.5781
12.8472	925.204	34.5977
12.8478	933.831	34.6172
12.8504	934.31	34.6367
12.8536	928.283	34.65625
12.8538	927.978	34.6758
12.8552	939.4306	34.6953
12.8579	928.139	34.7148
12.8586	926.828	34.7344
12.86	934.577	34.7539
12.8622	932.453	34.7734
12.8642	927.961	34.793
12.8652	932.8772	34.8125
12.8667	931.618	34.832
12.8691	927.333	34.8516
12.8709	930.605	34.8711
12.8725	935.845	34.8906
12.874	926.463	34.9102
12.8742	928.383	34.9297
12.87771	937.472	34.9492
12.8793	930.016	34.96875
12.8809	928.901	34.9883
12.8807	935.055	35.0078
12.8831	931.01	35.0273
12.8842	925.2113	35.0469
12.887	935.549	35.0664
12.8886	931.451	35.0859
12.8906	925.64	35.1055
12.8914	933.96	35.125
12.8935	936.701	35.1445
12.8954	922.174	35.1641
12.8972	930.21	35.1836
12.8984	934.073	35.2031
12.8986	927.876	35.2227
12.9002	929.554	35.2422
12.9032	937.893	35.2617
12.9046	924.249	35.28125
12.9067	928.446	35.3008
12.9083	936.574	35.3203
12.9099	930.299	35.3398
12.9104	926.575	35.3594
12.9132	935.95	35.3789
12.9145	930.5481	35.3984
12.9152	926.587	35.418
12.9174	932.009	35.4375
12.91988	934.749	35.457
12.9217	925.507	35.4766
12.9229	933.786	35.4961
12.9244	932.715	35.5156
12.9261	926.016	35.5352
12.9276	928.185	35.5547
12.9301	936.6076	35.5742
12.9309	928.692	35.59375
12.9321	928.324	35.6133
12.9329	934.302	35.6328
12.9357	929.569	35.6523
12.9374	926.3186	35.6719
12.9382	934.261	35.6914
12.9403	932.333	35.7109
12.943	923.672	35.7305
12.94381	932.081	35.75
12.945	934.025	35.7695
12.9467	923.795	35.7891
12.9484	930.833	35.8086
12.94974	937.584	35.8281
12.9516	924.423	35.8477
12.954	929.614	35.8672
12.9545	935.331	35.8867
12.9578	926.596	35.90625
12.9585	928.34	35.9258
12.9597	938.508	35.9453
12.9617	926.8905	35.9648
12.9632	926.188	35.9844
12.966	934.4137	36.0039
12.966	933.809	36.0234
12.96816	925.295	36.043
12.9701	935.163	36.0625
12.9721	930.757	36.082
12.97296	926.727	36.1016
12.9745	930.67	36.1211
12.9758	935.204	36.1406
12.9786	926.182	36.1602
12.9792	930.269	36.1797
12.9815	934.093	36.1992
12.9828	927.973	36.21875
12.9844	925.334	36.2383
12.9871	935.659	36.2578
12.9879	929.915	36.2773
12.99037	925.438	36.2969
12.9912	931.0943	36.3164
12.9922	931.602	36.3359
12.9947	922.679	36.3555
12.9957	932.558	36.375
12.9977	934.458	36.3945
12.999	923.496	36.4141
13.0005	928.3786	36.4336
13.0027	934.469	36.4531
13.0043	924.73	36.4727
13.0049	927.914	36.4922
13.0065	935.375	36.5117
13.0098	925.198	36.53125
13.01046	924.92	36.5508
13.01161	934.953	36.5703
13.0141	926.924	36.5898
13.0153	922.558	36.6094
13.01752	936.832	36.6289
13.0194	927.93	36.6484
13.0205	923.985	36.668
13.0226	929.983	36.6875
13.0231	933.609	36.707
13.02632	924.113	36.7266
13.0273	931.845	36.7461
13.0282	931.532	36.7656
13.0297	925.626	36.7852
13.03094	927.255	36.8047
13.0338	935.807	36.8242
13.0341	926.18	36.84375
13.0361	926.7478	36.8633
13.0382	932.636	36.8828
13.0393	929.557	36.9023
13.0412	922.111	36.9219
13.0415	934.097	36.9414
13.04493	930.824	36.9609
13.0459	924.486	36.9805
13.0475	929.56	37
13.0493	932.387	37.0195
13.0521	921.057	37.0391
13.0528	928.994	37.0586
13.0538	934.577	37.0781
13.056	924.143	37.0977
13.0586	923.276	37.1172
13.0589	932.879	37.1367
13.061	924.323	37.15625
13.0634	924.493	37.1758
13.0638	935.098	37.1953
13.0654	924.98	37.2148
13.0664	922.661	37.2344
13.0689	933.937	37.2539
13.07169	930.096	37.2734
13.0721	920.108	37.293
13.0742	933.166	37.3125
13.0751	929.631	37.332
13.07739	922.012	37.3516
13.0789	927.737	37.3711
13.0803	932.934	37.3906
13.0818	922.98	37.4102
13.0838	929.26	37.4297
13.0857	931.089	37.4492
13.0866	925.15	37.46875
13.08938	922.798	37.4883
13.0906	933.868	37.5078
13.0917	927.717	37.5273
13.0934	923.801	37.5469
13.0952	928.456	37.5664
13.0967	930.823	37.5859
13.0988	921.676	37.6055
13.0999	931.208	37.625
13.1002	928.878	37.6445
13.1043	921.92	37.6641
13.1052	925.121	37.6836
13.107	932.644	37.7031
13.1085	920.133	37.7227
13.1099	925.633	37.7422
13.1116	933.9552	37.7617
13.1119	924.095	37.78125
13.1147	921.489	37.8008
13.1171	933.4762	37.8203
13.1188	924.763	37.8398
13.11944	920.556	37.8594
13.1217	932.04	37.8789
13.1215	925.634	37.8984
13.1254	918.503	37.918
13.1254	929.998	37.9375
13.1274	930.23	37.957
13.1287	919.2843	37.9766
13.1309	928.507	37.9961
13.1326	930.295	38.0156
13.1348	919.898	38.0352
13.1361	924.276	38.0547
13.1372	931.901	38.0742
13.1382	920.536	38.09375
13.1402	924.123	38.1133
13.1417	929.802	38.1328
13.1434	926.233	38.1523
13.1458	919.7569	38.1719
13.1477	930.036	38.1914
13.1485	927.72	38.2109
13.1504	921.655	38.2305
13.1519	925.883	38.25
13.1526	930.026	38.2695
13.1552	917.249	38.2891
13.15762	926.738	38.3086
13.1582	932.7323	38.3281
13.1606	920.8089	38.3477
13.1626	919.802	38.3672
13.1636	932.623	38.3867
13.1657	920.449	38.40625
13.1665	920.15	38.4258
13.16836	929.51	38.4453
13.169	923.863	38.4648
13.172	916.7	38.4844
13.1728	930.732	38.5039
13.1749	923.307	38.5234
13.1763	916.895	38.543
13.1784	927.606	38.5625
13.1802	928.536	38.582
13.1809	915.409	38.6016
13.18286	923.459	38.6211
13.1841	927.778	38.6406
13.1856	918.069	38.6602
13.1883	924.287	38.6797
13.1902	926.597	38.6992
13.1916	917.351	38.71875
13.1927	920.3949	38.7383
13.1937	929.707	38.7578
13.1954	919.574	38.7773
13.19715	918.149	38.7969
13.1998	924.857	38.8164
13.2011	923.647	38.8359
13.2029	914.285	38.8555
13.2043	924.259	38.875
13.2059	923.858	38.8945
13.208	918.071	38.9141
13.2095	918.49	38.9336
13.2104	924.662	38.9531
13.2117	912.514	38.9727
13.2143	918.579	38.9922
13.2155	922.721	39.0117
13.2169	639.241	39.03125
13.224	-15.2444	39.0508
13.2248	-32.1213	39.0703
13.2249	-47.3273	39.0898
13.2259	-43.9409	39.1094
13.2267	-37.8596	39.1289
13.2279	-42.9026	39.1484
13.2299	-51.2166	39.168
13.2319	-37.3198	39.1875
13.2333	-38.9809	39.207
13.23461	-49.4837	39.2266
13.2348	-41.5202	39.2461
13.2377	-36.5249	39.2656
13.2382	-49.2409	39.2852
13.2409	-41.8461	39.3047
13.2436	-39.0872	39.3242
13.2443	-47.1497	39.34375
13.2451	-46.1619	39.3633
13.2467	-36.622	39.3828
13.2486	-45.0184	39.4023
13.2499	-47.5241	39.4219
13.2517	-37.0892	39.4414
13.2533	-41.1912	39.4609
13.2556	-45.7172	39.4805
13.257	-40.8547	39.5
13.2586	-41.322	39.5195
13.26	-48.468	39.5391
13.2611	-40.3087	39.5586
13.2634	-38.3352	39.5781
13.2651	-47.0156	39.5977
13.2663	-45.2763	39.6172
13.2676	-34.7286	39.6367
13.27	-46.6065	39.65625
13.2714	-46.5793	39.6758
13.2727	-35.7579	39.6953
13.2746	-40.474	39.7148
13.2763	-49.28661	39.7344
13.2781	-36.1224	39.7539
13.2796	-43.6167	39.7734
13.2812	-46.785	39.793
13.2835	-39.6296	39.8125
13.2842	-37.4678	39.832
13.2866	-51.79932	39.8516
13.2879	-39.7561	39.8711
13.2891	-37.79	39.8906
13.2913	-44.254	39.9102
13.2927	-43.1307	39.9297
13.2935	-36.5636	39.9492
13.2956	-47.6103	39.96875
13.297	-43.8047	39.9883
13.2986	-37.6145	40.0078
13.2989	-39.3854	40.0176

Data Header:			0.254_solid_dimension_typei_090_r0			Time:	40.4089	s	4/15/2019 2:36:43 PM
Data Acquisition:	Timed
Station Name:	ft40.cfg
Test File Name:	monotonic_0.2540_typei_solid_090_dimension.tst
Displacement	Force	Running Time
mm	N	s
13.3001	-43.7826	40.0273
13.3008	-47.2817	40.0371
13.3022	-47.3196	40.0469
13.3027	-44.5168	40.0566
13.3043	-36.8627	40.0664
13.3039	-36.8187	40.0762
13.3062	-40.8263	40.0859
13.30647	-45.2035	40.0957
13.3075	-47.4467	40.1055
13.3083	-41.4584	40.1152
13.30985	-39.7018	40.125
13.3098	-39.0357	40.1348
13.3094	-40.1208	40.1445
13.3113	-42.4838	40.1543
13.3122	-45.2513	40.1641
13.3124	-47.6411	40.1738
13.3133	-42.0553	40.1836
13.3136	-35.7993	40.1934
13.3154	-39.8676	40.2031
13.3154	-40.3361	40.2129
13.31669	-47.8194	40.2227
13.3188	-43.38406	40.2324
13.3185	-41.8374	40.2422
13.3191	-42.56736	40.252
13.3205	-38.3733	40.2617
13.3198	-38.3424	40.2715
13.3223	-43.92	40.28125
13.323	-47.752	40.291
13.323	-48.04	40.3008
13.32372	-39.7799	40.3105
13.3254	-36.5693	40.3203
13.3259	-37.86293	40.3301
13.32603	-43.2183	40.3398
13.327	-48.3448	40.3496
13.3279	-47.02235	40.3594
13.3295	-45.48402	40.3691
13.3289	-38.7456	40.3789
13.331	-35.0413	40.3887
13.3322	-40.8393	40.3984