File: data/processed_data_files/tensile/0.254_solid_dimension_typeiv_4545_r(1).dat
MTS793|BTW|ENU|1|2|.|/|:|1|0|0|A

Data Header:			0.254_solid_dimension_typeiv_4545_r0			Time:	20.019	s	4/13/2019 8:32:31 PM
Data Acquisition:	Timed
Station Name:	ft40.cfg
Test File Name:	monotonic_0.2540_typeiv_solid_4545_dimension.tst
Displacement	Force	Running Time
mm	N	s
-40.0343	-193.4171	0.0229492
-40.0343	-192.675	0.0424805
-40.0341	-193.804	0.0620117
-40.03112	-188.334	0.081543
-40.0299	-194.168	0.101074
-40.028	-188.144	0.120605
-40.0275	-185.914	0.140137
-40.0255	-188.103	0.159668
-40.0239	-191.97	0.179199
-40.022	-180.751	0.19873
-40.0198	-184.407	0.218262
-40.019	-181.4996	0.237793
-40.0174	-178.595	0.257324
-40.0155	-181.141	0.276855
-40.0146	-184.299	0.296387
-40.0134	-173.947	0.315918
-40.0109	-175.98	0.335449
-40.0093	-179.032	0.35498
-40.0075	-173.665	0.374512
-40.0063	-174.146	0.394043
-40.0043	-176.621	0.413574
-40.0034	-171.805	0.433105
-40.0006	-168.027	0.452637
-39.9986	-171.391	0.472168
-39.9976	-167.866	0.491699
-39.9971	-165.444	0.51123
-39.99509	-167.338	0.530762
-39.9931	-166.268	0.550293
-39.9908	-158.767	0.569824
-39.9894	-161.345	0.589355
-39.9883	-163.2182	0.608887
-39.9868	-161.185	0.628418
-39.9845	-156.85	0.647949
-39.9837	-160.6244	0.66748
-39.9828	-155.218	0.687012
-39.9798	-153.982	0.706543
-39.9789	-155.051	0.726074
-39.9778	-156.208	0.745605
-39.9749	-147.088	0.765137
-39.9738	-152.7424	0.784668
-39.9712	-150.361	0.804199
-39.9711	-144.252	0.82373
-39.9693	-147.556	0.843262
-39.9673	-151.21	0.862793
-39.965	-141.09	0.882324
-39.9634	-143.409	0.901855
-39.9622	-144.625	0.921387
-39.9615	-138.603	0.940918
-39.9584	-138.758	0.960449
-39.9571	-144.158	0.97998
-39.956	-135.246	0.999512
-39.9538	-132.9	1.019043
-39.9525	-138.976	1.03857
-39.9519	-134.612	1.05811
-39.9483	-133.093	1.07764
-39.9477	-134.212	1.097168
-39.94648	-132.868	1.1167
-39.9443	-127.236	1.13623
-39.9432	-129.945	1.15576
-39.9413	-127.77	1.175293
-39.9407	-127.743	1.19482
-39.9381	-126.124	1.21436
-39.93671	-127.9452	1.23389
-39.9359	-120.181	1.253418
-39.9334	-120.473	1.27295
-39.9326	-122.994	1.29248
-39.9292	-122.243	1.31201
-39.9277	-115.365	1.331543
-39.92651	-121.666	1.35107
-39.925	-116.314	1.37061
-39.924	-111.065	1.39014
-39.9215	-117.094	1.409668
-39.9202	-117.094	1.4292
-39.91914	-107.121	1.44873
-39.91647	-111.589	1.46826
-39.9156	-111.511	1.487793
-39.9133	-106.368	1.50732
-39.9115	-107.282	1.52686
-39.9104	-112.518	1.54639
-39.90802	-102.47	1.565918
-39.9058	-102.197	1.58545
-39.9056	-105.81	1.60498
-39.9041	-100.029	1.62451
-39.9016	-98.6108	1.644043
-39.9003	-104.092	1.66357
-39.8997	-98.5969	1.68311
-39.898	-92.9216	1.70264
-39.8951	-98.0434	1.722168
-39.89513	-95.0606	1.7417
-39.8925	-93.1134	1.76123
-39.89109	-93.54	1.78076
-39.8901	-94.3613	1.800293
-39.8884	-87.7062	1.81982
-39.8858	-89.7021	1.83936
-39.884	-87.961	1.85889
-39.8834	-86.2376	1.878418
-39.8811	-81.7377	1.89795
-39.8789	-89.7445	1.91748
-39.8764	-80.7209	1.93701
-39.8752	-78.3191	1.956543
-39.8752	-82.5043	1.97607
-39.8725	-83.4041	1.99561
-39.8709	-74.587	2.01514
-39.86919	-79.4134	2.034668
-39.8679	-75.6409	2.0542
-39.8676	-72.4772	2.07373
-39.8653	-75.212	2.09326
-39.863	-77.7408	2.112793
-39.8607	-66.74939	2.13232
-39.8599	-69.6073	2.15186
-39.8586	-72.9631	2.17139
-39.8569	-65.6707	2.190918
-39.8543	-65.3688	2.21045
-39.8522	-70.3192	2.22998
-39.8514	-62.1926	2.24951
-39.8511	-59.5704	2.269043
-39.8483	-64.9632	2.28857
-39.8469	-58.3197	2.30811
-39.8462	-58.79723	2.32764
-39.8438	-59.8292	2.347168
-39.8417	-60.2994	2.3667
-39.8405	-52.1841	2.38623
-39.83868	-55.4882	2.40576
-39.83744	-55.2302	2.425293
-39.8351	-53.3569	2.44482
-39.8341	-49.4255	2.46436
-39.8319	-53.5847	2.48389
-39.8317	-46.5518	2.503418
-39.8291	-47.32745	2.52295
-39.8271	-48.0493	2.54248
-39.8254	-47.0394	2.56201
-39.8233	-40.7312	2.581543
-39.822	-46.932	2.60107
-39.8218	-44.3882	2.62061
-39.8192	-37.91338	2.64014
-39.8175	-42.5417	2.659668
-39.8154	-44.3789	2.6792
-39.8138	-33.2105	2.69873
-39.8123	-38.4937	2.71826
-39.8112	-37.1052	2.737793
-39.8097	-30.9809	2.75732
-39.8086	-35.34613	2.77686
-39.805	-38.4143	2.79639
-39.8047	-27.8665	2.815918
-39.8041	-27.9536	2.83545
-39.8003	-31.3313	2.85498
-39.7994	-26.4414	2.87451
-39.7976	-25.6842	2.894043
-39.79726	-28.2609	2.91357
-39.7941	-25.6597	2.93311
-39.7925	-19.8656	2.95264
-39.7914	-25.3098	2.972168
-39.7902	-21.1413	2.9917
-39.7892	-18.1804	3.01123
-39.7866	-19.7437	3.03076
-39.7841	-22.6723	3.050293
-39.7841	-13.8783	3.06982
-39.7821	-15.8222	3.08936
-39.7806	-17.555	3.10889
-39.7787	-14.8831	3.128418
-39.7773	-8.10107	3.14795
-39.7754	-15.831	3.16748
-39.7734	-7.64052	3.18701
-39.7725	-6.76808	3.206543
-39.7694	-9.73075	3.22607
-39.7694	-9.91323	3.24561
-39.7658	-0.152341	3.26514
-39.766	-7.41663	3.284668
-39.7647	-5.33772	3.3042
-39.7633	1.83008	3.32373
-39.7608	-1.25094	3.34326
-39.7588	-4.01359	3.362793
-39.7578	4.97798	3.38232
-39.7558	3.1706	3.40186
-39.7539	1.92556	3.42139
-39.7525	7.64112	3.440918
-39.7516	5.50566	3.46045
-39.748	1.22156	3.47998
-39.747	9.727478	3.49951
-39.7464	12.33949	3.519043
-39.7446	6.22526	3.53857
-39.7431	12.6548	3.55811
-39.7413	13.796	3.57764
-39.7399	12.8439	3.597168
-39.738	13.8613	3.6167
-39.7366	19.5729	3.63623
-39.7354	15.7697	3.65576
-39.73365	17.58	3.675293
-39.7323	20.3134	3.69482
-39.7301	21.4908	3.71436
-39.7289	18.8064	3.73389
-39.7263	26.7008	3.753418
-39.7242	27.7724	3.77295
-39.7223	24.0312	3.79248
-39.72282	24.072	3.81201
-39.7207	30.8208	3.831543
-39.7182	26.6829	3.85107
-39.71648	31.9899	3.87061
-39.715	33.6171	3.89014
-39.714	29.8451	3.909668
-39.7118	29.0171	3.9292
-39.71122	39.90028	3.94873
-39.7092	35.0143	3.96826
-39.7064	33.9682	3.987793
-39.7059	41.0829	4.00732
-39.7037	39.351	4.02686
-39.7028	36.2154	4.04639
-39.6998	43.7959	4.065918
-39.6984	43.6828	4.08545
-39.6977	40.0614	4.10498
-39.6959	46.6111	4.12451
-39.694	46.114	4.144043
-39.6923	43.3445	4.16357
-39.68993	49.1655	4.18311
-39.6895	54.4285	4.20264
-39.687	48.7853	4.222168
-39.6857	52.0958	4.2417
-39.685	52.881	4.26123
-39.6825	52.8108	4.28076
-39.6812	53.5113	4.300293
-39.67902	60.2345	4.31982
-39.6786	57.9126	4.33936
-39.6758	57.3034	4.35889
-39.6748	60.0149	4.378418
-39.6731	64.3331	4.39795
-39.6721	57.4686	4.41748
-39.6693	64.8494	4.43701
-39.66795	67.1051	4.456543
-39.6663	64.1788	4.47607
-39.6644	62.1452	4.49561
-39.6633	70.28495	4.51514
-39.6621	65.67202	4.534668
-39.6599	69.5046	4.5542
-39.6596	74.67099	4.57373
-39.65712	71.4666	4.59326
-39.656	68.1004	4.612793
-39.6533	77.4573	4.63232
-39.6513	77.1258	4.65186
-39.6504	73.7077	4.67139
-39.649	79.9286	4.690918
-39.6473	79.7356	4.71045
-39.6454	74.5653	4.72998
-39.6433	82.6173	4.74951
-39.6415	85.2536	4.769043
-39.64019	79.5456	4.78857
-39.638	86.1576	4.80811
-39.6371	87.5477	4.82764
-39.6353	84.0922	4.847168
-39.6351	86.9734	4.8667
-39.6328	94.603	4.88623
-39.6309	90.2742	4.90576
-39.6289	91.0235	4.925293
-39.6273	91.3061	4.94482
-39.6264	95.0365	4.96436
-39.6236	92.2174	4.98389
-39.6227	99.2092	5.003418
-39.6219	98.1541	5.02295
-39.6189	95.38752	5.04248
-39.6183	96.879	5.06201
-39.6165	105.562	5.081543
-39.6139	97.80851	5.10107
-39.6121	101.404	5.12061
-39.6109	108.878	5.14014
-39.6095	104.308	5.159668
-39.60767	102.002	5.1792
-39.6053	111.623	5.19873
-39.6054	106.286	5.21826
-39.6026	107.829	5.237793
-39.60215	114.083	5.25732
-39.6001	109.631	5.27686
-39.5973	106.454	5.29639
-39.59679	117.139	5.315918
-39.5943	117.888	5.33545
-39.59359	113.912	5.35498
-39.5914	118.883	5.37451
-39.5898	118.908	5.394043
-39.5893	117.128	5.41357
-39.5857	120.476	5.43311
-39.5861	127	5.45264
-39.5826	120.486	5.472168
-39.5812	123.427	5.4917
-39.5805	127.886	5.51123
-39.578	125.957	5.53076
-39.5776	123.702	5.550293
-39.5757	131.871	5.56982
-39.5737	130.97	5.58936
-39.5719	128.952	5.60889
-39.5702	130.105	5.628418
-39.569	136.128	5.64795
-39.5677	131.767	5.66748
-39.5641	137.537	5.68701
-39.5638	139.38	5.706543
-39.5621	135.616	5.72607
-39.5611	136.1808	5.74561
-39.55949	144.272	5.76514
-39.558	138.491	5.784668
-39.556	139.529	5.8042
-39.555	147.572	5.82373
-39.552	143.298	5.84326
-39.5524	142.2455	5.862793
-39.5502	150.5101	5.88232
-39.5483	148.025	5.90186
-39.545	146.336	5.92139
-39.54435	153.028	5.940918
-39.5427	150.006	5.96045
-39.5408	147.293	5.97998
-39.5388	153.8	5.99951
-39.5378	159.134	6.019043
-39.5356	154.343	6.03857
-39.5339	157.211	6.05811
-39.5328	158.636	6.07764
-39.5316	158.095	6.097168
-39.529	158.8203	6.1167
-39.52792	166.206	6.13623
-39.52663	162.291	6.15576
-39.52459	163.055	6.175293
-39.5237	166.164	6.19482
-39.5203	167.42	6.21436
-39.5206	162.125	6.23389
-39.5182	170.148	6.253418
-39.5171	170.6705	6.27295
-39.5142	168.706	6.29248
-39.514	168.558	6.31201
-39.5118	175.032	6.331543
-39.5111	169.646	6.35107
-39.5092	174.2878	6.37061
-39.5063	178.117	6.39014
-39.5056	174.318	6.409668
-39.5032	172.503	6.4292
-39.5026	184.307	6.44873
-39.5009	178.794	6.46826
-39.49984	178.546	6.487793
-39.4979	184.621	6.50732
-39.4956	182.377	6.52686
-39.494	179.9108	6.54639
-39.4919	188.092	6.565918
-39.4907	187.747	6.58545
-39.4899	184.629	6.60498
-39.4865	191.318	6.62451
-39.485	190.151	6.644043
-39.4847	187.485	6.66357
-39.4831	190.1378	6.68311
-39.4809	198.267	6.70264
-39.4789	192.73	6.722168
-39.477	195.1806	6.7417
-39.4768	194.86	6.76123
-39.4762	198.093	6.78076
-39.4728	196.912	6.800293
-39.47131	204.2094	6.81982
-39.469	201.2514	6.83936
-39.4671	199.684	6.85889
-39.4649	202.141	6.878418
-39.4638	207.614	6.89795
-39.4616	201.591	6.91748
-39.4609	207.506	6.93701
-39.4607	210.121	6.956543
-39.4576	206.603	6.97607
-39.4559	205.56	6.99561
-39.4551	214.03	7.01514
-39.4534	210.108	7.034668
-39.4528	212.017	7.0542
-39.4507	218.411	7.07373
-39.4496	213.112	7.09326
-39.4479	211.549	7.112793
-39.445	220.648	7.13232
-39.4432	218.4726	7.15186
-39.4424	217.4184	7.17139
-39.44	225.786	7.190918
-39.4395	220.802	7.21045
-39.4361	218.2612	7.22998
-39.4357	224.8436	7.24951
-39.4341	228.37	7.269043
-39.4329	221.656	7.28857
-39.431	229.315	7.30811
-39.42897	228.432	7.32764
-39.4271	227.978	7.347168
-39.4249	228.159	7.3667
-39.4238	235.726	7.38623
-39.42271	231.921	7.40576
-39.4201	232.038	7.425293
-39.4201	234.922	7.44482
-39.4174	237.659	7.46436
-39.4161	232.44	7.48389
-39.4139	241.453	7.503418
-39.41275	242.349	7.52295
-39.4119	236.668	7.54248
-39.4095	238.236	7.56201
-39.407	244.351	7.581543
-39.4061	240.959	7.60107
-39.4044	246.504	7.62061
-39.4016	248.509	7.64014
-39.4016	244.8725	7.659668
-39.4006	245.839	7.6792
-39.3983	255.287	7.69873
-39.3958	248.654	7.71826
-39.39534	248.237	7.737793
-39.3944	257.71	7.75732
-39.3918	251.607	7.77686
-39.3911	249.172	7.79639
-39.3875	258.991	7.815918
-39.3864	259.547	7.83545
-39.3845	254.4055	7.85498
-39.3836	260.611	7.87451
-39.3818	259.723	7.894043
-39.38	258.854	7.91357
-39.379	262.461	7.93311
-39.3761	267.697	7.95264
-39.3754	261.471	7.972168
-39.37447	265.7431	7.9917
-39.37204	267.474	8.01123
-39.3707	267.799	8.03076
-39.36787	265.546	8.050293
-39.3676	272.67	8.06982
-39.3659	271.604	8.08936
-39.36319	269.773	8.10889
-39.3614	271.592	8.128418
-39.3614	276.833	8.14795
-39.3587	271.291	8.16748
-39.358	278.113	8.18701
-39.3556	282.3475	8.206543
-39.3534	275.757	8.22607
-39.3519	275.746	8.24561
-39.3512	285.8649	8.26514
-39.3481	279.708	8.284668
-39.3467	281.5929	8.3042
-39.345	287.591	8.32373
-39.3445	282.803	8.34326
-39.3423	282.472	8.362793
-39.342	291.007	8.38232
-39.33868	288.238	8.40186
-39.3381	284.961	8.42139
-39.3369	294.781	8.440918
-39.3351	289.738	8.46045
-39.332	288.871	8.47998
-39.3304	293.192	8.49951
-39.32922	298.101	8.519043
-39.328	291.817	8.53857
-39.3265	297.462	8.55811
-39.3239	296.2771	8.57764
-39.3231	297.483	8.597168
-39.322	297.552	8.6167
-39.3187	304.951	8.63623
-39.3188	301.621	8.65576
-39.3172	300.261	8.675293
-39.3159	303.009	8.69482
-39.3148	306.195	8.71436
-39.3118	301.3298	8.73389
-39.3097	309.929	8.753418
-39.3087	309.7626	8.77295
-39.3068	306.831	8.79248
-39.3048	307.86	8.81201
-39.3042	314.122	8.831543
-39.3015	307.529	8.85107
-39.3	313.295	8.87061
-39.2987	318.9986	8.89014
-39.2958	312.5	8.909668
-39.2954	311.484	8.9292
-39.2929	321.984	8.94873
-39.2906	318.323	8.96826
-39.2912	317.034	8.987793
-39.28886	324.8735	9.00732
-39.28838	319.551	9.02686
-39.2849	317.72	9.04639
-39.2839	326.139	9.065918
-39.2831	327.114	9.08545
-39.2803	321.516	9.10498
-39.2799	328.586	9.12451
-39.2787	328.621	9.144043
-39.2756	325.361	9.16357
-39.2739	326.871	9.18311
-39.2735	334.912	9.20264
-39.2721	330.2355	9.222168
-39.2688	334.379	9.2417
-39.268	334.567	9.26123
-39.267	334.743	9.28076
-39.26387	332.282	9.300293
-39.2642	342.1958	9.31982
-39.2623	338.138	9.33936
-39.2585	335.222	9.35889
-39.2575	338.728	9.378418
-39.2556	344.914	9.39795
-39.2536	337.867	9.41748
-39.2517	344.942	9.43701
-39.2516	346.535	9.456543
-39.2508	341.372	9.47607
-39.24942	343.598	9.49561
-39.2466	352.194	9.51514
-39.245	345.591	9.534668
-39.2426	346.585	9.5542
-39.2417	354.481	9.57373
-39.2408	349.254	9.59326
-39.2383	347.046	9.612793
-39.2373	355.431	9.63232
-39.235	356.452	9.65186
-39.2335	352.985	9.67139
-39.2326	359.126	9.690918
-39.2315	355.406	9.71045
-39.2291	356.06	9.72998
-39.2267	361.844	9.74951
-39.2249	364.277	9.769043
-39.2252	357.217	9.78857
-39.2227	362.708	9.80811
-39.2214	364.001	9.82764
-39.2191	363.9859	9.847168
-39.2182	361.633	9.8667
-39.2147	370.159	9.88623
-39.2154	367.407	9.90576
-39.213	366.621	9.925293
-39.2099	370.136	9.94482
-39.2093	370.971	9.96436
-39.2079	367.96	9.98389
-39.20575	376.252	10.0034
-39.2041	378.21	10.0229
-39.2029	370.8205	10.04248
-39.2002	372.966	10.062
-39.1996	380.454	10.0815
-39.1968	375.76	10.1011
-39.1964	378.294	10.1206
-39.19508	383.229	10.1401
-39.1929	377.5943	10.1597
-39.191	379.184	10.1792
-39.1894	387.054	10.19873
-39.1877	382.614	10.2183
-39.1869	380.349	10.2378
-39.18589	390.304	10.2573
-39.1836	385.548	10.2769
-39.1818	383.869	10.2964
-39.1792	389.87	10.3159
-39.1793	393.172	10.3354
-39.1763	388.127	10.35498
-39.1752	394.731	10.3745
-39.1737	393.758	10.394
-39.1711	392.475	10.4136
-39.1691	394.402	10.4331
-39.1678	401.287	10.4526
-39.1671	394.391	10.4722
-39.1659	396.3237	10.4917
-39.164	400.3428	10.51123
-39.1622	401.522	10.5308
-39.1604	397.673	10.5503
-39.1594	405.485	10.5698
-39.1579	403.541	10.5894
-39.156	401.866	10.6089
-39.1544	403.589	10.6284
-39.1523	408.63	10.6479
-39.15023	401.676	10.66748
-39.1486	410.546	10.687
-39.1488	411.804	10.7065
-39.1458	405.134	10.7261
-39.1439	407.388	10.7456
-39.14127	415.715	10.7651
-39.1408	412.11	10.7847
-39.1399	413.388	10.8042
-39.138	419.316	10.82373
-39.1362	411.75	10.8433
-39.1351	412.495	10.8628
-39.132	422.36	10.8823
-39.1321	418.981	10.9019
-39.1297	415.231	10.9214
-39.1267	423.6171	10.9409
-39.1266	420.2074	10.9604
-39.1247	419.829	10.97998
-39.1235	423.945	10.9995
-39.1216	427.642	11.019
-39.1204	422.773	11.0386
-39.1178	427.24	11.0581
-39.1171	427.516	11.0776
-39.1148	426.2305	11.0972
-39.1136	426.325	11.1167
-39.113	435.719	11.13623
-39.11031	431.142	11.1558
-39.10918	429.413	11.1753
-39.1063	432.556	11.1948
-39.1045	435.768	11.2144
-39.103	433.124	11.2339
-39.10165	437.5184	11.2534
-39.10004	437.282	11.2729
-39.0978	434.21	11.29248
-39.0965	437.002	11.312
-39.0966	443.251	11.3315
-39.0937	436.311	11.3511
-39.0912	440.71	11.3706
-39.0902	446.651	11.3901
-39.0882	440.459	11.4097
-39.0878	440.802	11.4292
-39.08633	449.122	11.44873
-39.0849	447.363	11.4683
-39.0813	445.047	11.4878
-39.08007	452.556	11.5073
-39.0792	448.264	11.5269
-39.0776	446.1218	11.5464
-39.0752	454.644	11.5659
-39.0742	456.156	11.5854
-39.0729	449.127	11.60498
-39.0698	455.238	11.6245
-39.0689	454.339	11.644
-39.06789	453.168	11.6636
-39.0665	455.595	11.6831
-39.0652	461	11.7026
-39.0623	456.641	11.7222
-39.0612	460.681	11.7417
-39.0593	462.094	11.76123
-39.058	460.756	11.7808
-39.0564	458.396	11.8003
-39.0556	467.753	11.8198
-39.0525	465.2825	11.8394
-39.0507	462.579	11.8589
-39.05	464.802	11.8784
-39.0484	470.531	11.8979
-39.047	465.602	11.91748
-39.0452	471.045	11.937
-39.0425	471.077	11.9565
-39.042	465.33	11.9761
-39.0397	469.598	11.9956
-39.0377	475.538	12.0151
-39.0374	470.9021	12.0347
-39.0358	471.8826	12.0542
-39.0329	480.504	12.07373
-39.0325	472.3251	12.0933
-39.0303	474.783	12.1128
-39.0282	479.286	12.1323
-39.0261	481.191	12.1519
-39.0254	476.5137	12.1714
-39.0235	485.1488	12.1909
-39.0225	480.018	12.2104
-39.0197	479.943	12.22998
-39.0189	483.659	12.2495
-39.0166	486.919	12.269
-39.0151	481.381	12.2886
-39.0139	485.759	12.3081
-39.01313	487.23	12.3276
-39.0119	487.1506	12.3472
-39.0081	486.177	12.3667
-39.0083	493.599	12.38623
-39.0061	487.499	12.4058
-39.0055	487.213	12.4253
-39.0024	492.9837	12.4448
-39.0013	493.763	12.4644
-39	491.221	12.4839
-38.9987	496.799	12.5034
-38.9964	497.947	12.5229
-38.9953	492.36	12.54248
-38.9925	495.22	12.562
-38.991	502.007	12.5815
-38.9902	495.666	12.6011
-38.9879	500.128	12.6206
-38.9855	503.33	12.6401
-38.9823	496.044	12.6597
-38.9831	501.787	12.6792
-38.98077	506.53	12.69873
-38.979	503.415	12.7183
-38.9784	500.107	12.7378
-38.9773	509.92	12.7573
-38.9751	502.509	12.7769
-38.9731	504.882	12.7964
-38.9717	508.45	12.8159
-38.97036	510.62	12.8354
-38.9696	506.728	12.85498
-38.9673	513.942	12.8745
-38.9651	510.994	12.894
-38.9647	510.295	12.9136
-38.9624	512.79	12.9331
-38.9615	518.0271	12.9526
-38.96027	512.416	12.9722
-38.957	513.147	12.9917
-38.9565	516.1131	13.01123
-38.9531	518.42	13.0308
-38.9511	514.274	13.0503
-38.9519	521.564	13.0698
-38.9472	518.936	13.0894
-38.9465	516.497	13.1089
-38.9459	520.034	13.1284
-38.9433	522.422	13.1479
-38.9419	518.578	13.16748
-38.94075	523.091	13.187
-38.9389	529.621	13.2065
-38.938	518.696	13.2261
-38.93618	522.222	13.2456
-38.9341	528.023	13.2651
-38.93306	525.041	13.2847
-38.9305	525.407	13.3042
-38.9295	533.049	13.32373
-38.9275	524.138	13.3433
-38.9248	528.506	13.3628
-38.9253	534.702	13.3823
-38.9216	533.047	13.4019
-38.9217	529.184	13.4214
-38.9197	536.192	13.4409
-38.918	531.935	13.4604
-38.9162	533.157	13.47998
-38.91526	534.913	13.4995
-38.9139	537.9837	13.519
-38.9116	534.378	13.5386
-38.91003	538.381	13.5581
-38.90913	538.66	13.5776
-38.9067	536.6795	13.5972
-38.9043	536.975	13.6167
-38.9024	543.074	13.63623
-38.9016	540.2851	13.6558
-38.9001	536.974	13.6753
-38.8985	542.802	13.6948
-38.8966	544.463	13.7144
-38.8963	539.424	13.7339
-38.89399	544.7547	13.7534
-38.8916	545.895	13.7729
-38.8908	539.3504	13.79248
-38.8888	545.656	13.812
-38.8875	549.523	13.8315
-38.8864	544.21	13.8511
-38.8838	546.494	13.8706
-38.882	553.295	13.8901
-38.8801	546.419	13.9097
-38.87833	548.392	13.9292
-38.8774	552.937	13.94873
-38.8756	550.538	13.9683
-38.87318	550.181	13.9878
-38.8733	558.09	14.0073
-38.8704	549.089	14.0269
-38.8681	551.76	14.0464
-38.8672	556.472	14.0659
-38.8664	559.74	14.0854
-38.8641	552.389	14.10498
-38.8623	556.634	14.1245
-38.8612	556.993	14.144
-38.8598	557.778	14.1636
-38.8577	555.898	14.1831
-38.8562	561.53	14.2026
-38.8552	557.507	14.2222
-38.85276	559.3606	14.2417
-38.8507	561.22	14.26123
-38.85	561.722	14.2808
-38.8474	558.476	14.3003
-38.84594	564.627	14.3198
-38.8446	564.8233	14.3394
-38.8427	557.916	14.3589
-38.8416	563.324	14.3784
-38.8395	566.942	14.3979
-38.8383	562.097	14.41748
-38.8368	566.499	14.437
-38.8354	568.546	14.4565
-38.834	560.705	14.4761
-38.8325	568.582	14.4956
-38.8313	570.199	14.5151
-38.82832	566.393	14.5347
-38.8261	565.934	14.5542
-38.8252	573.688	14.57373
-38.8247	565.936	14.5933
-38.82185	569.582	14.6128
-38.821	571.395	14.6323
-38.8191	571.907	14.6519
-38.8165	567.432	14.6714
-38.8152	576.662	14.6909
-38.8122	569.417	14.7104
-38.8125	570.769	14.72998
-38.8111	575.419	14.7495
-38.8089	577.937	14.769
-38.8063	572.117	14.7886
-38.8051	573.35	14.8081
-38.8044	574.9837	14.8276
-38.8018	575.994	14.8472
-38.8005	574.892	14.8667
-38.7998	579.271	14.88623
-38.7974	576.14	14.9058
-38.7962	573.822	14.9253
-38.7947	579.106	14.9448
-38.7919	578.836	14.9644
-38.7918	575.223	14.9839
-38.78936	580.464	15.0034
-38.7886	582.033	15.0229
-38.7858	573.093	15.04248
-38.7847	580.046	15.062
-38.7825	580.846	15.0815
-38.7808	577.8974	15.1011
-38.7801	580.166	15.1206
-38.7783	584.702	15.1401
-38.7768	574.681	15.1597
-38.7744	582.773	15.1792
-38.77224	584.6051	15.19873
-38.7725	583.421	15.2183
-38.77	580.914	15.2378
-38.7678	587.346	15.2573
-38.7669	583.497	15.2769
-38.7661	581.1615	15.2964
-38.763	585.165	15.3159
-38.7606	585.955	15.3354
-38.7606	580.927	15.35498
-38.7587	586.091	15.3745
-38.7574	585.189	15.394
-38.756	582.735	15.4136
-38.7544	584.407	15.4331
-38.75111	589.665	15.4526
-38.7505	584.002	15.4722
-38.7487	582.1286	15.4917
-38.7474	587.42	15.51123
-38.7455	587.3847	15.5308
-38.7441	584.808	15.5503
-38.7419	588.5448	15.5698
-38.7416	587.374	15.5894
-38.7389	584.071	15.6089
-38.7379	589.916	15.6284
-38.7364	588.916	15.6479
-38.734	584.801	15.66748
-38.7309	588.034	15.687
-38.7308	592.024	15.7065
-38.7298	582.629	15.7261
-38.7272	587.983	15.7456
-38.7245	592.189	15.7651
-38.7241	587.753	15.7847
-38.723	588.695	15.8042
-38.7212	593.493	15.82373
-38.7189	584.356	15.8433
-38.71854	588.255	15.8628
-38.7161	591.22	15.8823
-38.7152	589.727	15.9019
-38.712	586.702	15.9214
-38.7116	591.479	15.9409
-38.7104	586.889	15.9604
-38.7078	587.458	15.97998
-38.7064	589.896	15.9995
-38.7037	592.6499	16.019
-38.704	587.3244	16.0386
-38.7011	589.055	16.0581
-38.7003	589.942	16.0776
-38.6987	586.939	16.0972
-38.6965	589.008	16.1167
-38.6941	592.193	16.13623
-38.6937	590.604	16.1558
-38.69141	584.098	16.1753
-38.6893	590.565	16.1948
-38.6883	590.0354	16.2144
-38.6877	588.221	16.2339
-38.6849	591.576	16.2534
-38.6844	592.754	16.2729
-38.6825	584.376	16.29248
-38.6804	592.935	16.312
-38.6789	592.4505	16.3315
-38.6768	587.359	16.3511
-38.6761	589.15	16.3706
-38.6727	595.254	16.3901
-38.6726	584.075	16.4097
-38.6704	588.525	16.4292
-38.66864	591.713	16.44873
-38.6679	588.018	16.4683
-38.6662	587.226	16.4878
-38.6641	593.84	16.5073
-38.6632	586.354	16.5269
-38.661	587.574	16.5464
-38.6595	591.521	16.5659
-38.6571	591.3092	16.5854
-38.6553	586.052	16.60498
-38.65432	588.935	16.6245
-38.6529	589.329	16.644
-38.6514	587.507	16.6636
-38.6493	589.073	16.6831
-38.6472	591.601	16.7026
-38.6455	587.024	16.7222
-38.6446	585.431	16.7417
-38.6436	590.596	16.76123
-38.6424	588.27	16.7808
-38.6417	585.3728	16.8003
-38.6386	590.89	16.8198
-38.6363	590.339	16.8394
-38.6343	580.877	16.8589
-38.6333	588.881	16.8784
-38.6303	589.846	16.8979
-38.63	585.796	16.91748
-38.6273	588.772	16.937
-38.6256	590.015	16.9565
-38.6253	580.418	16.9761
-38.6232	589.278	16.9956
-38.6221	591.05	17.0151
-38.621	584.217	17.0347
-38.6182	585.6748	17.0542
-38.61797	590.6012	17.07373
-38.6157	583	17.0933
-38.6141	585.814	17.1128
-38.6121	589.1153	17.1323
-38.6117	586.959	17.1519
-38.6099	583.894	17.1714
-38.6071	588.124	17.1909
-38.6064	585.461	17.2104
-38.6032	582.865	17.22998
-38.6023	587.102	17.2495
-38.60181	589.061	17.269
-38.5993	582.516	17.2886
-38.5966	581.82	17.3081
-38.5956	586.017	17.3276
-38.5939	582.919	17.3472
-38.59201	583.788	17.3667
-38.591	587.1084	17.38623
-38.58968	585.367	17.4058
-38.5889	579.474	17.4253
-38.58651	588.5918	17.4448
-38.5841	583.419	17.4644
-38.5829	582.414	17.4839
-38.5806	585.6532	17.5034
-38.5792	589.785	17.5229
-38.5777	577.909	17.54248
-38.5759	583.8399	17.562
-38.5743	584.929	17.5815
-38.5727	581.712	17.6011
-38.5705	583.984	17.6206
-38.5697	587.335	17.6401
-38.5673	576.9801	17.6597
-38.567	584.617	17.6792
-38.565	585.863	17.69873
-38.5631	582.656	17.7183
-38.5618	578.528	17.7378
-38.5596	584.143	17.7573
-38.55954	578.646	17.7769
-38.5559	579.432	17.7964
-38.5554	584.774	17.8159
-38.5545	582.93	17.8354
-38.5524	578.113	17.85498
-38.5509	581.468	17.8745
-38.5491	581.406	17.894
-38.5474	576.641	17.9136
-38.5461	579.613	17.9331
-38.5437	583.73	17.9526
-38.5421	580.316	17.9722
-38.5401	575.16	17.9917
-38.54002	583.21	18.01123
-38.5368	578.869	18.0308
-38.5356	578.855	18.0503
-38.534	583.313	18.0698
-38.53183	579.842	18.0894
-38.5311	573.7511	18.1089
-38.5288	584.098	18.1284
-38.528	580.005	18.1479
-38.5245	576.592	18.16748
-38.5246	579.944	18.187
-38.5239	582.009	18.2065
-38.5213	571.645	18.2261
-38.5195	578.937	18.2456
-38.5176	581.018	18.2651
-38.5157	576.97	18.2847
-38.51516	577.437	18.3042
-38.5124	581.676	18.32373
-38.5105	573.034	18.3433
-38.5098	577.713	18.3628
-38.507	580.529	18.3823
-38.5061	578.13	18.4019
-38.50415	573.781	18.4214
-38.5028	578.01	18.4409
-38.5024	576.584	18.4604
-38.49984	575.173	18.47998
-38.4991	578.657	18.4995
-38.4965	577.993	18.519
-38.4949	573.878	18.5386
-38.4938	575.103	18.5581
-38.4904	579.23	18.5776
-38.4899	574.338	18.5972
-38.488	575.6814	18.6167
-38.4866	579.049	18.63623
-38.485	577.055	18.6558
-38.4833	571.384	18.6753
-38.4819	578.662	18.6948
-38.4805	574.2572	18.7144
-38.479	573.5238	18.7339
-38.4763	577.921	18.7534
-38.4746	577.02	18.7729
-38.4743	570.157	18.79248
-38.4714	579.556	18.812
-38.4702	577.923	18.8315
-38.4698	571.641	18.8511
-38.4674	573.605	18.8706
-38.46587	578.3634	18.8901
-38.464	569.491	18.9097
-38.4631	574.6355	18.9292
-38.4605	577.384	18.94873
-38.45858	571.4115	18.9683
-38.4571	572.49	18.9878
-38.4549	575.879	19.0073
-38.4545	571.681	19.0269
-38.4516	571.7514	19.0464
-38.4494	576.542	19.0659
-38.45	574.8	19.0854
-38.44714	569.893	19.10498
-38.4456	570.881	19.1245
-38.444	573.387	19.144
-38.4419	570.557	19.1636
-38.4412	572.915	19.1831
-38.4394	574.589	19.2026
-38.43856	571.456	19.2222
-38.4366	567.225	19.2417
-38.4341	576.707	19.26123
-38.4321	571.122	19.2808
-38.4304	567.917	19.3003
-38.429	575.689	19.3198
-38.4272	575.075	19.3394
-38.4266	565.6203	19.3589
-38.4256	573.521	19.3784
-38.4234	572.267	19.3979
-38.422	569.076	19.41748
-38.4204	572.962	19.437
-38.419	573.065	19.4565
-38.4168	564.723	19.4761
-38.4149	572.0509	19.4956
-38.41404	575.281	19.5151
-38.4115	568.382	19.5347
-38.4101	568.555	19.5542
-38.4085	574.635	19.57373
-38.40694	566.97	19.5933
-38.4048	568.496	19.6128
-38.4033	573.045	19.6323
-38.4018	569.981	19.6519
-38.4007	567.591	19.6714
-38.3992	569.973	19.6909
-38.3977	569.977	19.7104
-38.3951	565.858	19.72998
-38.3929	571.109	19.7495
-38.3922	571.073	19.769
-38.3909	568.387	19.7886
-38.389	566.049	19.8081
-38.388	571.377	19.8276
-38.3858	566.522	19.8472
-38.385	568.073	19.8667
-38.3825	571.82	19.88623
-38.3806	567.769	19.9058
-38.37923	562.912	19.9253
-38.3782	574.076	19.9448
-38.3756	568.409	19.9644
-38.3748	564.807	19.9839
-38.3725	571.236	20.0034
-38.3717	569.956	20.0132

Data Header:			0.254_solid_dimension_typeiv_4545_r0			Time:	40.0183	s	4/13/2019 8:32:51 PM
Data Acquisition:	Timed
Station Name:	ft40.cfg
Test File Name:	monotonic_0.2540_typeiv_solid_4545_dimension.tst
Displacement	Force	Running Time
mm	N	s
-38.3717	572.278	20.0229
-38.3706	562.098	20.04248
-38.3672	570.845	20.062
-38.3673	569.03	20.0815
-38.3647	566.166	20.1011
-38.3624	569.232	20.1206
-38.3608	570.248	20.1401
-38.3589	562.477	20.1597
-38.3579	566.487	20.1792
-38.3574	571.162	20.19873
-38.3557	566.297	20.2183
-38.3533	564.945	20.2378
-38.3524	569.212	20.2573
-38.35	566.993	20.2769
-38.3476	563.741	20.2964
-38.3463	569.336	20.3159
-38.3443	566.771	20.3354
-38.3434	562.75	20.35498
-38.3419	565.7359	20.3745
-38.3393	570.452	20.394
-38.3391	561.959	20.4136
-38.337	565.993	20.4331
-38.3367	569.451	20.4526
-38.3333	565.183	20.4722
-38.3325	561.007	20.4917
-38.331	569.847	20.51123
-38.3279	564.516	20.5308
-38.3277	565.105	20.5503
-38.3263	569.5	20.5698
-38.3235	566.086	20.5894
-38.3213	559.316	20.6089
-38.3211	570.282	20.6284
-38.3188	565.792	20.6479
-38.3179	562.095	20.66748
-38.3171	565.917	20.687
-38.313	567.893	20.7065
-38.31332	559.684	20.7261
-38.311	565.416	20.7456
-38.3086	567.797	20.7651
-38.3087	562.371	20.7847
-38.3065	564.704	20.8042
-38.3033	566.69	20.82373
-38.3025	560.263	20.8433
-38.3007	561.945	20.8628
-38.3001	567.956	20.8823
-38.2991	563.707	20.9019
-38.2964	561.205	20.9214
-38.2933	564.417	20.9409
-38.2924	565.167	20.9604
-38.2913	561.07	20.97998
-38.2908	565.334	20.9995
-38.2876	565.781	21.019
-38.2862	560.646	21.0386
-38.2852	560.716	21.0581
-38.2831	567.97	21.0776
-38.2818	560.012	21.0972
-38.2817	562.645	21.1167
-38.278	567.255	21.13623
-38.2776	562.84	21.1558
-38.2753	556.891	21.1753
-38.2738	568.826	21.1948
-38.2721	562.6236	21.2144
-38.2701	560.952	21.2339
-38.269	565.841	21.2534
-38.2663	566.097	21.2729
-38.2661	555.296	21.29248
-38.263	564.92	21.312
-38.2615	564.482	21.3315
-38.2608	558.685	21.3511
-38.2586	560.188	21.3706
-38.2565	565.156	21.3901
-38.2552	558.445	21.4097
-38.2535	561.271	21.4292
-38.25378	565.6936	21.44873
-38.2512	560.083	21.4683
-38.2488	560.592	21.4878
-38.2473	564.067	21.5073
-38.2464	561.007	21.5269
-38.2446	558.3891	21.5464
-38.242	565.346	21.5659
-38.2416	564.249	21.5854
-38.2387	560.517	21.60498
-38.237	558.709	21.6245
-38.2356	564.945	21.644
-38.2346	557.715	21.6636
-38.2327	562.433	21.6831
-38.2311	564.7215	21.7026
-38.2308	558.4389	21.7222
-38.22728	556.249	21.7417
-38.2268	565.861	21.76123
-38.2244	559.231	21.7808
-38.2234	558.798	21.8003
-38.2213	565.078	21.8198
-38.22057	562.366	21.8394
-38.2188	554.836	21.8589
-38.2151	563.306	21.8784
-38.2156	560.361	21.8979
-38.2137	557.201	21.91748
-38.2121	562.706	21.937
-38.2098	562.293	21.9565
-38.2091	554.4104	21.9761
-38.2066	561.392	21.9956
-38.206	564.952	22.0151
-38.2028	557.738	22.0347
-38.202	556.944	22.0542
-38.2012	561.73	22.07373
-38.1987	556.731	22.0933
-38.1966	555.8103	22.1128
-38.1967	563.214	22.1323
-38.1932	559.254	22.1519
-38.192	557.6972	22.1714
-38.1896	558.801	22.1909
-38.1881	560.459	22.2104
-38.1867	554.245	22.22998
-38.1862	560.777	22.2495
-38.1837	561.936	22.269
-38.1823	556.733	22.2886
-38.1802	553.9408	22.3081
-38.1789	563.602	22.3276
-38.1779	555.64	22.3472
-38.1761	558.461	22.3667
-38.17416	560.709	22.38623
-38.174	557.619	22.4058
-38.1705	552.404	22.4253
-38.1689	562.98	22.4448
-38.1685	558.368	22.4644
-38.1661	554.865	22.4839
-38.1637	560.036	22.5034
-38.1641	559.957	22.5229
-38.1603	553.014	22.54248
-38.1602	559.3136	22.562
-38.1577	560.984	22.5815
-38.1556	553.1543	22.6011
-38.1549	558.314	22.6206
-38.153	559.82	22.6401
-38.1516	553.157	22.6597
-38.1496	555.235	22.6792
-38.1484	561.88	22.69873
-38.1469	556.509	22.7183
-38.1446	554.923	22.7378
-38.1441	558.812	22.7573
-38.1422	557.474	22.7769
-38.1401	553.579	22.7964
-38.1382	559.893	22.8159
-38.1372	558.813	22.8354
-38.1364	556.063	22.85498
-38.1338	556.426	22.8745
-38.1309	560.922	22.894
-38.13028	551.5799	22.9136
-38.1294	557.336	22.9331
-38.1262	560.56	22.9526
-38.1251	556.3606	22.9722
-38.1242	552.016	22.9917
-38.1217	561.503	23.01123
-38.1205	557.609	23.0308
-38.1184	555.884	23.0503
-38.1172	559.866	23.0698
-38.1157	558.19	23.0894
-38.1139	551.6076	23.1089
-38.1132	561.482	23.1284
-38.1118	558.139	23.1479
-38.1099	552.005	23.16748
-38.1073	557.226	23.187
-38.1051	558.388	23.2065
-38.1049	551.813	23.2261
-38.1028	556.088	23.2456
-38.10059	560.551	23.2651
-38.0995	553.969	23.2847
-38.0969	555.893	23.3042
-38.0957	558.311	23.32373
-38.0932	553.935	23.3433
-38.0935	552.549	23.3628
-38.0914	561.845	23.3823
-38.0894	556.57	23.4019
-38.0887	553.301	23.4214
-38.0866	556.034	23.4409
-38.0862	558.334	23.4604
-38.0819	553.124	23.47998
-38.0807	559.231	23.4995
-38.0795	559.492	23.519
-38.0791	554.065	23.5386
-38.0767	553.763	23.5581
-38.0765	560.852	23.5776
-38.0729	553.146	23.5972
-38.0715	555.212	23.6167
-38.07	560.578	23.63623
-38.0679	555.837	23.6558
-38.067	549.281	23.6753
-38.0665	559.958	23.6948
-38.0632	555.381	23.7144
-38.0615	552.7962	23.7339
-38.0605	558.039	23.7534
-38.0586	554.1156	23.7729
-38.0567	547.733	23.79248
-38.0549	557.58	23.812
-38.0544	558.121	23.8315
-38.0524	552.537	23.8511
-38.0504	555.792	23.8706
-38.0487	555.333	23.8901
-38.0475	552.458	23.9097
-38.0459	551.715	23.9292
-38.0446	559.269	23.94873
-38.0415	553.8363	23.9683
-38.0403	553.033	23.9878
-38.0401	555.907	24.0073
-38.03849	556.4021	24.0269
-38.036	549.741	24.0464
-38.0353	559.074	24.0659
-38.0335	556.523	24.0854
-38.0314	553.062	24.10498
-38.0294	552.101	24.1245
-38.0268	557.778	24.144
-38.0261	551.538	24.1636
-38.0231	556.155	24.1831
-38.0222	557.91	24.2026
-38.0214	552.031	24.2222
-38.0205	550.541	24.2417
-38.0189	559.64	24.26123
-38.0168	552.759	24.2808
-38.0152	551.943	24.3003
-38.0134	557.776	24.3198
-38.0116	555.12	24.3394
-38.00872	548.158	24.3589
-38.0081	555.401	24.3784
-38.0081	555.808	24.3979
-38.0056	550.476	24.41748
-38.004	557.177	24.437
-38.0015	554.829	24.4565
-38.0008	548.0152	24.4761
-37.9996	553.32	24.4956
-37.9971	559.4458	24.5151
-37.9956	551.677	24.5347
-37.9941	553.197	24.5542
-37.99221	555.024	24.57373
-37.9906	554.104	24.5933
-37.9893	551.146	24.6128
-37.9867	556.634	24.6323
-37.9852	553.117	24.6519
-37.9839	551.192	24.6714
-37.9838	553.5459	24.6909
-37.9806	556.982	24.7104
-37.9791	548.905	24.72998
-37.9776	555.6156	24.7495
-37.9754	557.145	24.769
-37.9752	550.903	24.7886
-37.9726	549.858	24.8081
-37.9712	558.3479	24.8276
-37.96912	551.0119	24.8472
-37.968	551.978	24.8667
-37.9657	557.115	24.88623
-37.9651	550.946	24.9058
-37.9626	547.284	24.9253
-37.9614	557.085	24.9448
-37.9591	553.842	24.9644
-37.9582	548.0752	24.9839
-37.9558	556.158	25.0034
-37.9543	555.987	25.0229
-37.9522	549.63	25.04248
-37.951	554.657	25.062
-37.9489	555.51	25.0815
-37.9479	550.2312	25.1011
-37.9461	554.88	25.1206
-37.944	554.334	25.1401
-37.9433	550.827	25.1597
-37.9414	551.393	25.1792
-37.9408	559.072	25.19873
-37.9389	551.989	25.2183
-37.9372	552.061	25.2378
-37.9356	553.387	25.2573
-37.93375	556.281	25.2769
-37.9304	550.8595	25.2964
-37.9295	555.192	25.3159
-37.9282	554.491	25.3354
-37.9263	549.229	25.35498
-37.9247	551.279	25.3745
-37.9234	557.447	25.394
-37.9224	549.94	25.4136
-37.92	553.359	25.4331
-37.9185	557.39	25.4526
-37.91605	550.2475	25.4722
-37.9168	547.735	25.4917
-37.9138	557.331	25.51123
-37.9123	551.436	25.5308
-37.9106	550.653	25.5503
-37.9092	555.0874	25.5698
-37.9078	549.909	25.5894
-37.9056	546.765	25.6089
-37.9041	554.852	25.6284
-37.9029	555.443	25.6479
-37.9006	547.784	25.66748
-37.8993	554.969	25.687
-37.8975	553.826	25.7065
-37.8956	550.165	25.7261
-37.89394	552.077	25.7456
-37.893	556.672	25.7651
-37.89	550.279	25.7847
-37.8896	552.701	25.8042
-37.8873	551.084	25.82373
-37.8858	550.643	25.8433
-37.8849	546.987	25.8628
-37.8837	555.722	25.8823
-37.8821	552.967	25.9019
-37.8807	548.491	25.9214
-37.879	551.327	25.9409
-37.8763	555.623	25.9604
-37.8767	547.7113	25.97998
-37.8743	552.976	25.9995
-37.8712	553.1582	26.019
-37.8698	548.803	26.0386
-37.8684	549.97	26.0581
-37.8666	557.29	26.0776
-37.86517	549.636	26.0972
-37.8638	548.691	26.1167
-37.8615	556.056	26.13623
-37.8605	549.63	26.1558
-37.858	546.64	26.1753
-37.8572	554.267	26.1948
-37.855	552.522	26.2144
-37.854	547.611	26.2339
-37.85231	555.0885	26.2534
-37.8508	550.437	26.2729
-37.8479	547.655	26.29248
-37.8473	553.117	26.312
-37.84449	555.673	26.3315
-37.8441	548.17	26.3511
-37.8416	551.028	26.3706
-37.8423	552.24	26.3901
-37.8387	550.387	26.4097
-37.8359	548.128	26.4292
-37.8351	555.245	26.44873
-37.8342	550.83	26.4683
-37.832	548.961	26.4878
-37.8314	552.689	26.5073
-37.829	551.298	26.5269
-37.82822	546.397	26.5464
-37.8269	552.85	26.5659
-37.8247	554.0202	26.5854
-37.8221	549.454	26.60498
-37.82029	548.478	26.6245
-37.8195	554.222	26.644
-37.8177	548.3537	26.6636
-37.8167	550.599	26.6831
-37.8146	553.597	26.7026
-37.8134	547.902	26.7222
-37.8111	548.301	26.7417
-37.8099	554.45	26.76123
-37.8078	551.363	26.7808
-37.8062	545.457	26.8003
-37.80481	554.738	26.8198
-37.8047	549.966	26.8394
-37.8017	548.065	26.8589
-37.8003	552.809	26.8784
-37.7978	552.812	26.8979
-37.7975	547.8075	26.91748
-37.79493	552.456	26.937
-37.7936	549.227	26.9565
-37.792	548.149	26.9761
-37.791	550.302	26.9956
-37.7885	554.911	27.0151
-37.7867	548.9856	27.0347
-37.78595	548.07	27.0542
-37.7839	550.683	27.07373
-37.7823	551.651	27.0933
-37.7802	547.857	27.1128
-37.778	552.574	27.1323
-37.77644	551.072	27.1519
-37.7772	546.091	27.1714
-37.7752	550.878	27.1909
-37.77092	552.12	27.2104
-37.7701	546.423	27.22998
-37.7695	550.892	27.2495
-37.76767	553.91	27.269
-37.7667	546.419	27.2886
-37.7643	546.549	27.3081
-37.7631	552.372	27.3276
-37.7618	548.275	27.3472
-37.7593	547.838	27.3667
-37.7579	554.1842	27.38623
-37.7554	545.473	27.4058
-37.7545	547.578	27.4253
-37.75338	552.332	27.4448
-37.7509	550.233	27.4644
-37.7493	546.642	27.4839
-37.7476	553.385	27.5034
-37.7473	549.6134	27.5229
-37.7446	547.222	27.54248
-37.7435	549.336	27.562
-37.7422	552.8902	27.5815
-37.74	547.469	27.6011
-37.7382	551.788	27.6206
-37.7359	550.964	27.6401
-37.7348	548.5578	27.6597
-37.7328	548.467	27.6792
-37.7321	555.209	27.69873
-37.7306	549.084	27.7183
-37.7282	547.609	27.7378
-37.7276	549.872	27.7573
-37.726	553.275	27.7769
-37.7245	545.934	27.7964
-37.7215	551.852	27.8159
-37.7197	551.795	27.8354
-37.7179	545.522	27.85498
-37.717	549.217	27.8745
-37.7155	553.82	27.894
-37.7133	546.751	27.9136
-37.7126	549.698	27.9331
-37.7107	554.214	27.9526
-37.7096	545.06	27.9722
-37.7073	547.438	27.9917
-37.7056	552.213	28.01123
-37.7036	549.53	28.0308
-37.7019	546.571	28.0503
-37.7007	552.411	28.0698
-37.6993	546.187	28.0894
-37.6984	546.015	28.1089
-37.6958	551.83	28.1284
-37.6937	554.152	28.1479
-37.6924	544.381	28.16748
-37.6903	550.023	28.187
-37.6894	548.885	28.2065
-37.6872	548.211	28.2261
-37.6859	548.0863	28.2456
-37.6847	552.221	28.2651
-37.68214	546.973	28.2847
-37.6811	548.6051	28.3042
-37.6784	551.599	28.32373
-37.6771	550.88	28.3433
-37.6751	545.928	28.3628
-37.6737	552.512	28.3823
-37.6723	551.2417	28.4019
-37.67149	543.808	28.4214
-37.6703	547.873	28.4409
-37.66935	551.909	28.4604
-37.66666	547.599	28.47998
-37.6654	548.995	28.4995
-37.6637	552.6601	28.519
-37.6627	544.4425	28.5386
-37.6597	548.723	28.5581
-37.6587	554.139	28.5776
-37.6562	547.737	28.5972
-37.6554	547.201	28.6167
-37.6531	553.2	28.63623
-37.6508	545.028	28.6558
-37.6507	546.889	28.6753
-37.6489	551.881	28.6948
-37.6463	550.333	28.7144
-37.6471	545.466	28.7339
-37.6443	552.586	28.7534
-37.6428	547.325	28.7729
-37.6401	547.687	28.79248
-37.6383	550.002	28.812
-37.6371	552.998	28.8315
-37.6364	545.636	28.8511
-37.6345	548.515	28.8706
-37.6328	548.812	28.8901
-37.631	547.155	28.9097
-37.6295	545.967	28.9292
-37.6279	550.93	28.94873
-37.6256	547.0899	28.9683
-37.6241	546.941	28.9878
-37.6231	548.461	29.0073
-37.6209	549.002	29.0269
-37.6197	544.298	29.0464
-37.6171	550.0943	29.0659
-37.61673	550.788	29.0854
-37.6136	542.728	29.10498
-37.6127	547.12	29.1245
-37.6109	551.682	29.144
-37.609	547.661	29.1636
-37.607	548.242	29.1831
-37.6065	552.374	29.2026
-37.6042	543.129	29.2222
-37.603	547.961	29.2417
-37.6014	552.589	29.26123
-37.5998	548.7652	29.2808
-37.5985	543.769	29.3003
-37.5974	552.925	29.3198
-37.5952	546.602	29.3394
-37.5924	546.264	29.3589
-37.591	548.2934	29.3784
-37.59	550.4585	29.3979
-37.589	545.244	29.41748
-37.5867	551.134	29.437
-37.586	546.67	29.4565
-37.5829	546.445	29.4761
-37.582	547.343	29.4956
-37.5806	551.879	29.5151
-37.5785	547	29.5347
-37.5762	544.704	29.5542
-37.5756	548.158	29.57373
-37.5743	548.984	29.5933
-37.5716	545.248	29.6128
-37.5711	550.362	29.6323
-37.5693	549.841	29.6519
-37.5677	542.3	29.6714
-37.5655	547.125	29.6909
-37.5629	549.329	29.7104
-37.5618	544.975	29.72998
-37.5598	548.404	29.7495
-37.5588	553.676	29.769
-37.5575	542.688	29.7886
-37.5566	546.841	29.8081
-37.5532	550.69	29.8276
-37.55278	547.682	29.8472
-37.5509	547.285	29.8667
-37.5492	553.225	29.88623
-37.5483	543.024	29.9058
-37.5454	546.0694	29.9253
-37.5446	551.498	29.9448
-37.5427	550.055	29.9644
-37.5413	546.382	29.9839
-37.5395	551.5531	30.0034
-37.538	546.219	30.0229
-37.5364	545.634	30.04248
-37.5343	548.466	30.062
-37.53297	551.165	30.0815
-37.5318	545.4295	30.1011
-37.5304	548.382	30.1206
-37.52774	548.195	30.1401
-37.5261	546.641	30.1597
-37.5254	545.318	30.1792
-37.5234	551.458	30.19873
-37.5218	547.799	30.2183
-37.5212	543.098	30.2378
-37.5179	548.254	30.2573
-37.51646	550.148	30.2769
-37.5151	545.814	30.2964
-37.5136	549.2254	30.3159
-37.511	549.735	30.3354
-37.5108	542.13	30.35498
-37.5088	547.897	30.3745
-37.50671	550.603	30.394
-37.5041	545.094	30.4136
-37.5041	546.51	30.4331
-37.5024	551.886	30.4526
-37.5001	541.961	30.4722
-37.4994	546.913	30.4917
-37.4974	549.317	30.51123
-37.4954	548.448	30.5308
-37.4944	545.752	30.5503
-37.4934	550.851	30.5698
[...]
-36.82169	542.6582	38.6167
-36.8205	544.45	38.63623
-36.8183	544.886	38.6558
-36.8171	539.292	38.6753
-36.8156	546.5	38.6948
-36.8139	542.5188	38.7144
-36.8123	541.528	38.7339
-36.8101	541.914	38.7534
-36.8078	546.185	38.7729
-36.8067	539.573	38.79248
-36.8056	545.8822	38.812
-36.8042	546.056	38.8315
-36.8036	540.555	38.8511
-36.8009	540.263	38.8706
-36.7981	546.742	38.8901
-36.7973	541.743	38.9097
-36.79604	540.877	38.9292
-36.7945	546.479	38.94873
-36.7938	540.251	38.9683
-36.7903	538.036	38.9878
-36.7902	547.811	39.0073
-36.788	542.233	39.0269
-36.7854	538.128	39.0464
-36.7845	546.759	39.0659
-36.7832	543.898	39.0854
-36.7814	537.022	39.10498
-36.7799	542.595	39.1245
-36.7781	545.667	39.144
-36.77597	538.2569	39.1636
-36.774	543.447	39.1831
-36.7735	541.446	39.2026
-36.7718	539.588	39.2222
-36.7694	540.9765	39.2417
-36.7681	547.0304	39.26123
-36.7674	541.469	39.2808
-36.7652	540.222	39.3003
-36.7635	542.25	39.3198
-36.761	545.924	39.3394
-36.7595	539.217	39.3589
-36.759	545.173	39.3784
-36.757	544.924	39.3979
-36.7554	540.372	39.41748
-36.7539	540.898	39.437
-36.7512	547.262	39.4565
-36.7499	538.089	39.4761
-36.749	541.962	39.4956
-36.7463	547.454	39.5151
-36.7455	540.177	39.5347
-36.7428	538.618	39.5542
-36.74147	546.216	39.57373
-36.7407	543.362	39.5933
-36.7381	539.449	39.6128
-36.7371	547.809	39.6323
-36.735	540.195	39.6519
-36.7332	537.1828	39.6714
-36.7321	545.214	39.6909
-36.729	544.465	39.7104
-36.7284	536.759	39.72998
-36.7276	542.69	39.7495
-36.7267	543.095	39.769
-36.7231	538.712	39.7886
-36.7225	540.879	39.8081
-36.72213	546.714	39.8276
-36.7187	538.8717	39.8472
-36.7182	541.502	39.8667
-36.7169	543.1297	39.88623
-36.715	542.583	39.9058
-36.712	539.495	39.9253
-36.7128	547.5719	39.9448
-36.7094	542.681	39.9644
-36.70816	538.191	39.9839
-36.7065	541.51	40.0034
-36.7061	544.253	40.0132

Data Header:			0.254_solid_dimension_typeiv_4545_r0			Time:	46.8904	s	4/13/2019 8:32:58 PM
Data Acquisition:	Timed
Station Name:	ft40.cfg
Test File Name:	monotonic_0.2540_typeiv_solid_4545_dimension.tst
Displacement	Force	Running Time
mm	N	s
-36.70385	546.4198	40.0229
-36.7044	540.775	40.0327
-36.7024	537.682	40.04248
-36.7019	537.712	40.0522
-36.7015	543.914	40.062
-36.7004	546.831	40.0718
-36.6997	546.293	40.0815
-36.69857	541.309	40.0913
-36.6978	538.876	40.1011
-36.698	538.4447	40.11084
-36.6965	540.41	40.1206
-36.69669	546.151	40.1304
-36.6949	547.59	40.1401
-36.6935	546.103	40.1499
-36.69363	538.078	40.1597
-36.6923	536.668	40.1694
-36.692	539.369	40.1792
-36.6908	545.518	40.189
-36.6904	546.502	40.19873
-36.6894	543.125	40.2085
-36.6878	540.986	40.2183
-36.68837	539.906	40.228
-36.6871	537.759	40.2378
-36.6857	544.393	40.2476
-36.6846	545.721	40.2573
-36.685	545.737	40.26709
-36.6844	543.114	40.2769
-36.6833	536.36	40.2866
-36.6819	539.039	40.2964
-36.6815	543.0119	40.3062
-36.6808	545.966	40.3159
-36.6795	545.917	40.3257
-36.6792	542.683	40.3354
-36.67844	540.816	40.3452
-36.6783	538.603	40.35498
-36.6764	539.463	40.3647
-36.6753	543.141	40.3745
-36.6748	544.6571	40.3843
-36.674	545.4931	40.394
-36.6726	539.455	40.4038
-36.672	538.223	40.4136
-36.67128	540.602	40.42334
-36.6699	541.457	40.4331
-36.6703	544.444	40.4429
-36.6688	543.43	40.4526
-36.6682	541.2652	40.4624
-36.66708	541.863	40.4722
-36.6677	539.085	40.4819
-36.6656	539.859	40.4917
-36.6644	543.685	40.5015
-36.6632	545.766	40.51123
-36.6633	541.571	40.521
-36.6627	541.023	40.5308
-36.6609	539.0257	40.5405
-36.6607	540.997	40.5503
-36.6594	540.927	40.5601
-36.6593	543.558	40.5698
-36.6584	543.7973	40.57959
-36.657	542.596	40.5894
-36.6574	539.256	40.5991
-36.656	536.352	40.6089
-36.6553	538.071	40.6187
-36.6542	545.438	40.6284
-36.6533	543.895	40.6382
-36.6521	544.511	40.6479
-36.65205	538.983	40.6577
-36.6518	538.755	40.66748
-36.6512	540.539	40.6772
-36.6495	539.682	40.687
-36.648	544.737	40.6968
-36.6479	546.534	40.7065
-36.6465	541.959	40.7163
-36.6465	539.001	40.7261
-36.6451	533.125	40.73584
-36.6438	541.499	40.7456
-36.6441	544.683	40.7554
-36.6428	545.537	40.7651
-36.6423	542.235	40.7749
-36.6413	539.034	40.7847
-36.6396	537.657	40.7944
-36.6393	537.425	40.8042
-36.6385	543.64	40.814
-36.6384	546.8316	40.82373
-36.6373	545.538	40.8335
-36.6375	540.922	40.8433
-36.6358	536.299	40.853
-36.6347	537.385	40.8628
-36.6339	543.789	40.8726
-36.63319	545.569	40.8823
-36.6318	543.648	40.89209
-36.6318	541.171	40.9019
-36.6311	538.88	40.9116
-36.6299	536.174	40.9214
-36.6284	540.634	40.9312
-36.6283	543.039	40.9409
-36.6281	546.593	40.9507
-36.6271	544.002	40.9604
-36.6249	536.378	40.9702
-36.6254	538.382	40.97998
-36.6238	539.645	40.9897
-36.6222	544.5036	40.9995
-36.6228	544.12	41.0093
-36.6214	542.326	41.019
-36.61932	542.267	41.0288
-36.6199	539.009	41.0386
-36.6187	539.773	41.04834
-36.6191	539.894	41.0581
-36.6171	542.339	41.0679
-36.6167	546.693	41.0776
-36.6165	539.979	41.0874
-36.6153	539.309	41.0972
-36.6144	539.162	41.1069
-36.6139	541.738	41.1167
-36.61195	542.863	41.1265
-36.6126	542.944	41.13623
-36.6112	542.51	41.146
-36.6093	542.92	41.1558
-36.61	538.349	41.1655
-36.6085	538.122	41.1753
-36.6075	539.784	41.1851
-36.6074	544.975	41.1948
-36.6055	544.768	41.20459
-36.60503	541.871	41.2144
-36.6051	539.211	41.2241
-36.6042	540.0144	41.2339
-36.6026	539.904	41.2437
-36.6026	540.981	41.2534
-36.6018	544.457	41.2632
-36.6007	543.6535	41.2729
-36.5998	541.669	41.2827
-36.5986	536.164	41.29248
-36.5976	537.025	41.3022
-36.5976	542.262	41.312
-36.5965	545.898	41.3218
-36.596	545.062	41.3315
-36.59441	539.301	41.3413
-36.5942	537.878	41.3511
-36.59391	539.982	41.36084
-36.5924	538.114	41.3706
-36.5908	545.709	41.3804
-36.5908	545.708	41.3901
-36.59042	543.84	41.3999
-36.5891	540.771	41.4097
-36.58902	534.921	41.4194
-36.5874	539.1698	41.4292
-36.587	545.658	41.439
-36.5847	544.483	41.44873
-36.5858	545.548	41.4585
-36.5846	538.235	41.4683
-36.58276	538.609	41.478
-36.5832	538.198	41.4878
-36.5811	541.496	41.4976
-36.5814	543.637	41.5073
-36.5804	545.051	41.51709
-36.5789	541.906	41.5269
-36.58	536.884	41.5366
-36.57843	536.341	41.5464
-36.576	541.996	41.5562
-36.5764	544.342	41.5659
-36.5768	542.59	41.5757
-36.5745	541.7085	41.5854
-36.5736	538.933	41.5952
-36.5728	538.702	41.60498
-36.5725	540.276	41.6147
-36.5712	541.436	41.6245
-36.5709	544.719	41.6343
-36.5686	545.415	41.644
-36.5706	538.331	41.6538
-36.56712	538.494	41.6636
-36.5677	538.88	41.67334
-36.5669	542.68	41.6831
-36.5665	543.7981	41.6929
-36.5652	541.978	41.7026
-36.5644	541.689	41.7124
-36.5627	540.218	41.7222
-36.5628	539.359	41.7319
-36.5609	539.753	41.7417
-36.5609	541.281	41.7515
-36.5595	547.588	41.76123
-36.5586	541.067	41.771
-36.5583	540.897	41.7808
-36.5577	538.231	41.7905
-36.55687	538.639	41.8003
-36.5555	542.439	41.8101
-36.5549	541.807	41.8198
-36.554	542.244	41.82959
-36.55283	544.359	41.8394
-36.5518	539.443	41.8491
-36.552	538.129	41.8589
-36.5506	539.343	41.8687
-36.5511	542.663	41.8784
-36.5483	546.996	41.8882
-36.5489	542.849	41.8979
-36.54723	539.656	41.9077
-36.5479	538.022	41.91748
-36.5452	537.227	41.9272
-36.5459	540.167	41.937
-36.5438	544.512	41.9468
-36.5426	544.316	41.9565
-36.5426	543.598	41.9663
-36.5426	536.901	41.9761
-36.5414	535.546	41.98584
-36.5411	539.226	41.9956
-36.5394	544.715	42.0054
-36.5387	545.813	42.0151
-36.5376	540.493	42.0249
-36.5369	536.959	42.0347
-36.5367	538.552	42.0444
-36.535	537.1286	42.0542
-36.5342	544.73	42.064
-36.5331	544.652	42.07373
-36.5321	544.255	42.0835
-36.5319	541.49	42.0933
-36.5317	533.7879	42.103
-36.5315	536.77	42.1128
-36.53056	543.055	42.1226
-36.5293	545.975	42.1323
-36.5282	543.993	42.14209
-36.5282	537.801	42.1519
-36.5269	537.34	42.1616
-36.5265	536.947	42.1714
-36.5257	541.421	42.1812
-36.52393	544.205	42.1909
-36.5237	544.296	42.2007
-36.5223	543.228	42.2104
-36.5221	537.057	42.2202
-36.5207	536.222	42.22998
-36.5203	539.783	42.2397
-36.5198	543.603	42.2495
-36.5188	544.566	42.2593
-36.518	540.303	42.269
-36.51712	539.647	42.2788
-36.5157	540.369	42.2886
-36.5152	537.677	42.29834
-36.5148	538.579	42.3081
-36.5138	543	42.3179
-36.5126	543.9436	42.3276
-36.5115	540.882	42.3374
-36.5117	539.323	42.3472
-36.5109	535.826	42.3569
-36.5089	541.793	42.3667
-36.5082	541.282	42.3765
-36.5084	541.269	42.38623
-36.50647	542.49	42.396
-36.5056	540.569	42.4058
-36.5055	538.133	42.4155
-36.5044	536.133	42.4253
-36.5027	538.329	42.4351
-36.5028	543.996	42.4448
-36.5029	544.258	42.45459
-36.5013	542.7984	42.4644
-36.49947	538.0835	42.4741
-36.4999	536.601	42.4839
-36.4994	541.966	42.4937
-36.4984	539.893	42.5034
-36.49699	544.91	42.5132
-36.4957	543.13	42.5229
-36.4952	538.685	42.5327
-36.4947	536.809	42.54248
-36.49305	535.016	42.5522
-36.4935	541.186	42.562
-36.4917	545.561	42.5718
-36.4916	543.349	42.5815
-36.4913	539.875	42.5913
-36.4903	536.118	42.6011
-36.4896	537.945	42.61084
-36.488	539.045	42.6206
-36.4872	543.11	42.6304
-36.4869	543.301	42.6401
-36.48634	542.563	42.6499
-36.48484	538.087	42.6597
-36.4845	534.972	42.6694
-36.4831	537.2569	42.6792
-36.483	543.087	42.689
-36.4818	545.442	42.69873
-36.4809	541.067	42.7085
-36.4805	537.976	42.7183
-36.4787	536.812	42.728
-36.4785	537.052	42.7378
-36.4776	542.011	42.7476
-36.477	541.067	42.7573
-36.4764	540.634	42.76709
-36.4759	541.0058	42.7769
-36.4738	534.421	42.7866
-36.474	539.184	42.7964
-36.4727	538.901	42.8062
-36.4725	544.5	42.8159
-36.4713	544.3006	42.8257
-36.4704	538.265	42.8354
-36.4705	537.81	42.8452
-36.4684	536.996	42.85498
-36.4686	539.584	42.8647
-36.4672	540.6	42.8745
-36.4663	541.857	42.8843
-36.465	543.259	42.894
-36.465	538.48	42.9038
-36.463	536.322	42.9136
-36.4627	536.457	42.92334
-36.46207	539.546	42.9331
-36.4609	542.114	42.9429
-36.4602	540.293	42.9526
-36.4592	538.816	42.9624
-36.4584	540.96	42.9722
-36.4581	536.9187	42.9819
-36.4573	537.582	42.9917
-36.4567	539.43	43.0015
-36.4557	542.612	43.01123
-36.455	543.1463	43.021
-36.4542	539.3244	43.0308
-36.453	535.492	43.0405
-36.4531	540.033	43.0503
-36.4528	540.158	43.0601
-36.4512	542.044	43.0698
-36.45039	542.99	43.07959
-36.4481	540.501	43.0894
-36.4484	539.718	43.0991
-36.4473	534.512	43.1089
-36.4484	536.608	43.1187
-36.4473	540.986	43.1284
-36.4444	544.4137	43.1382
-36.4446	541.514	43.1479
-36.4428	536.813	43.1577
-36.4428	534.75	43.16748
-36.442	537.991	43.1772
-36.4406	537.819	43.187
-36.4417	542.232	43.1968
-36.4398	542.4613	43.2065
-36.439	540.41	43.2163
-36.4371	537.55	43.2261
-36.4378	532.408	43.23584
-36.4365	538.37	43.2456
-36.4359	542.947	43.2554
-36.4348	542.705	43.2651
-36.4342	539.447	43.2749
-36.4321	534.0285	43.2847
-36.4332	535.633	43.2944
-36.4312	537.141	43.3042
-36.4298	539.3299	43.314
-36.4299	542.351	43.32373
-36.4289	540.9314	43.3335
-36.4275	536.95	43.3433
-36.4269	531.383	43.353
-36.4261	534.359	43.3628
-36.4262	540.376	43.3726
-36.425	542.131	43.3823
-36.4233	540.386	43.39209
-36.4233	537.196	43.4019
-36.4212	534.551	43.4116
-36.4218	535.616	43.4214
-36.4206	538.644	43.4312
-36.4203	539.408	43.4409
-36.4179	541.185	43.4507
-36.416	538.865	43.4604
-36.4182	533.124	43.4702
-36.41584	536.082	43.47998
-36.41539	533.474	43.4897
-36.4154	539.667	43.4995
-36.4136	541.628	43.5093
-36.4136	537.115	43.519
-36.4134	535.912	43.5288
-36.41209	533.564	43.5386
-36.4107	536.252	43.54834
-36.4098	535.791	43.5581
-36.4086	537.646	43.5679
-36.4089	541.223	43.5776
-36.4072	535.482	43.5874
-36.4079	533.449	43.5972
-36.4058	531.695	43.6069
-36.4057	534.067	43.6167
-36.4054	537.133	43.6265
-36.40321	537.226	43.63623
-36.4036	537.266	43.646
-36.4022	535.7453	43.6558
-36.4012	531.5838	43.6655
-36.4009	530.622	43.6753
-36.3993	531.002	43.6851
-36.3981	535.071	43.6948
-36.3976	538.792	43.70459
-36.3973	534.238	43.7144
-36.3965	529.315	43.7241
-36.3962	530.108	43.7339
-36.395	531.077	43.7437
-36.3939	531.836	43.7534
-36.3938	534.232	43.7632
-36.3925	533.12	43.7729
-36.3911	530.599	43.7827
-36.39	524.488	43.79248
-36.3898	522.768	43.8022
-36.3888	526.829	43.812
-36.3877	529.058	43.8218
-36.38644	522.832	43.8315
-36.3826	-18.6174	43.8413
-36.3829	-34.57346	43.8511
-36.3825	-25.6357	43.86084
-36.3819	-51.605	43.8706
-36.3816	-41.1065	43.8804
-36.3809	-40.1859	43.8901
-36.3797	-39.1684	43.8999
-36.37899	-42.6628	43.9097
-36.3787	-50.3926	43.9194
-36.3778	-42.841	43.9292
-36.3772	-37.2879	43.939
-36.3762	-37.9122	43.94873
-36.37603	-39.3783	43.9585
-36.3746	-45.7489	43.9683
-36.3745	-45.4946	43.978
-36.374	-44.2614	43.9878
-36.3728	-42.6144	43.9976
-36.3723	-38.9813	44.0073
-36.371	-38.924	44.01709
-36.3708	-40.5864	44.0269
-36.3697	-46.28825	44.0366
-36.3696	-45.6188	44.0464
-36.3673	-42.2322	44.0562
-36.368	-39.243	44.0659
-36.3679	-37.9994	44.0757
-36.3651	-42.4291	44.0854
-36.3649	-44.763	44.0952
-36.3641	-43.5642	44.10498
-36.3633	-41.9071	44.1147
-36.3631	-43.2192	44.1245
-36.3624	-38.3641	44.1343
-36.36071	-39.1659	44.144
-36.3605	-43.0399	44.1538
-36.3592	-43.9069	44.1636
-36.358	-44.8542	44.17334
-36.3579	-41.6111	44.1831
-36.358	-38.3841	44.1929
-36.35564	-41.3031	44.2026
-36.3562	-39.6911	44.2124
-36.3543	-42.6152	44.2222
-36.3534	-43.2519	44.2319
-36.3529	-42.6952	44.2417
-36.3524	-43.8988	44.2515
-36.3522	-36.9293	44.26123
-36.34927	-38.7821	44.271
-36.3491	-42.4263	44.2808
-36.3491	-45.7736	44.2905
-36.34761	-46.2285	44.3003
-36.3468	-41.5185	44.3101
-36.3471	-41.4362	44.3198
-36.3454	-39.8065	44.32959
-36.3446	-40.9394	44.3394
-36.343	-43.9812	44.3491
-36.3428	-43.4981	44.3589
-36.3421	-46.3345	44.3687
-36.3414	-41.1191	44.3784
-36.3405	-36.4744	44.3882
-36.3406	-39.5502	44.3979
-36.3381	-43.2116	44.4077
-36.3383	-46.9917	44.41748
-36.3374	-44.4918	44.4272
-36.3368	-41.7185	44.437
-36.3355	-39.679	44.4468
-36.33567	-39.8114	44.4565
-36.33445	-42.1327	44.4663
-36.33419	-45.424	44.4761
-36.3324	-48.1029	44.48584
-36.3329	-44.41243	44.4956
-36.3306	-37.9684	44.5054
-36.3297	-36.8009	44.5151
-36.3289	-42.3973	44.5249
-36.3281	-45.1245	44.5347
-36.3279	-45.9566	44.5444
-36.3262	-43.2082	44.5542
-36.3274	-38.6019	44.564
-36.32584	-39.8773	44.57373
-36.32489	-39.1011	44.5835
-36.3246	-42.16087	44.5933
-36.3227	-48.8174	44.603
-36.323	-44.0831	44.6128
-36.3209	-42.2877	44.6226
-36.3205	-37.3495	44.6323
-36.3202	-38.7088	44.64209
-36.3186	-46.6554	44.6519
-36.3182	-44.33836	44.6616
-36.3172	-44.2914	44.6714
-36.3162	-41.9195	44.6812
-36.3163	-40.5706	44.6909
-36.3155	-40.9324	44.7007
-36.3125	-39.3362	44.7104
-36.3139	-45.87265	44.7202
-36.3123	-46.5962	44.72998
-36.3112	-43.9668	44.7397
-36.3099	-40.8987	44.7495
-36.3094	-39.493	44.7593
-36.3082	-40.5941	44.769
-36.3083	-43.6424	44.7788
-36.3067	-44.2654	44.7886
-36.3063	-45.3834	44.79834
-36.3053	-43.3082	44.8081
-36.3053	-42.2992	44.8179
-36.3045	-39.1863	44.8276
-36.3035	-40.4483	44.8374
-36.30228	-44.9313	44.8472
-36.3017	-46.4459	44.8569
-36.3011	-43.687	44.8667
-36.2987	-40.0722	44.8765
-36.2998	-40.478	44.88623
-36.2995	-39.3063	44.896
-36.2974	-42.0371	44.9058
-36.296	-43.5423	44.9155
-36.2949	-44.2771	44.9253
-36.2951	-43.4858	44.9351
-36.294	-39.779	44.9448
-36.2931	-37.0043	44.95459
-36.2927	-40.6826	44.9644
-36.2925	-45.5071	44.9741
-36.291	-46.2427	44.9839
-36.28973	-42.00946	44.9937
-36.2898	-41.9985	45.0034
-36.289	-37.5541	45.0132
-36.2886	-40.1779	45.0229
-36.2869	-43.4939	45.0327
-36.28532	-44.9043	45.04248
-36.2841	-47.9128	45.0522
-36.2848	-42.3218	45.062
-36.2843	-37.4603	45.0718
-36.2841	-37.9519	45.0815
-36.282	-42.3752	45.0913
-36.2822	-48.7026	45.1011
-36.2799	-45.8819	45.11084
-36.279	-40.728	45.1206
-36.279	-38.7198	45.1304
-36.278	-39.98613	45.1401
-36.2771	-41.0794	45.1499
-36.2762	-43.0278	45.1597
-36.2764	-47.70472	45.1694
-36.2757	-45.1423	45.1792
-36.2745	-39.0326	45.189
-36.2735	-38.00629	45.19873
-36.2722	-40.8331	45.2085
-36.2716	-45.0239	45.2183
-36.2705	-46.1187	45.228
-36.2694	-43.1705	45.2378
-36.2689	-39.2462	45.2476
-36.2677	-41.3446	45.2573
-36.2667	-39.2757	45.26709
-36.2673	-41.1762	45.2769
-36.2664	-46.23838	45.2866
-36.266	-44.82478	45.2964
-36.2641	-43.0727	45.3062
-36.2642	-40.3849	45.3159
-36.2624	-38.9501	45.3257
-36.2619	-43.9696	45.3354
-36.2605	-44.6236	45.3452
-36.2587	-44.0596	45.35498
-36.2592	-43.1047	45.3647
-36.2583	-42.8817	45.3745
-36.2569	-41.5609	45.3843
-36.2565	-39.1551	45.394
-36.2568	-43.0505	45.4038
-36.2543	-45.1467	45.4136
-36.2535	-46.1503	45.42334
-36.2533	-43.4893	45.4331
-36.253	-37.7062	45.4429
-36.2523	-41.3824	45.4526
-36.2513	-41.1336	45.4624
-36.2512	-42.9244	45.4722
-36.25	-44.6436	45.4819
-36.24889	-43.1736	45.4917
-36.2475	-43.7771	45.5015
-36.2473	-39.7262	45.51123
-36.2475	-36.45026	45.521
-36.24601	-42.7701	45.5308
-36.2445	-47.0479	45.5405
-36.2444	-45.0316	45.5503
-36.2444	-42.6263	45.5601
-36.2427	-39.4952	45.5698
-36.242	-38.9775	45.57959
-36.2414	-41.8299	45.5894
-36.2405	-45.2808	45.5991
-36.2391	-46.8975	45.6089
-36.2382	-45.2756	45.6187
-36.2373	-40.8891	45.6284
-36.2361	-37.226	45.6382
-36.2361	-38.899	45.6479
-36.2352	-45.4788	45.6577
-36.2342	-47.3934	45.66748
-36.23325	-44.0873	45.6772
-36.2319	-42.0208	45.687
-36.2322	-37.4265	45.6968
-36.2302	-39.6314	45.7065
-36.2298	-42.5821	45.7163
-36.2301	-42.1166	45.7261
-36.2285	-47.761	45.73584
-36.2279	-43.4558	45.7456
-36.2264	-38.27853	45.7554
-36.2262	-37.7869	45.7651
-36.2248	-40.83773	45.7749
-36.2242	-48.936	45.7847
-36.2246	-45.918	45.7944
-36.22308	-42.90723	45.8042
-36.2212	-40.5814	45.814
-36.2213	-38.5487	45.82373
-36.2193	-41.6047	45.8335
-36.2192	-43.3024	45.8433
-36.2184	-46.0112	45.853
-36.2175	-45.2835	45.8628
-36.217	-41.0222	45.8726
-36.217	-37.9214	45.8823
-36.21611	-38.92173	45.89209
-36.2151	-44.8619	45.9019
-36.214	-46.685	45.9116
-36.213	-43.9249	45.9214
-36.2123	-41.4692	45.9312
-36.2107	-40.5559	45.9409
-36.2113	-40.2285	45.9507
-36.2109	-39.6516	45.9604
-36.2097	-44.8598	45.9702
-36.2084	-44.3648	45.97998
-36.2078	-46.077	45.9897
-36.2071	-40.9424	45.9995
-36.206	-36.7036	46.0093
-36.2059	-42.1486	46.019
-36.2043	-41.9134	46.0288
-36.20335	-43.7491	46.0386
-36.2027	-43.967	46.04834
-36.2004	-42.4855	46.0581
-36.20002	-43.029	46.0679
-36.2004	-37.8144	46.0776
-36.1993	-39.8528	46.0874
-36.1988	-43.1888	46.0972
-36.1978	-46.6135	46.1069
-36.1974	-46.51646	46.1167
-36.19495	-39.81398	46.1265
-36.1952	-41.8178	46.13623
-36.195	-39.7965	46.146
-36.1939	-42.1187	46.1558
-36.1936	-45.2692	46.1655
-36.1923	-44.57893	46.1753
-36.1908	-43.9846	46.1851
-36.1908	-40.8266	46.1948
-36.18866	-36.09409	46.20459
-36.1892	-40.8587	46.2144
-36.1876	-45.1581	46.2241
-36.1864	-47.3168	46.2339
-36.18615	-43.8308	46.2437
-36.1852	-40.0445	46.2534
-36.1845	-39.4644	46.2632
-36.1834	-39.9806	46.2729
-36.1827	-42.7888	46.2827
-36.1821	-45.9346	46.29248
-36.18111	-46.8167	46.3022
-36.18084	-41.2526	46.312
-36.1795	-36.3458	46.3218
-36.1777	-35.6304	46.3315
-36.17841	-44.3449	46.3413
-36.17738	-47.2985	46.3511
-36.176	-44.9948	46.36084
-36.1751	-41.9405	46.3706
-36.174	-38.0621	46.3804
-36.1743	-39.6268	46.3901
-36.1734	-41.2441	46.3999
-36.1728	-43.7694	46.4097
-36.1714	-49.9559	46.4194
-36.1716	-43.008	46.4292
-36.169	-41.3909	46.439
-36.1697	-37.8498	46.44873
-36.1695	-38.1324	46.4585
-36.167	-45.5115	46.4683
-36.1658	-44.2134	46.478
-36.1662	-42.1966	46.4878
-36.1647	-41.6794	46.4976
-36.1649	-40.49165	46.5073
-36.1636	-42.427	46.51709
-36.1638	-40.80024	46.5269
-36.1623	-44.81	46.5366
-36.162	-45.5913	46.5464
-36.15971	-43.9123	46.5562
-36.159	-39.2441	46.5659
-36.1589	-38.20887	46.5757
-36.1586	-42.6287	46.5854
-36.1554	-45.191	46.5952
-36.1559	-43.066	46.60498
-36.1552	-43.383	46.6147
-36.1556	-43.4994	46.6245
-36.153	-41.5756	46.6343
-36.1524	-43.421	46.644
-36.1522	-41.7933	46.6538
-36.151	-44.6093	46.6636
-36.1513	-47.4585	46.67334
-36.1496	-43.031	46.6831
-36.1481	-39.4855	46.6929
-36.1476	-42.5965	46.7026
-36.146	-40.1104	46.7124
-36.14711	-45.6963	46.7222
-36.1461	-43.4683	46.7319
-36.14558	-43.8586	46.7417
-36.1432	-43.6777	46.7515
-36.1431	-40.8477	46.76123
-36.1419	-37.9356	46.771
-36.14027	-41.4363	46.7808
-36.1403	-46.0568	46.7905
-36.1401	-45.9186	46.8003
-36.1385	-41.2081	46.8101
-36.1375	-41.459	46.8198
-36.1373	-39.6054	46.82959
-36.1362	-40.9589	46.8394
-36.1356	-44.5631	46.8491
-36.1349	-43.0908	46.8589
-36.1343	-46.3739	46.8687
-36.133	-43.2536	46.8784