File: data/processed_data_files/tensile/0.254_solid_uprint_typei_090_r(6).dat
MTS793|BTW|ENU|1|2|.|/|:|1|0|0|A

Data Header:			0.254_solid_uprint_typei_090_r0			Time:	20.0276	s	4/15/2019 3:01:16 PM
Data Acquisition:	Timed
Station Name:	ft40.cfg
Test File Name:	monotonic_0.2540_typei_solid_090_uprint.tst
Displacement	Force	Running Time
mm	N	s
9.980979	-119.229	0.0322266
9.98026	-123.675	0.0517578
9.98203	-132.967	0.0712891
9.98261	-122.02	0.0908203
9.98458	-119.508	0.110352
9.985692	-122.938	0.129883
9.987319	-120.05	0.149414
9.9896	-115.441	0.168945
9.99051	-121.933	0.188477
9.99341	-117.199	0.208008
9.99476	-111.118	0.227539
9.99608	-114.579	0.24707
9.99731	-115.6405	0.266602
9.999836	-107.63	0.286133
10.00096	-110.822	0.305664
10.0024	-113.272	0.325195
10.0041	-106.47	0.344727
10.006	-105.959	0.364258
10.0078	-109.39	0.383789
10.0086	-105.695	0.40332
10.0111	-100.905	0.422852
10.0125	-106.913	0.442383
10.0151	-100.651	0.461914
10.0153	-96.07769	0.481445
10.0173	-100.558	0.500977
10.0176	-104.655	0.520508
10.0216	-91.7194	0.540039
10.0222	-96.6508	0.55957
10.0238	-98.3016	0.579102
10.0248	-90.1352	0.598633
10.0279	-90.0472	0.618164
10.0284	-97.7603	0.637695
10.0295	-85.97699	0.657227
10.03238	-88.8378	0.676758
10.0328	-93.2499	0.696289
10.035	-85.5884	0.71582
10.0364	-79.2966	0.735352
10.0378	-91.6204	0.754883
10.0389	-84.6503	0.774414
10.0425	-78.8914	0.793945
10.0441	-83.97377	0.813477
10.0446	-82.7678	0.833008
10.0467	-74.2817	0.852539
10.0481	-82.8595	0.87207
10.0492	-80.3536	0.891602
10.0515	-72.5612	0.911133
10.0532	-73.6462	0.930664
10.055	-79.3604	0.950195
10.05641	-71.2941	0.969727
10.0568	-69.5555	0.989258
10.05999	-74.7839	1.00879
10.0613	-69.153	1.02832
10.0627	-65.9204	1.04785
10.065	-69.7843	1.06738
10.0657	-67.7987	1.08691
10.0675	-61.3718	1.10645
10.0698	-67.5668	1.12598
10.0717	-64.7222	1.14551
10.0733	-56.1212	1.16504
10.0748	-57.7335	1.18457
10.0759	-65.6442	1.2041
10.07767	-54.5095	1.22363
10.0792	-57.0499	1.24316
10.08082	-59.3479	1.2627
10.0825	-51.8031	1.28223
10.0841	-49.8793	1.30176
10.08522	-60.48975	1.32129
10.0873	-48.3755	1.34082
10.0887	-46.4585	1.36035
10.09025	-52.3124	1.37988
10.0928	-50.0476	1.39941
10.0941	-41.505	1.41895
10.0951	-50.094	1.43848
10.0967	-46.8902	1.45801
10.0982	-40.8736	1.47754
10.1008	-43.4005	1.49707
10.1022	-45.9877	1.5166
10.1041	-37.4154	1.53613
10.1056	-40.5249	1.55566
10.1072	-43.3618	1.5752
10.1082	-36.9438	1.59473
10.1098	-31.009	1.61426
10.1103	-37.868	1.63379
10.1124	-34.80286	1.65332
10.1142	-31.2898	1.67285
10.1165	-35.4781	1.69238
10.1182	-32.1108	1.71191
10.12024	-25.8214	1.73145
10.1208	-29.4389	1.75098
10.1245	-31.352	1.77051
10.1261	-22.5546	1.79004
10.1266	-24.9293	1.80957
10.1275	-28.229	1.8291
10.1282	-18.3895	1.84863
10.1314	-18.336	1.86816
10.1328	-25.9795	1.8877
10.134	-17.2856	1.90723
10.1363	-17.3908	1.92676
10.1367	-19.5531	1.94629
10.1394	-14.1485	1.96582
10.14075	-8.6437	1.98535
10.1419	-20.61738	2.00488
10.14411	-12.5146	2.02441
10.1459	-6.67613	2.04395
10.1471	-11.1541	2.06348
10.1487	-11.8094	2.08301
10.1504	-2.48974	2.10254
10.1527	-7.73828	2.12207
10.1544	-7.60636	2.1416
10.15617	-1.38192	2.16113
10.157	-1.56287	2.18066
10.1588	-5.58943	2.2002
10.1609	2.66436	2.21973
10.1613	1.43287	2.23926
10.1636	-2.924624	2.25879
10.1655	1.47392	2.27832
10.16699	7.02335	2.29785
10.169	2.96167	2.31738
10.1702	4.53768	2.33691
10.17269	8.08248	2.35645
10.1729	5.21614	2.37598
10.1751	7.17723	2.39551
10.1761	15.54126	2.41504
10.1783	11.5309	2.43457
10.1797	7.37259	2.4541
10.1823	17.15955	2.47363
10.183	17.5593	2.49316
10.18601	12.294	2.5127
10.1871	17.3123	2.53223
10.1879	23.7178	2.55176
10.1886	15.402	2.57129
10.1918	22.1925	2.59082
10.1938	24.3172	2.61035
10.1945	20.5013	2.62988
10.19635	24.1347	2.64941
10.1981	32.7497	2.66895
10.2	22.743	2.68848
10.20093	24.6962	2.70801
10.2025	32.4372	2.72754
10.205	29.6979	2.74707
10.20578	28.6274	2.7666
10.2077	35.9475	2.78613
10.2096	30.5704	2.80566
10.2109	31.2022	2.8252
10.2133	38.5288	2.84473
10.215	39.2936	2.86426
10.2169	32.8333	2.88379
10.2178	40.8586	2.90332
10.2183	43.3498	2.92285
10.2208	38.2982	2.94238
10.22258	40.863	2.96191
10.224	47.2828	2.98145
10.225	44.283	3.00098
10.227	42.9749	3.02051
10.2287	49.7588	3.04004
10.2309	46.7155	3.05957
10.2318	44.5765	3.0791
10.2339	53.6297	3.09863
10.2353	55.0148	3.11816
10.2376	45.577	3.1377
10.239	55.0018	3.15723
10.24047	57.3995	3.17676
10.2418	52.60881	3.19629
10.2431	56.7664	3.21582
10.2451	63.4729	3.23535
10.2469	53.9444	3.25488
10.2471	61.0021	3.27441
10.2499	66.4324	3.29395
10.25187	59.4852	3.31348
10.2532	58.9555	3.33301
10.2546	73.1838	3.35254
10.2562	63.4216	3.37207
10.2584	63.8448	3.3916
10.2597	70.3046	3.41113
10.2621	72.3557	3.43066
10.2627	66.9513	3.4502
10.2641	75.4606	3.46973
10.2667	73.4242	3.48926
10.2686	71.1131	3.50879
10.2696	75.4722	3.52832
10.2714	81.4779	3.54785
10.27199	74.0055	3.56738
10.2742	79.0271	3.58691
10.276	82.6721	3.60645
10.2783	80.8732	3.62598
10.2787	78.6753	3.64551
10.281	87.334	3.66504
10.28251	83.4602	3.68457
10.2842	81.9381	3.7041
10.2854	90.1051	3.72363
10.2876	89.19973	3.74316
10.2884	84.3004	3.7627
10.2904	91.94136	3.78223
10.2919	98.079	3.80176
10.2939	87.63279	3.82129
10.2959	92.397	3.84082
10.2962	99.1801	3.86035
10.2994	93.0993	3.87988
10.3009	95.9902	3.89941
10.3027	105.1433	3.91895
10.3041	95.2839	3.93848
10.3053	98.34761	3.95801
10.3069	107.289	3.97754
10.3089	103.1498	3.99707
10.3101	97.9324	4.0166
10.3119	110.225	4.03613
10.3153	105.463	4.05566
10.3149	103.993	4.0752
10.3168	108.524	4.09473
10.3183	112.891	4.11426
10.3199	107.235	4.13379
10.3209	115.753	4.15332
10.324	113.224	4.17285
10.3253	110.047	4.19238
10.3262	112.35	4.21191
10.3279	121.231	4.23145
10.33009	116.728	4.25098
10.332	115.0835	4.27051
10.3327	120.4365	4.29004
10.3347	120.869	4.30957
10.336	117.272	4.3291
10.3384	126.469	4.34863
10.3393	124.715	4.36816
10.3413	120.205	4.3877
10.3427	127.675	4.40723
10.3442	131.365	4.42676
10.3467	122.841	4.44629
10.348	129.774	4.46582
10.3497	136.276	4.48535
10.3507	128.334	4.50488
10.35294	129.814	4.52441
10.3547	137.544	4.54395
10.3562	132.247	4.56348
10.3574	133.764	4.58301
10.35899	143.397	4.60254
10.3596	136.166	4.62207
10.3629	134.068	4.6416
10.3637	144.742	4.66113
10.3662	145.05	4.68066
10.367	137.741	4.7002
10.3688	148.742	4.71973
10.3709	146.0237	4.73926
10.3722	144.664	4.75879
10.3739	147.792	4.77832
10.3747	154.082	4.79785
10.3775	145.981	4.81738
10.3792	150.987	4.83691
10.3801	155.96	4.85645
10.38161	151.674	4.87598
10.3838	146.855	4.89551
10.3851	156.542	4.91504
10.3865	155.0773	4.93457
10.3881	150.8425	4.9541
10.3901	155.668	4.97363
10.3928	158.186	4.99316
10.3935	151.473	5.0127
10.39508	161.3728	5.03223
10.3968	163.202	5.05176
10.3976	155.083	5.07129
10.3992	159.527	5.09082
10.4012	168.93	5.11035
10.4033	159.627	5.12988
10.4047	161.16	5.14941
10.4057	171.159	5.16895
10.4069	164.688	5.18848
10.4097	164.608	5.20801
10.4112	172.505	5.22754
10.4124	168.778	5.24707
10.4149	167.245	5.2666
10.4161	179.27	5.28613
10.41839	173.919	5.30566
10.4197	169.471	5.3252
10.4207	178.2097	5.34473
10.4237	181.021	5.36426
10.4244	174.107	5.38379
10.4251	181.621	5.40332
10.4271	182.92	5.42285
10.4289	178.615	5.44238
10.4313	181.821	5.46191
10.4306	189.797	5.48145
10.4342	182.464	5.50098
10.4356	184.157	5.52051
10.4365	190.023	5.54004
10.4399	190.059	5.55957
10.4404	183.382	5.5791
10.4426	193.647	5.59863
10.4443	194.676	5.61816
10.4447	189.26	5.6377
10.4477	195.498	5.65723
10.4484	199.08	5.67676
10.4493	190.018	5.69629
10.4525	199.156	5.71582
10.4541	204.014	5.73535
10.4555	196.813	5.75488
10.4567	196.602	5.77441
10.4591	208.43	5.79395
10.4599	200.734	5.81348
10.4613	200.0666	5.83301
10.4636	209.921	5.85254
10.46601	204.84	5.87207
10.4667	203.975	5.8916
10.4682	213.376	5.91113
10.4697	210.989	5.93066
10.4702	202.908	5.9502
10.4731	216.673	5.96973
10.474	215.339	5.98926
10.4762	209.439	6.00879
10.47869	214.195	6.02832
10.4796	222.935	6.04785
10.4806	215.429	6.06738
10.4823	221.478	6.08691
10.484	223.185	6.10645
10.4863	218.384	6.12598
10.4882	217.719	6.14551
10.4898	229.585	6.16504
10.4908	224.767	6.18457
10.492	221.075	6.2041
10.4938	227.914	6.22363
10.4957	232.12	6.24316
10.4984	223.706	6.2627
10.4989	231.512	6.28223
10.5005	234.495	6.30176
10.5018	230.267	6.32129
10.50411	231.748	6.34082
10.5061	240.166	6.36035
10.5068	230.019	6.37988
10.5095	236.247	6.39941
10.5097	244.208	6.41895
10.512	236.033	6.43848
10.514	234.442	6.45801
10.51463	245.639	6.47754
10.5163	241.57	6.49707
10.5178	239.963	6.5166
10.5197	249.786	6.53613
10.5208	245.226	6.55566
10.5241	239.1671	6.5752
10.5245	250.369	6.59473
10.5261	252.533	6.61426
10.529	244.3392	6.63379
10.5294	253.553	6.65332
10.532	253.8344	6.67285
10.5335	248.907	6.69238
10.535	253.618	6.71191
10.5374	261.111	6.73145
10.5382	254.347	6.75098
10.5397	256.812	6.77051
10.5412	261.839	6.79004
10.5432	259.211	6.80957
10.5444	256.078	6.8291
10.5461	267.676	6.84863
10.54894	266.0097	6.86816
10.5491	261.488	6.8877
10.5513	264.787	6.90723
10.55337	271.115	6.92676
10.5545	262.379	6.94629
10.5555	270.5365	6.96582
10.5586	275.846	6.98535
10.5603	268.954	7.00488
10.5606	267.792	7.02441
10.5621	282.297	7.04395
10.56435	271.1991	7.06348
10.565	273.226	7.08301
10.5668	282.312	7.10254
10.5683	279.658	7.12207
10.57	271.773	7.1416
10.5721	284.15	7.16113
10.57404	280.068	7.18066
10.5745	276.983	7.2002
10.5773	288.586	7.21973
10.57859	287.63	7.23926
10.5799	278.665	7.25879
10.5822	288.035	7.27832
10.5843	293.688	7.29785
10.5854	285.434	7.31738
10.5879	289.468	7.33691
10.5893	294.626	7.35645
10.5903	290.083	7.37598
10.592	290.818	7.39551
10.5942	299.06	7.41504
10.59629	293.937	7.43457
10.5965	295.026	7.4541
10.5985	299.251	7.47363
10.59957	300.9129	7.49316
10.6009	293.304	7.5127
10.604	301.84	7.53223
10.6041	306.732	7.55176
10.606	300.568	7.57129
10.60826	302.205	7.59082
10.6096	309.443	7.61035
10.612	302.147	7.62988
10.6136	309.299	7.64941
10.6142	316.779	7.66895
10.6166	309.1705	7.68848
10.6187	303.619	7.70801
10.6191	318.532	7.72754
10.6208	311.738	7.74707
10.6221	308.671	7.7666
10.6248	318.429	7.78613
10.6259	319.318	7.80566
10.6279	310.622	7.8252
10.6286	322.987	7.84473
10.631	322.393	7.86426
10.6334	315.875	7.88379
10.6322	322.7164	7.90332
10.6361	327.974	7.92285
10.638	316.5574	7.94238
10.638	322.989	7.96191
10.6403	330.543	7.98145
10.6419	324.595	8.00098
10.6438	327.276	8.02051
10.6455	331.633	8.04004
10.6473	328.152	8.05957
10.6491	326.437	8.0791
10.6499	336.631	8.09863
10.6522	334.715	8.11816
10.65436	330.463	8.1377
10.655	337.327	8.15723
10.6563	341.72	8.17676
10.6575	333.6225	8.19629
10.66	339.05	8.21582
10.6619	344.382	8.23535
10.6629	339.813	8.25488
10.6651	336.463	8.27441
10.667	348.354	8.29395
10.6682	339.336	8.31348
10.6708	343.364	8.33301
10.6709	352.795	8.35254
10.6733	349.292	8.37207
10.6738	339.755	8.3916
10.676	355.34	8.41113
10.6774	351.822	8.43066
10.6793	349.3819	8.4502
10.6802	355.545	8.46973
10.6827	358.657	8.48926
10.6859	347.954	8.50879
10.6859	357.9176	8.52832
10.6869	360.764	8.54785
10.6899	353.65	8.56738
10.6913	359.609	8.58691
10.6923	366.402	8.60645
10.6945	357.277	8.62598
10.6956	359.822	8.64551
10.6971	368.129	8.66504
10.6996	363.92	8.68457
10.7002	364.18	8.7041
10.7025	369.665	8.72363
10.704	368.228	8.74316
10.7058	363.495	8.7627
10.708	373.496	8.78223
10.7077	373.947	8.80176
10.71015	368.147	8.82129
10.7112	371.764	8.84082
10.71425	379.25	8.86035
10.715	370.957	8.87988
10.7169	375.564	8.89941
10.7182	381.747	8.91895
10.7209	377.249	8.93848
10.7222	373.4635	8.95801
10.723	388.242	8.97754
10.7256	381.329	8.99707
10.72746	377.804	9.0166
10.7272	387.574	9.03613
10.73029	390.056	9.05566
10.7313	378.902	9.0752
10.7323	390.764	9.09473
10.7341	391.409	9.11426
10.7357	385.612	9.13379
10.7372	393.18	9.15332
10.73899	397.285	9.17285
10.7406	384.879	9.19238
10.7431	393.335	9.21191
10.7451	401.486	9.23145
10.7466	393.411	9.25098
10.7492	393.7157	9.27051
10.74995	403.064	9.29004
10.7508	398.096	9.30957
10.7513	397.826	9.3291
10.7543	405.8699	9.34863
10.7559	405.0553	9.36816
10.7575	399.791	9.3877
10.7608	408.362	9.40723
10.7595	408.532	9.42676
10.7626	401.2124	9.44629
10.7644	408.702	9.46582
10.7659	413.418	9.48535
10.76745	407.864	9.50488
10.7694	407.2189	9.52441
10.7706	417.9079	9.54395
10.7725	410.03	9.56348
10.7747	412.779	9.58301
10.7764	422.6788	9.60254
10.7773	417.9989	9.62207
10.7784	409.349	9.6416
10.7796	425.869	9.66113
10.7815	421.645	9.68066
10.7834	417.607	9.7002
10.7848	425.652	9.71973
10.7876	430.069	9.73926
10.78907	416.776	9.75879
10.79	427.603	9.77832
10.7914	430.775	9.79785
10.7933	423.935	9.81738
10.7955	429.047	9.83691
10.7971	437.302	9.85645
10.79846	424.987	9.87598
10.8009	428.471	9.89551
10.8023	437.907	9.91504
10.8023	435.988	9.93457
10.8042	431.082	9.9541
10.8071	441.018	9.97363
10.8079	436.381	9.99316
10.8099	434.3996	10.0127
10.8105	441.843	10.0322
10.8124	444.989	10.0518
10.8141	436.795	10.0713
10.8166	443.806	10.09082
10.8184	447.802	10.1104
10.8187	441.454	10.1299
10.8215	444.878	10.1494
10.8229	452.489	10.1689
10.8246	446.764	10.1885
10.8261	445.069	10.208
10.8278	456.003	10.2275
10.8298	450.628	10.24707
10.83163	447.529	10.2666
10.8325	457.889	10.2861
10.8342	456.585	10.3057
10.8365	445.727	10.3252
10.8375	459.621	10.3447
10.8391	462.958	10.3643
10.841	455.497	10.3838
10.8418	460.25	10.40332
10.84447	467.06	10.4229
10.845	453.915	10.4424
10.8472	464.067	10.4619
10.8488	468.28	10.4814
10.8512	462.176	10.501
10.8524	462.261	10.5205
10.8535	475.634	10.54
10.8549	466.177	10.55957
10.8568	465.224	10.5791
10.8591	473.694	10.5986
10.8598	473.844	10.6182
10.8616	468.783	10.6377
10.864	475.4946	10.6572
10.8656	473.53	10.6768
10.8662	469.219	10.6963
10.868	476.493	10.71582
10.8702	482.724	10.7354
10.8717	475.148	10.7549
10.87338	476.841	10.7744
10.8758	486.398	10.7939
10.8767	480.026	10.8135
10.8788	478.76	10.833
10.8801	488.5672	10.8525
10.882	484.73	10.87207
10.883	480.879	10.8916
10.8836	491.134	10.9111
10.8853	488.865	10.9307
10.8881	483.332	10.9502
10.8889	492.64	10.9697
10.8914	496.828	10.9893
10.8933	484.382	11.0088
10.89468	492.634	11.02832
10.8966	498.346	11.0479
10.898	492.263	11.0674
10.8993	494.913	11.0869
10.901	503.849	11.1064
10.9029	491.894	11.126
10.90354	498.857	11.1455
10.9062	505.439	11.165
10.9072	501.4335	11.18457
10.9095	497.294	11.2041
10.9111	509.371	11.2236
10.91245	504.63	11.2432
10.9142	500.997	11.2627
10.91533	507.337	11.2822
10.9169	511.888	11.3018
10.9188	504.5675	11.3213
10.9201	511.771	11.34082
10.9222	512.369	11.3604
10.9241	506.9834	11.3799
10.9246	512.421	11.3994
10.92606	520.921	11.4189
10.9285	513.784	11.4385
10.93	512.225	11.458
10.9319	519.013	11.4775
10.93327	518.87	11.49707
10.9352	514.081	11.5166
10.9361	524.119	11.5361
10.9379	524.631	11.5557
10.9395	514.494	11.5752
10.9421	526.923	11.5947
10.9441	528.889	11.6143
10.9449	520.262	11.6338
10.9465	526.282	11.65332
10.94903	534.828	11.6729
10.9492	522.002	11.6924
10.9514	528.255	11.7119
10.9533	535.5451	11.7314
10.9546	530.386	11.751
10.9568	531.14	11.7705
10.95742	540.887	11.79
10.9589	530.707	11.80957
10.9605	533.859	11.8291
10.96273	541.007	11.8486
10.9641	542.331	11.8682
10.96584	532.368	11.8877
10.9671	543.365	11.9072
10.969	541.308	11.9268
10.97	539.855	11.9463
10.973	542.103	11.96582
10.97458	549.816	11.9854
10.9747	540.198	12.0049
10.9777	544.471	12.0244
10.9791	551.068	12.0439
10.9802	546.649	12.0635
10.9814	544.828	12.083
10.9837	556.675	12.1025
10.986	552.715	12.12207
10.987	546.676	12.1416
10.9888	555.101	12.1611
10.9907	555.653	12.1807
10.9924	550.009	12.2002
10.99437	559.575	12.2197
10.9953	561.6347	12.2393
10.9964	548.382	12.2588
10.999	557.237	12.27832
10.9999	565.319	12.2979
11.0018	556.575	12.3174
11.0033	558.643	12.3369
11.0048	570.24	12.3564
11.00655	559.523	12.376
11.0087	560.416	12.3955
11.0096	570.2807	12.415
11.0122	565.403	12.43457
11.0132	564.129	12.4541
11.0146	575.992	12.4736
11.017	568.2077	12.4932
11.0182	565.143	12.5127
11.0194	573.061	12.5322
11.02175	577.394	12.5518
11.0226	568.263	12.5713
11.02495	575.216	12.59082
11.02667	576.338	12.6104
11.0281	574.771	12.6299
11.0286	576.974	12.6494
11.0315	585.278	12.6689
11.0332	576.884	12.6885
11.0342	578.187	12.708
11.0348	584.636	12.7275
11.03737	583.432	12.74707
11.0392	576.572	12.7666
11.0409	588.276	12.7861
11.0429	588.399	12.8057
11.0447	581.861	12.8252
11.0461	589.1709	12.8447
11.04641	593.37	12.8643
11.0492	584.151	12.8838
11.0505	592.113	12.90332
11.0525	597.466	12.9229
11.0544	585.545	12.9424
11.0557	590.383	12.9619
11.0579	599.802	12.9814
11.0594	593.964	13.001
11.0603	592.06	13.0205
11.0614	604.135	13.04
11.0649	595.627	13.05957
11.0655	594.863	13.0791
11.0668	604.491	13.0986
11.0684	602.04	13.1182
11.0703	594.252	13.1377
11.0721	608.887	13.1572
11.0732	606.858	13.1768
11.0758	601.902	13.1963
11.0764	605.209	13.21582
11.0779	613.174	13.2354
11.0797	604.908	13.2549
11.0812	609.55	13.2744
11.0832	612.317	13.2939
11.0851	610.244	13.3135
11.0866	608.652	13.333
11.0878	620.058	13.3525
11.0901	613.161	13.37207
11.0912	611.421	13.3916
11.0932	618.416	13.4111
11.0949	620.75	13.4307
11.0965	611.344	13.4502
11.098	621.167	13.4697
11.099	625.715	13.4893
11.1015	615.784	13.5088
11.10335	621.309	13.52832
11.1041	629.429	13.5479
11.10655	618.292	13.5674
11.1077	623.746	13.5869
11.1093	634.782	13.6064
11.1107	624.5965	13.626
11.1119	621.739	13.6455
11.1152	635.123	13.665
11.1168	630.221	13.68457
11.1175	626.5437	13.7041
11.11894	639.119	13.7236
11.1207	632.783	13.7432
11.1218	628.975	13.7627
11.1249	639.345	13.7822
11.1252	641.023	13.8018
11.1253	631.188	13.8213
11.12858	639.559	13.84082
11.1305	642.146	13.8604
11.1319	637.377	13.8799
11.13306	639.214	13.8994
11.1346	647.483	13.9189
11.1366	640.519	13.9385
11.1388	641.349	13.958
11.13939	648.005	13.9775
11.1416	645.338	13.99707
11.1441	640.296	14.0166
11.1449	652.988	14.0361
11.1469	651.943	14.0557
11.1478	645.117	14.0752
11.1493	650.034	14.0947
11.1517	655.9267	14.1143
11.1536	646.249	14.1338
11.1538	654.104	14.15332
11.1562	659.201	14.1729
11.15739	651.353	14.1924
11.1584	652.886	14.2119
11.1615	664.478	14.2314
11.1633	654.936	14.251
11.1655	656.709	14.2705
11.1656	665.497	14.29
11.1682	660.078	14.30957
11.17	654.734	14.3291
11.1704	668.39	14.3486
11.1723	664.322	14.3682
11.1751	659.233	14.3877
11.175	670.755	14.4072
11.1781	669.12	14.4268
11.1795	660.054	14.4463
11.1804	669.848	14.46582
11.1818	676.392	14.4854
11.1839	665.177	14.5049
11.1854	672.2052	14.5244
11.18722	674.072	14.5439
11.1883	670.925	14.5635
11.1901	670.068	14.583
11.1937	680.801	14.6025
11.1942	676.754	14.62207
11.1959	672.485	14.6416
11.1965	680.46	14.6611
11.1993	682.525	14.6807
11.2003	671.232	14.7002
11.20231	683.989	14.7197
11.2034	686.991	14.7393
11.2045	679.018	14.7588
11.2067	681.936	14.77832
11.2088	692.428	14.7979
11.2098	680.1261	14.8174
11.2123	686.097	14.8369
11.2134	694.051	14.8564
11.21549	685.399	14.876
11.2169	682.535	14.8955
11.218	697.701	14.915
11.2189	690.056	14.93457
11.2216	687.335	14.9541
11.2229	697.814	14.9736
11.22397	692.895	14.9932
11.2264	687.985	15.0127
11.2279	699.486	15.0322
11.2301	700.377	15.0518
11.2308	691.297	15.0713
11.2326	701.133	15.09082
11.2342	705.475	15.1104
11.2365	694.493	15.1299
11.2376	697.785	15.1494
11.2395	708.63	15.1689
11.2404	701.772	15.1885
11.2421	703.7937	15.208
11.2443	708.258	15.2275
11.2464	704.764	15.24707
11.2485	701.689	15.2666
11.249	713.4447	15.2861
11.2506	710.623	15.3057
11.2522	705.8147	15.3252
11.2551	711.341	15.3447
11.2558	716.712	15.3643
11.2571	705.728	15.3838
11.2593	714.751	15.40332
11.2611	719.461	15.4229
11.2622	711.8526	15.4424
11.26441	711.501	15.4619
11.26529	724.784	15.4814
11.2669	713.144	15.501
11.2695	715.147	15.5205
11.2708	727.449	15.54
11.2709	722.453	15.55957
11.273	713.722	15.5791
11.2745	729.375	15.5986
11.277	725.264	15.6182
11.2784	720.321	15.6377
11.2803	729.432	15.6572
11.2826	728.057	15.6768
11.2837	722.083	15.6963
11.285	730.064	15.71582
11.28612	732.564	15.7354
11.288	724.186	15.7549
11.2899	729.238	15.7744
11.2921	736.69	15.7939
11.2931	728.681	15.8135
11.2945	729.8949	15.833
11.2958	738.985	15.8525
11.2987	734.677	15.87207
11.2989	733.507	15.8916
11.3016	741.758	15.9111
11.303	738.349	15.9307
11.30427	731.739	15.9502
11.3065	745.539	15.9697
11.3077	747.134	15.9893
11.31008	737.846	16.0088
11.3107	739.186	16.02832
11.3125	750.036	16.0479
11.3141	741.315	16.0674
11.3162	746.64	16.0869
11.3176	752.132	16.1064
11.3191	745.154	16.126
11.3218	742.648	16.1455
11.3233	756.3869	16.165
11.3241	748.498	16.18457
11.3262	746.242	16.2041
11.3284	756.464	16.2236
11.3291	755.829	16.2432
11.3312	745.7	16.2627
11.3311	758.569	16.2822
11.334	757.835	16.3018
11.33577	751.073	16.3213
11.3382	759.834	16.34082
11.33804	762.989	16.3604
11.3411	751.145	16.3799
11.3427	759.461	16.3994
11.3426	766.763	16.4189
11.3443	759.138	16.4385
11.34691	760.756	16.458
11.3489	768.142	16.4775
11.3509	762.697	16.49707
11.3522	761.487	16.5166
11.3534	769.036	16.5361
11.3547	764.916	16.5557
11.356	762.934	16.5752
11.3576	770.6778	16.5947
11.3596	771.725	16.6143
11.3619	762.825	16.6338
11.36375	771.82	16.65332
11.3649	775.861	16.6729
11.3665	769.592	16.6924
11.3675	768.769	16.7119
11.3698	780.615	16.7314
11.3708	770.618	16.751
11.37332	774.524	16.7705
11.3739	784.554	16.79
11.3754	779.819	16.80957
11.3785	771.339	16.8291
11.3795	786.008	16.8486
11.3811	783.015	16.8682
11.3826	775.6839	16.8877
11.385	786.114	16.9072
11.3851	789.121	16.9268
11.3867	775.9	16.9463
11.3885	787.723	16.96582
11.3914	789.808	16.9854
11.3925	782.584	17.0049
11.3941	787.092	17.0244
11.3954	796.134	17.0439
11.3969	782.91	17.0635
11.3982	786.353	17.083
11.4002	795.685	17.1025
11.4022	790.7038	17.12207
11.4032	788.853	17.1416
11.405	797.3512	17.1611
11.4073	792.649	17.1807
11.4095	791.053	17.2002
11.4099	801.226	17.2197
11.4112	800.354	17.2393
11.4145	791.989	17.2588
11.4146	797.609	17.27832
11.4172	804.258	17.2979
11.4175	796.225	17.3174
11.4208	799.554	17.3369
11.4223	806.627	17.3564
11.423	801.083	17.376
11.4244	800.188	17.3955
11.426	810.6225	17.415
11.4277	803.93	17.43457
11.4296	801.043	17.4541
11.4319	812.136	17.4736
11.4326	811.509	17.4932
11.4353	799.964	17.5127
11.4358	812.792	17.5322
11.4381	813.321	17.5518
11.4379	807.028	17.5713
11.4405	814.521	17.59082
11.4434	818.765	17.6104
11.4447	806.76	17.6299
11.44625	816.049	17.6494
11.4481	820.187	17.6689
11.4499	813.052	17.6885
11.4512	813.656	17.708
11.4531	825.231	17.7275
11.4543	815.413	17.74707
11.4566	815.351	17.7666
11.4577	823.417	17.7861
11.4587	823.166	17.8057
11.4614	817.673	17.8252
11.4629	824.9444	17.8447
11.46347	823.599	17.8643
11.4666	818.925	17.8838
11.4675	827.2915	17.90332
11.4687	829.6814	17.9229
11.4704	823.437	17.9424
11.4725	824.502	17.9619
11.4737	831.932	17.9814
11.4753	827.5412	18.001
11.4766	828.612	18.0205
11.4793	834.33	18.04
11.4811	831.307	18.05957
11.4815	826.161	18.0791
11.4825	838.488	18.0986
11.4849	835.548	18.1182
11.4866	827.7901	18.1377
11.48866	837.868	18.1572
11.4902	841.551	18.1768
11.4923	829.351	18.1963
11.49361	838.679	18.21582
11.4955	841.054	18.2354
11.4975	835.983	18.2549
11.4973	840.483	18.2744
11.4996	848.272	18.2939
11.5007	835.5321	18.3135
11.5029	840.937	18.333
11.505	848.495	18.3525
11.5053	843.951	18.37207
11.5087	840.662	18.3916
11.5102	850.7619	18.4111
11.5102	845.422	18.4307
11.514	843.655	18.4502
11.51476	850.704	18.4697
11.5164	852.39	18.4893
11.5183	845.994	18.5088
11.5194	853.864	18.52832
11.5204	853.581	18.5479
11.5234	847.918	18.5674
11.5237	849.7915	18.5869
11.5251	857.871	18.6064
11.5275	852.754	18.626
11.5294	852.103	18.6455
11.5309	859.233	18.665
11.5329	856.38	18.68457
11.5349	854.247	18.7041
11.5356	863.211	18.7236
11.5379	860.8	18.7432
11.5393	853.587	18.7627
11.54	864.728	18.7822
11.5432	866.088	18.8018
11.5435	857.68	18.8213
11.5455	863.087	18.84082
11.5474	868.852	18.8604
11.5482	858.0957	18.8799
11.5496	865.05	18.8994
11.55202	869.122	18.9189
11.5539	863.497	18.9385
11.5545	864.305	18.958
11.5575	874.568	18.9775
11.5594	866.47	18.99707
11.5594	864.7475	19.0166
11.5615	873.9472	19.0361
11.5634	873.549	19.0557
11.5658	865.885	19.0752
11.5656	875.925	19.0947
11.5684	874.66	19.1143
11.5697	871.377	19.1338
11.5717	876.036	19.15332
11.5729	880.821	19.1729
11.5743	873.472	19.1924
11.5766	875.771	19.2119
11.5782	880.8	19.2314
11.581	877.985	19.251
11.5813	874.113	19.2705
11.5827	884.556	19.29
11.58447	881.788	19.30957
11.586	877.204	19.3291
11.5873	882.702	19.3486
11.5887	884.496	19.3682
11.591	876.876	19.3877
11.59371	887.112	19.4072
11.5941	888.784	19.4268
11.5959	878.373	19.4463
11.5979	885.292	19.46582
11.5985	891.999	19.4854
11.6016	884.289	19.5049
11.603	887.812	19.5244
11.6039	894.308	19.5439
11.6068	886.0072	19.5635
11.6066	887.764	19.583
11.609	896.065	19.6025
11.61062	891.182	19.62207
11.6121	888.789	19.6416
11.6134	899.637	19.6611
11.616	893.562	19.6807
11.61722	891.466	19.7002
11.6188	895.992	19.7197
11.6195	900.52	19.7393
11.6222	892.6	19.7588
11.6226	901.78	19.77832
11.6243	899.743	19.7979
11.6269	893.3006	19.8174
11.6288	897.152	19.8369
11.6304	907.846	19.8564
11.6318	899.109	19.876
11.6329	897.702	19.8955
11.6347	902.4718	19.915
11.6369	904.898	19.93457
11.6381	898.973	19.9541
11.6405	908.563	19.9736
11.6412	906.062	19.9932
11.6425	900.399	20.0127
11.6434	903.114	20.0225

Data Header:			0.254_solid_uprint_typei_090_r0			Time:	30.22583	s	4/15/2019 3:01:27 PM
Data Acquisition:	Timed
Station Name:	ft40.cfg
Test File Name:	monotonic_0.2540_typei_solid_090_uprint.tst
Displacement	Force	Running Time
mm	N	s
11.64509	906.859	20.0322
11.6453	911.4743	20.042
11.646	910.624	20.0518
11.6475	907.127	20.0615
11.6479	901.427	20.0713
11.6485	901.851	20.0811
11.6507	907.449	20.09082
11.6508	913.751	20.1006
11.6518	915.5733	20.1104
11.6514	907.577	20.1201
11.6535	904.918	20.1299
11.654	904.023	20.1396
11.6549	905.475	20.1494
11.6544	913.968	20.15918
11.656	913.922	20.1689
11.6572	913.95	20.1787
11.65818	908.277	20.1885
11.6593	901.045	20.1982
11.66	908.4	20.208
11.6601	915.375	20.2178
11.66171	918.5141	20.2275
11.663	914.954	20.2373
11.662	908.449	20.24707
11.663	909.029	20.2568
11.6648	908.248	20.2666
11.6651	912.813	20.2764
11.6663	919.367	20.2861
11.6674	919.795	20.2959
11.6678	917.2876	20.3057
11.6679	909.501	20.31543
11.6691	907.154	20.3252
11.6698	914.5639	20.335
11.6706	920.224	20.3447
11.6715	920.39	20.3545
11.6729	917.752	20.3643
11.673	914.783	20.374
11.6742	912.94	20.3838
11.6749	914.1178	20.3936
11.6757	916.9646	20.40332
11.6766	922.086	20.4131
11.6774	922.991	20.4229
11.6781	917.093	20.4326
11.6792	915.274	20.4424
11.6798	915.168	20.4521
11.68099	919.19	20.4619
11.682	921.783	20.47168
11.6832	922.13	20.4814
11.6821	922.312	20.4912
11.6839	919.052	20.501
11.6854	918.236	20.5107
11.68566	917.83	20.5205
11.6858	921.696	20.5303
11.6879	929.126	20.54
11.6881	923.596	20.5498
11.6898	924.278	20.55957
11.6891	918.474	20.5693
11.6906	918.971	20.5791
11.6911	923.294	20.5889
11.6919	924.911	20.5986
11.6927	929.039	20.6084
11.6926	927.6731	20.6182
11.6948	922.072	20.62793
11.6946	919.549	20.6377
11.6955	920.362	20.6475
11.6958	930.572	20.6572
11.6977	932.545	20.667
11.6984	928.726	20.6768
11.699	926.085	20.6865
11.69951	921.564	20.6963
11.70215	923.542	20.7061
11.70175	926.324	20.71582
11.7025	930.982	20.7256
11.7036	934.824	20.7354
11.7036	930.913	20.7451
11.7053	923.344	20.7549
11.7061	922.364	20.7646
11.7063	927.965	20.7744
11.708	935.64	20.78418
11.7072	936.57	20.7939
11.7096	932.983	20.8037
11.7101	927.388	20.8135
11.7114	925.667	20.8232
11.7116	925.508	20.833
11.7125	933.332	20.8428
11.7132	937.391	20.8525
11.7138	939.658	20.8623
11.7135	931.603	20.87207
11.7157	924.777	20.8818
11.7158	927.144	20.8916
11.7174	933.843	20.9014
11.719	939.746	20.9111
11.71925	935.903	20.9209
11.72009	934.603	20.9307
11.7214	931.415	20.94043
11.7214	926.103	20.9502
11.7218	933.15	20.96
11.7222	936.882	20.9697
11.724	939.982	20.9795
11.7247	939.285	20.9893
11.726	930.318	20.999
11.7258	930.596	21.0088
11.7272	931.672	21.0186
11.7277	937.551	21.02832
11.7286	941.921	21.0381
11.7292	937.471	21.0479
11.7303	938.188	21.0576
11.7316	934.2254	21.0674
11.7325	933.96	21.0771
11.733	935.824	21.0869
11.7335	940.666	21.09668
11.7345	944.886	21.1064
11.7338	940.769	21.1162
11.7364	935.689	21.126
11.7364	934.934	21.1357
11.73726	936.609	21.1455
11.7383	940.005	21.1553
11.7391	942.177	21.165
11.7411	945.017	21.1748
11.74099	940.392	21.18457
11.7415	937.495	21.1943
11.7427	934.454	21.2041
11.7438	940.532	21.2139
11.7432	946.358	21.2236
11.745	945.618	21.2334
11.74535	944.289	21.2432
11.7462	936.988	21.25293
11.7478	939.086	21.2627
11.7478	939.178	21.2725
11.7492	942.745	21.2822
11.7506	948.471	21.292
11.7508	947.743	21.3018
11.751	944.223	21.3115
11.7523	937.694	21.3213
11.7533	937.224	21.3311
11.7544	946.5741	21.34082
11.75465	948.274	21.3506
11.7558	950.278	21.3604
11.7568	945.58	21.3701
11.7568	941.093	21.3799
11.758	941.327	21.3896
11.76	941.335	21.3994
11.7597	950.081	21.40918
11.7607	954.659	21.4189
11.7618	950.931	21.4287
11.7613	945.719	21.4385
11.7635	938.367	21.4482
11.7641	944.225	21.458
11.7644	951.618	21.4678
11.7637	953.226	21.4775
11.76619	952.194	21.4873
11.7664	947.242	21.49707
11.7679	944.602	21.5068
11.7688	942.371	21.5166
11.7679	948.504	21.5264
11.7696	953.128	21.5361
11.7701	956.246	21.5459
11.7718	951.806	21.5557
11.772	944.046	21.56543
11.7736	943.487	21.5752
11.7744	950.092	21.585
11.7743	955.308	21.5947
11.7758	954.6048	21.6045
11.7769	954.47	21.6143
11.7783	950.264	21.624
11.7783	945.239	21.6338
11.7788	948.34	21.6436
11.78	950.788	21.65332
11.781	958.344	21.6631
11.782	955.086	21.6729
11.7814	948.542	21.6826
11.783	946.775	21.6924
11.78412	948.182	21.7021
11.7844	953.683	21.7119
11.785	953.986	21.72168
11.7866	955.082	21.7314
11.7874	956.142	21.7412
11.7877	949.899	21.751
11.7899	947.207	21.7607
11.7899	949.668	21.7705
11.7908	956.069	21.7803
11.7902	960.188	21.79
11.7931	956.4223	21.7998
11.7936	953.304	21.80957
11.7936	951.1925	21.8193
11.7946	949.6767	21.8291
11.7942	954.215	21.8389
11.79584	956.24	21.8486
11.7962	960.424	21.8584
11.7977	959.802	21.8682
11.7986	954.287	21.87793
11.7992	950.594	21.8877
11.801	952.417	21.8975
11.79985	959.181	21.9072
11.80179	962.9469	21.917
11.8032	959.525	21.9268
11.8047	955.959	21.9365
11.8041	954.475	21.9463
11.805	951.406	21.9561
11.8071	957.541	21.96582
11.8069	963.104	21.9756
11.8085	962.969	21.9854
11.8082	962.1604	21.9951
11.809	952.632	22.0049
11.8099	951.995	22.0146
11.8106	958.201	22.0244
11.8124	961.397	22.03418
11.8126	965.8775	22.0439
11.8136	961.123	22.0537
11.8147	957.888	22.0635
11.8149	954.856	22.0732
11.8146	953.0639	22.083
11.8168	961.7215	22.0928
11.8182	965.818	22.1025
11.8185	966.431	22.1123
11.8191	958.703	22.12207
11.8198	952.2135	22.1318
11.8203	958.314	22.1416
11.8211	962.007	22.1514
11.8213	966.404	22.1611
11.8236	965.699	22.1709
11.824	962.71	22.1807
11.8242	960.304	22.19043
11.8255	956.015	22.2002
11.8265	960.172	22.21
11.8268	967.461	22.2197
11.8278	969.005	22.2295
11.8288	966.247	22.2393
11.8296	958.936	22.249
11.8312	956.708	22.2588
11.8313	961.752	22.2686
11.8319	964.2774	22.27832
11.8319	966.139	22.2881
11.8334	968.543	22.2979
11.8347	963.915	22.3076
11.8358	958.6123	22.3174
11.8355	959.8866	22.3271
11.8371	961.812	22.3369
11.8382	969.858	22.34668
11.8386	968.297	22.3564
11.8384	963.974	22.3662
11.84037	961.754	22.376
11.8409	960.244	22.3857
11.8411	963.5545	22.3955
11.8422	965.723	22.4053
11.844	968.725	22.415
11.8444	968.918	22.4248
11.8455	963.398	22.43457
11.8458	962.132	22.4443
11.8478	960.1488	22.4541
11.8467	966.583	22.4639
11.8473	973.2215	22.4736
11.8485	967.4	22.4834
11.8495	970.018	22.4932
11.8506	964.133	22.50293
11.8516	963.19	22.5127
11.853	964.182	22.5225
11.8537	966.202	22.5322
11.8536	972.185	22.542
11.8548	972.81	22.5518
11.8557	966.806	22.5615
11.8559	962.985	22.5713
11.8579	961.537	22.5811
11.8583	969.217	22.59082
11.8594	970.682	22.6006
11.859	971.641	22.6104
11.86	969.295	22.6201
11.8614	965.391	22.6299
11.8614	963.948	22.6396
11.8617	963.877	22.6494
11.863	970.968	22.65918
11.8649	978.3869	22.6689
11.8652	971.198	22.6787
11.86668	965.0697	22.6885
11.8675	962.969	22.6982
11.8674	965.992	22.708
11.8688	970.513	22.7178
11.8693	976.762	22.7275
11.86991	974.752	22.7373
11.8716	970.881	22.74707
11.8729	964.018	22.7568
11.8718	963.846	22.7666
11.8742	969.626	22.7764
11.87321	975.99	22.7861
11.8749	979.316	22.7959
11.8756	970.995	22.8057
11.8761	965.119	22.81543
11.8761	968.334	22.8252
11.8778	967.798	22.835
11.8784	975.917	22.8447
11.8803	975.594	22.8545
11.8804	974.477	22.8643
11.882	971.088	22.874
11.88295	964.055	22.8838
11.8845	968.09	22.8936
11.8827	974.331	22.90332
11.8858	977.3465	22.9131
11.8863	975.7749	22.9229
11.8861	969.187	22.9326
11.8868	967.34	22.9424
11.8877	966.361	22.9521
11.8887	971.072	22.9619
11.8898	975.849	22.97168
11.8904	976.231	22.9814
11.8911	976.918	22.9912
11.8921	968.11	23.001
11.89241	965.812	23.0107
11.8944	970.145	23.0205
11.8942	974.694	23.0303
11.8952	978.167	23.04
11.8961	973.9884	23.0498
11.8971	970.609	23.05957
11.8973	969.173	23.0693
11.8988	968.963	23.0791
11.8995	970.832	23.0889
11.9002	974.989	23.0986
11.9005	977.219	23.1084
11.9015	973.887	23.1182
11.90263	969.64	23.12793
11.9031	965.942	23.1377
11.9043	971.432	23.1475
11.9051	975.608	23.1572
11.906	975.35	23.167
11.9063	977.445	23.1768
11.9082	970.886	23.1865
11.9084	970.693	23.1963
11.909	968.7074	23.2061
11.9103	972.145	23.21582
11.9112	980.377	23.2256
11.9118	978.458	23.2354
11.9123	975.172	23.2451
11.914	968.886	23.2549
11.9142	966.888	23.2646
11.9141	973.452	23.2744
11.9166	973.333	23.28418
11.9164	979.656	23.2939
11.9175	977.589	23.3037
11.9188	970.902	23.3135
11.9184	968.952	23.3232
11.9194	966.847	23.333
11.9207	975.289	23.3428
11.9228	981.706	23.3525
11.9223	978.632	23.3623
11.9234	974.796	23.37207
11.92394	968.441	23.3818
11.9237	970.0307	23.3916
11.9251	973.907	23.4014
11.9265	978.319	23.4111
11.927	979.013	23.4209
11.9283	978.25	23.4307
11.92881	971.755	23.44043
11.9282	967.298	23.4502
11.9311	971.778	23.46
11.9303	980	23.4697
11.9322	983.263	23.4795
11.9336	978.4425	23.4893
11.9335	972.761	23.499
11.9349	970.589	23.5088
11.9353	970.97	23.5186
11.9362	979.25	23.52832
11.937	978.38	23.5381
11.9379	981.277	23.5479
11.9387	977.073	23.5576
11.939	967.54	23.5674
11.9403	971.417	23.5771
11.9402	973.4126	23.5869
11.9421	981.1001	23.59668
11.9436	979.926	23.6064
11.9436	974.523	23.6162
11.9436	973.121	23.626
11.9451	971.506	23.6357
11.9458	973.076	23.6455
11.9465	978.346	23.6553
11.9461	979.485	23.665
11.9485	984.158	23.6748
11.9489	972.761	23.68457
11.9503	970.638	23.6943
11.9501	970.6051	23.7041
11.9513	974.86	23.7139
11.9527	978.222	23.7236
11.9525	978.253	23.7334
11.9542	976.099	23.7432
11.9554	975.012	23.75293
11.9559	970.404	23.7627
11.9567	972.578	23.7725
11.9569	976.947	23.7822
11.958	980.7439	23.792
11.958	978.349	23.8018
11.9598	974.132	23.8115
11.9616	970.011	23.8213
11.9616	973.85	23.8311
11.9613	974.5788	23.84082
11.96404	979.198	23.8506
11.9633	977.65	23.8604
11.9645	977.028	23.8701
11.9647	972.618	23.8799
11.9654	968.807	23.8896
11.9667	972.0155	23.8994
11.9674	978.888	23.90918
11.9692	981.944	23.9189
11.969	979.554	23.9287
11.96977	970.5744	23.9385
11.9716	971.221	23.9482
11.9728	974.545	23.958
11.9727	974.927	23.9678
11.9729	981.47	23.9775
11.9743	980.999	23.9873
11.9752	977.543	23.99707
11.976	971.336	24.0068
11.9763	968.4834	24.0166
11.9779	975.3858	24.0264
11.9779	982.598	24.0361
11.9797	982.688	24.0459
11.9791	977.113	24.0557
11.9809	969.417	24.06543
11.9814	971.306	24.0752
11.983	971.773	24.085
11.9839	978.659	24.0947
11.98448	981.223	24.1045
11.98461	981.22	24.1143
11.986	974.224	24.124
11.9859	968.013	24.1338
11.98643	969.738	24.1436
11.988	977.952	24.15332
11.989	981.8736	24.1631
11.9901	980.208	24.1729
11.9916	974.2348	24.1826
11.9913	972.476	24.1924
11.9914	971.6817	24.2021
11.9925	976.042	24.2119
11.9936	976.422	24.22168
11.994	982.081	24.2314
11.9958	977.944	24.2412
11.996	971.165	24.251
11.9974	970.1	24.2607
11.9977	972.667	24.2705
11.99785	979.471	24.2803
12	980.36	24.29
11.9997	975.885	24.2998
12	976.304	24.30957
12.0021	971.379	24.3193
12.0025	972.33	24.3291
12.0032	973.594	24.3389
12.0049	978.455	24.3486
12.0055	981.773	24.3584
12.0059	975.069	24.3682
12.0066	972.7395	24.37793
12.0076	968.325	24.3877
12.0079	974.324	24.3975
12.00973	978.675	24.4072
12.0096	978.2002	24.417
12.0113	979.106	24.4268
12.01153	974.094	24.4365
12.01241	970.773	24.4463
12.0131	969.832	24.4561
12.0144	974.116	24.46582
12.0138	979.768	24.4756
12.0155	979.269	24.4854
12.0165	975.191	24.4951
12.017	970.9375	24.5049
12.0191	969.739	24.5146
12.0196	973.017	24.5244
12.0194	976.029	24.53418
12.0215	977.887	24.5439
12.0214	978.473	24.5537
12.0214	973.095	24.5635
12.0232	967.359	24.5732
12.0235	969.405	24.583
12.0256	975.775	24.5928
12.0255	981.9303	24.6025
12.0274	980.981	24.6123
12.027	970.8595	24.62207
12.0281	970.365	24.6318
12.0284	970.62	24.6416
12.02965	971.09	24.6514
12.0299	979.607	24.6611
12.0324	979.538	24.6709
12.03157	978.347	24.6807
12.0335	969.893	24.69043
12.0328	965.57	24.7002
12.0354	970.855	24.71
12.0342	978.061	24.7197
12.0363	980.278	24.7295
12.037	976.622	24.7393
12.03727	969.266	24.749
12.0392	970.075	24.7588
12.0394	967.234	24.7686
12.04	975.206	24.77832
12.0411	977.709	24.7881
12.0409	977.0144	24.7979
12.0431	975.029	24.8076
12.0449	966.041	24.8174
12.0443	967.082	24.8271
12.0448	972.7807	24.8369
12.0457	976.721	24.84668
12.0457	978.444	24.8564
12.0472	973.076	24.8662
12.0487	970.486	24.876
12.0497	967.513	24.8857
12.0495	969.913	24.8955
12.0502	973.782	24.9053
12.0516	978.407	24.915
12.0534	976.359	24.9248
12.0522	970.039	24.93457
12.054	967.233	24.9443
12.0555	968.574	24.9541
12.0553	973.691	24.9639
12.0575	973.932	24.9736
12.0562	975.248	24.9834
12.0576	971.928	24.9932
12.0582	970.312	25.00293
12.0597	968.888	25.0127
12.0604	967.466	25.0225
12.0616	973.902	25.0322
12.062	976.886	25.042
12.0634	973.094	25.0518
12.0636	971.794	25.0615
12.0642	965.41	25.0713
12.0654	968.042	25.0811
12.066	971.753	25.09082
12.0665	973.835	25.1006
12.0677	976.51	25.1104
12.0684	972.875	25.1201
12.0698	968.909	25.1299
12.0705	966.756	25.1396
12.0708	968.096	25.1494
12.0735	977.383	25.15918
12.0724	976.358	25.1689
12.0736	975.289	25.1787
12.075	969.96	25.1885
12.0754	965.851	25.1982
12.07695	970.582	25.208
12.0768	970.482	25.2178
12.0771	976.375	25.2275
12.0779	976.189	25.2373
12.0793	971.708	25.24707
12.0805	964.898	25.2568
12.0809	962.561	25.2666
12.0812	969.61	25.2764
12.0817	976.819	25.2861
12.0825	975.0788	25.2959
12.0835	972.021	25.3057
12.08599	965.976	25.31543
12.085	964.405	25.3252
12.088	965.746	25.335
12.08788	971.699	25.3447
12.0885	975.3587	25.3545
12.0893	975.708	25.3643
12.0888	967.795	25.374
12.08954	962.373	25.3838
12.0908	965.252	25.3936
12.092	970.911	25.40332
12.0935	976.299	25.4131
12.0947	971.857	25.4229
12.0945	969.344	25.4326
12.095	966.498	25.4424
12.0959	962.449	25.4521
12.097	968.8797	25.4619
12.0982	971.901	25.47168
12.0991	975.014	25.4814
12.1008	970.775	25.4912
12.1011	963.595	25.501
12.10197	962.7851	25.5107
12.102	967.983	25.5205
12.1028	970.7821	25.5303
12.1035	972.449	25.54
12.1047	969.5528	25.5498
12.105	967.398	25.55957
12.1061	962.374	25.5693
12.1073	964.4	25.5791
12.10795	967.248	25.5889
12.1084	970.23	25.5986
12.1085	974.156	25.6084
12.1095	967.327	25.6182
12.1113	964.113	25.62793
12.1118	964.323	25.6377
12.1121	966.437	25.6475
12.1136	969.622	25.6572
12.1146	969.4873	25.667
12.1155	969.514	25.6768
12.1161	966.293	25.6865
12.1166	961.764	25.6963
12.1178	960.99	25.7061
12.1186	968.215	25.71582
12.1191	972.095	25.7256
12.1193	969.826	25.7354
12.1206	967.6308	25.7451
12.12178	963.138	25.7549
12.1224	963.531	25.7646
12.1229	963	25.7744
12.1245	966.183	25.78418
12.1252	972.21	25.7939
12.1259	968.809	25.8037
12.1273	965.486	25.8135
12.1275	958.245	25.8232
12.1288	961.366	25.833
12.1295	969.226	25.8428
12.1306	970.301	25.8525
12.1299	971.839	25.8623
12.1316	963.877	25.87207
12.1324	960.159	25.8818
12.1333	962.036	25.8916
12.1344	961.594	25.9014
12.1355	969.571	25.9111
12.135	970.709	25.9209
12.1363	970.043	25.9307
12.1368	961.948	25.94043
12.1374	957.546	25.9502
12.1374	962.437	25.96
12.14	968.851	25.9697
12.1407	970.201	25.9795
12.1411	968.577	25.9893
12.1421	961.689	25.999
12.1424	960.209	26.0088
12.1439	959.346	26.0186
12.1457	963.776	26.02832
12.1452	970.1972	26.0381
12.1463	970.865	26.0479
12.147	963.896	26.0576
12.1473	957.617	26.0674
12.1478	957.599	26.0771
12.1497	963.252	26.0869
12.1507	968.791	26.09668
12.1506	966.74	26.1064
12.1512	966.047	26.1162
12.153	961.144	26.126
12.1535	957.631	26.1357
12.1539	961.778	26.1455
12.155	963.271	26.1553
12.1561	970.555	26.165
12.1571	966.1424	26.1748
12.1579	959.274	26.18457
12.159	958.154	26.1943
12.1586	958.496	26.2041
12.1599	964.255	26.2139
12.16051	967.124	26.2236
12.1604	965.681	26.2334
12.163	966.295	26.2432
12.1632	958.704	26.25293
12.164	958.712	26.2627
12.1653	959.986	26.2725
12.16486	964.771	26.2822
12.1663	969.685	26.292
12.1671	962.42	26.3018
12.1685	961.264	26.3115
12.1684	959.293	26.3213
12.1692	959.505	26.3311
12.1697	962.136	26.34082
12.1707	963.768	26.3506
12.1717	965.924	26.3604
12.17216	964.524	26.3701
12.173	957.497	26.3799
12.1747	954.634	26.3896
12.1752	960.959	26.3994
12.17577	964.723	26.40918
12.1773	965.433	26.4189
12.1775	964.819	26.4287
12.1786	958.562	26.4385
12.17953	957.6366	26.4482
12.1801	957.525	26.458
12.182	961.822	26.4678
12.1831	965.072	26.4775
12.1822	967.736	26.4873
12.1835	962.37	26.49707
12.1845	954.667	26.5068
12.1846	954.591	26.5166
12.1861	960.868	26.5264
12.1858	964.423	26.5361
12.1874	967.7262	26.5459
12.1874	960.31	26.5557
12.1894	958.5058	26.56543
12.1897	955.467	26.5752
12.1917	954.286	26.585
12.1924	964.379	26.5947
12.1912	965.558	26.6045
12.19262	966.478	26.6143
12.1942	957.509	26.624
12.1963	951.871	26.6338
12.196	958.095	26.6436
12.1967	959.472	26.65332
12.1983	963.771	26.6631
12.19784	963.826	26.6729
12.1984	957.424	26.6826
12.1997	956.549	26.6924
12.2002	951.864	26.7021
12.201	956.305	26.7119
12.2028	964.41	26.72168
12.2026	964.293	26.7314
12.2046	961.557	26.7412
12.2054	953.852	26.751
12.2053	951.349	26.7607
12.2075	956.961	26.7705
12.2065	960.558	26.7803
12.2083	962.358	26.79
12.209	962.208	26.7998
12.20984	957.062	26.80957
12.2109	951.8103	26.8193
12.2121	954.228	26.8291
12.2126	956.93	26.8389
12.2125	962.068	26.8486
12.2135	960.0899	26.8584
12.2133	955.451	26.8682
12.21579	953.379	26.87793
12.2158	955.177	26.8877
12.2169	957.286	26.8975
12.2182	957.603	26.9072
12.2191	959.111	26.917
12.2201	959.654	26.9268
12.2194	952.752	26.9365
12.2204	953.663	26.9463
12.2215	949.7215	26.9561
12.2229	956.143	26.96582
12.2233	960.803	26.9756
12.2235	957.607	26.9854
12.2242	956.869	26.9951
12.2262	950.9444	27.0049
12.2257	951.521	27.0146
12.2269	954.367	27.0244
12.2283	954.363	27.03418
12.2285	960.046	27.0439
12.2293	958.284	27.0537
12.2311	952.063	27.0635
12.2317	947.017	27.0732
12.2322	948.613	27.083
12.23352	956.273	27.0928
12.2339	956.637	27.1025
12.2341	955.397	27.1123
12.2356	953.129	27.12207
12.2354	947.893	27.1318
12.2373	946.835	27.1416
12.2385	948.663	27.1514
12.239	953.953	27.1611
12.2392	957.956	27.1709
12.2404	952.481	27.1807
12.241	945.969	27.19043
12.2429	943.774	27.2002
12.242	946.361	27.21
12.2433	948.666	27.2197
12.2523	-80.6801	27.2295
12.2512	11.3389	27.2393
12.2509	-53.3305	27.249
12.2516	-42.1824	27.2588
12.25138	-53.9014	27.2686
12.2506	-39.5205	27.27832
12.2511	-32.2559	27.2881
12.2522	-36.1982	27.2979
12.2531	-42.30283	27.3076
12.2533	-50.2697	27.3174
12.2546	-46.5368	27.3271
12.2541	-43.8959	27.3369
12.2551	-37.1174	27.34668
12.256	-37.0353	27.3564
12.2579	-40	27.3662
12.2572	-44.079	27.376
12.2582	-51.241	27.3857
12.2587	-44.6275	27.3955
12.2604	-38.6457	27.4053
12.2619	-34.8901	27.415
12.2611	-37.104	27.4248
12.263	-46.8451	27.43457
12.2637	-46.6766	27.4443
12.26363	-44.3085	27.4541
12.2653	-40.3067	27.4639
12.2654	-38.201	27.4736
12.2677	-37.0604	27.4834
12.26744	-40.09642	27.4932
12.2681	-46.28968	27.50293
12.26994	-46.79591	27.5127
12.2694	-42.6835	27.5225
12.271	-39.1197	27.5322
12.2725	-36.7802	27.542
12.2718	-40.43	27.5518
12.2726	-43.5921	27.5615
12.2738	-46.01873	27.5713
12.2749	-44.3864	27.5811
12.2759	-42.399	27.59082
12.27579	-37.5288	27.6006
12.2774	-35.1598	27.6104
12.2774	-40.39473	27.6201
12.2793	-44.65387	27.6299
12.2787	-47.9787	27.6396
12.2795	-41.0176	27.6494
12.2816	-37.19595	27.65918
12.2817	-38.1675	27.6689
12.2822	-38.7767	27.6787
12.2843	-43.534	27.6885
12.2841	-44.278	27.6982
12.2853	-45.9508	27.708
12.2856	-43.3605	27.7178
12.2868	-35.5014	27.7275
12.28753	-36.7426	27.7373
12.2883	-39.6649	27.74707
12.2893	-47.5331	27.7568
12.2889	-47.3235	27.7666
12.29182	-41.0048	27.7764
12.2911	-40.3895	27.7861
12.2922	-35.6492	27.7959
12.2926	-39.9374	27.8057
12.2932	-44.0084	27.81543
12.2944	-45.276	27.8252
12.2943	-46.0617	27.835
12.2958	-39.3631	27.8447
12.2974	-35.0812	27.8545
12.2981	-36.5099	27.8643
12.2989	-43.0954	27.874
12.2998	-47.4834	27.8838
12.3006	-45.479	27.8936
12.3006	-40.2394	27.90332
12.3011	-36.9718	27.9131
12.3025	-35.9442	27.9229
12.3037	-39.3938	27.9326
12.3052	-44.3497	27.9424
12.3058	-47.872	27.9521
12.3071	-44.23135	27.9619
12.3066	-34.7738	27.97168
12.3067	-33.426	27.9814
12.3086	-39.7065	27.9912
12.3096	-45.8581	28.001
12.3105	-45.8476	28.0107
12.3105	-43.9707	28.0205
12.3122	-38.29837	28.0303
12.3124	-36.8736	28.04
12.3132	-36.909	28.0498
12.3146	-40.3176	28.05957
12.31472	-46.81168	28.0693
12.3153	-43.6384	28.0791
12.3161	-41.9407	28.0889
12.31736	-35.219	28.0986
12.317	-36.5412	28.1084
12.3178	-43.0153	28.1182
12.3201	-44.1959	28.12793
12.321	-46.1424	28.1377
12.3216	-43.5152	28.1475
12.3222	-39.9505	28.1572
12.3229	-36.9021	28.167
12.3237	-37.4863	28.1768
12.3261	-44.4769	28.1865
12.32545	-44.39941	28.1963
12.3259	-45.2272	28.2061
12.327	-39.4338	28.21582
12.3286	-37.086	28.2256
12.3293	-40.11121	28.2354
12.32956	-41.5833	28.2451
12.3304	-42.5596	28.2549
12.3321	-45.5181	28.2646
12.3319	-42.9176	28.2744
12.3333	-38.9374	28.28418
12.3326	-36.3383	28.2939
12.3348	-37.4101	28.3037
12.3346	-44.1213	28.3135
12.3371	-46.7523	28.3232
12.3371	-42.1204	28.333
12.3377	-39.5622	28.3428
12.3386	-37.239	28.3525
12.3402	-38.0742	28.3623
12.3402	-41.5226	28.37207
12.3408	-43.06448	28.3818
12.3411	-47.92907	28.3916
12.3428	-43.3936	28.4014
12.3436	-36.7835	28.4111
12.3431	-35.5481	28.4209
12.3454	-36.3371	28.4307
12.3457	-47.1013	28.44043
12.346	-45.4413	28.4502
12.348	-42.2682	28.46
12.3471	-41.4655	28.4697
12.3493	-34.0726	28.4795
12.3504	-37.5397	28.4893
12.3501	-41.7819	28.499
12.3516	-46.1247	28.5088
12.3525	-48.6952	28.5186
12.3534	-41.1981	28.52832
12.3543	-36.2101	28.5381
12.35502	-36.4594	28.5479
12.3566	-40.8527	28.5576
12.3564	-45.6501	28.5674
12.3573	-44.3298	28.5771
12.3576	-43.59882	28.5869
12.3583	-39.4791	28.59668
12.3597	-34.2595	28.6064
12.36017	-39.3773	28.6162
12.361	-42.45787	28.626
12.3618	-49.6171	28.6357
12.362	-46.4028	28.6455
12.3636	-37.9419	28.6553
12.3649	-34.5986	28.665
12.3648	-37.3603	28.6748
12.3664	-42.217	28.68457
12.36664	-45.118	28.6943
12.3676	-44.0478	28.7041
12.3689	-40.8605	28.7139
12.3692	-38.25856	28.7236
12.3712	-36.8991	28.7334
12.3723	-40.2293	28.7432
12.3717	-45.4575	28.75293
12.3732	-46.0825	28.7627
12.3738	-42.9676	28.7725
12.374	-37.141	28.7822
12.375	-36.4553	28.792
12.37584	-39.3004	28.8018
12.3762	-44.9313	28.8115
12.3772	-46.6746	28.8213
12.3789	-42.8823	28.8311
12.3792	-41.9301	28.84082
12.3798	-38.1889	28.8506
12.3806	-36.0829	28.8604
12.3814	-42.6845	28.8701
12.3829	-45.7734	28.8799
12.3832	-46.8618	28.8896
12.3833	-41.0756	28.8994
12.3856	-36.3187	28.90918
12.3853	-40.8001	28.9189
12.3859	-39.3273	28.9287
12.388	-41.9986	28.9385
12.3878	-45.9638	28.9482
12.3889	-45.6175	28.958
12.39	-43.1665	28.9678
12.3902	-35.2938	28.9775
12.3906	-38.443	28.9873
12.3924	-41.8348	28.99707
12.394	-47.5381	29.0068
12.3942	-43.7101	29.0166
12.3939	-41.9933	29.0264
12.3952	-40.8417	29.0361
12.3971	-37.3691	29.0459
12.3966	-39.6187	29.0557
12.3976	-42.3877	29.06543
12.3986	-48.7242	29.0752
12.4004	-46.33881	29.085
12.4	-40.8917	29.0947
12.402	-35.8127	29.1045
12.402	-37.6782	29.1143
12.4015	-45.7471	29.124
12.4036	-46.5538	29.1338
12.405	-45.5802	29.1436
12.40449	-44.107	29.15332
12.4072	-35.91275	29.1631
12.40653	-38.1619	29.1729
12.40721	-39.4648	29.1826
12.4083	-46.7488	29.1924
12.40917	-48.2814	29.2021
12.4092	-44.6141	29.2119
12.4101	-38.2608	29.22168
12.4131	-34.985	29.2314
12.4131	-41.54393	29.2412
12.4138	-44.1739	29.251
12.4138	-45.0238	29.2607
12.4137	-46.5094	29.2705
12.417	-39.8647	29.2803
12.4162	-37.6007	29.29
12.41619	-37.9186	29.2998
12.4181	-41.1085	29.30957
12.4182	-50.0658	29.3193
12.4198	-48.4071	29.3291
12.4205	-40.3253	29.3389
12.4217	-36.4627	29.3486
12.4223	-36.7922	29.3584
12.423	-44.4194	29.3682
12.4245	-44.8914	29.37793
12.42328	-45.724	29.3877
12.4262	-44.7667	29.3975
12.4263	-41.0901	29.4072
12.4269	-37.46526	29.417
12.4275	-37.9032	29.4268
12.4291	-45.8984	29.4365
12.4308	-46.0905	29.4463
12.4306	-43.8371	29.4561
12.4312	-39.633	29.46582
12.4322	-39.7956	29.4756
12.4333	-40.0919	29.4854
12.43349	-41.2775	29.4951
12.4345	-43.9829	29.5049
12.4358	-45.0485	29.5146
12.4367	-43.8993	29.5244
12.437	-38.3475	29.53418
12.4374	-36.54491	29.5439
12.4382	-42.7428	29.5537
12.44	-42.7297	29.5635
12.4406	-48.7255	29.5732
12.4405	-43.54081	29.583
12.4412	-41.03503	29.5928
12.4431	-40.8001	29.6025
12.4422	-39.4006	29.6123
12.4451	-41.0021	29.62207
12.4449	-44.4685	29.6318
12.445	-47.8645	29.6416
12.4468	-45.4974	29.6514
12.4474	-36.5172	29.6611
12.4485	-36.41922	29.6709
12.4496	-39.6865	29.6807
12.45	-45.09943	29.69043
12.4502	-46.373	29.7002
12.4523	-43.1161	29.71
12.4519	-42.7519	29.7197
12.4533	-36.91608	29.7295
12.4525	-36.3083	29.7393
12.4548	-41.8206	29.749
12.4555	-46.2946	29.7588
12.4573	-48.7063	29.7686
12.4566	-43.1111	29.77832
12.4577	-36.2171	29.7881
12.4598	-35.9668	29.7979
12.4587	-41.6746	29.8076
12.4605	-46.0206	29.8174
12.4612	-46.9862	29.8271
12.4618	-45.7764	29.8369
12.4627	-38.2095	29.84668
12.4627	-37.62207	29.8564
12.4644	-36.1439	29.8662
12.4651	-44.5823	29.876
12.46587	-48.6739	29.8857
12.4674	-45.49707	29.8955
12.4672	-40.9739	29.9053
12.4693	-34.3152	29.915
12.4689	-40.6786	29.9248
12.4704	-44.2874	29.93457
12.4704	-45.3716	29.9443
12.4716	-46.9546	29.9541
12.474	-42.2686	29.9639
12.473	-38.9827	29.9736
12.4748	-35.813	29.9834
12.4751	-36.7687	29.9932
12.4766	-47.2038	30.00293
12.4766	-47.5694	30.0127
12.4769	-43.2548	30.0225
12.4786	-37.2948	30.0322
12.4791	-37.0171	30.042
12.48	-40.7111	30.0518
12.4797	-41.9591	30.0615
12.481	-45.6485	30.0713
12.4818	-46.22364	30.0811
12.4839	-41.2579	30.09082
12.4843	-37.7387	30.1006
12.4843	-35.8165	30.1104
12.486	-42.5046	30.1201
12.4868	-47.2727	30.1299
12.4871	-45.0822	30.1396
12.4886	-41.1929	30.1494
12.4899	-38.0009	30.15918
12.48929	-40.8888	30.1689
12.4896	-39.9729	30.1787
12.4925	-42.9562	30.1885
12.4934	-44.8641	30.1982
12.4932	-45.6294	30.208
12.4935	-40.0234	30.2178