File: data/processed_data_files/tensile/0.254_solid_dimension_typei_4545_r(6).dat
MTS793|BTW|ENU|1|2|.|/|:|1|0|0|A

Data Header:			0.254_solid_dimension_typei_4545_r0			Time:	20.0178	s	4/14/2019 4:58:42 AM
Data Acquisition:	Timed
Station Name:	ft40.cfg
Test File Name:	monotonic_0.2540_typei_solid_4545_dimension.tst
Displacement	Force	Running Time
mm	N	s
9.95706	-121.866	0.0227051
9.95768	-120.689	0.0422363
9.95714	-135.039	0.0617676
9.95788	-126.0388	0.0812988
9.95965	-119.263	0.10083
9.96173	-127.915	0.120361
9.9631	-128.226	0.139893
9.96488	-113.053	0.159424
9.9651	-121.205	0.178955
9.96862	-125.523	0.198486
9.9692	-115.7884	0.218018
9.9715	-112.225	0.237549
9.97205	-125.653	0.25708
9.97381	-112.247	0.276611
9.97566	-109.931	0.296143
9.97755	-118.19	0.315674
9.979516	-115.227	0.335205
9.98034	-105.305	0.354736
9.98267	-117.499	0.374268
9.983551	-112.783	0.393799
9.98591	-100.582	0.41333
9.98677	-111.135	0.432861
9.9886	-116.191	0.452393
9.99092	-98.5571	0.471924
9.99175	-103.621	0.491455
9.99371	-111.266	0.510986
9.99483	-99.1414	0.530518
9.99732	-101.245	0.550049
9.99843	-110.874	0.56958
10.0001	-96.60659	0.589111
10.0008	-95.1757	0.608643
10.0036	-106.923	0.628174
10.0047	-96.3601	0.647705
10.0066	-89.9898	0.667236
10.0081	-101.667	0.686768
10.0098	-98.1616	0.706299
10.0113	-85.0277	0.72583
10.0139	-93.18325	0.745361
10.0143	-95.848	0.764893
10.0155	-86.0797	0.784424
10.01849	-88.8896	0.803955
10.0192	-93.8956	0.823486
10.021	-80.424	0.843018
10.0225	-81.94268	0.862549
10.02485	-91.9699	0.88208
10.0262	-85.41584	0.901611
10.0277	-74.9261	0.921143
10.0299	-89.0447	0.940674
10.0304	-81.9375	0.960205
10.033	-72.98587	0.979736
10.0348	-80.848	0.999268
10.0353	-83.4662	1.0188
10.0371	-69.0501	1.03833
10.0385	-79.0233	1.05786
10.0414	-79.367	1.07739
10.0423	-63.4605	1.09692
10.0442	-71.8401	1.11646
10.0461	-81.804	1.13599
10.0476	-63.6526	1.15552
10.0493	-65.6718	1.17505
10.0504	-75.4238	1.19458
10.0521	-64.5037	1.21411
10.054	-61.0982	1.23364
10.0559	-73.7798	1.25317
10.0563	-63.4768	1.27271
10.0584	-55.9037	1.29224
10.0592	-69.54718	1.31177
10.0619	-62.9307	1.3313
10.0636	-52.93449	1.35083
10.065	-61.1927	1.37036
10.0662	-65.5693	1.38989
10.0696	-50.4042	1.40942
10.071	-53.9293	1.42896
10.0717	-59.7979	1.44849
10.07332	-51.7243	1.46802
10.0756	-48.20512	1.48755
10.0759	-59.4886	1.50708
10.0786	-46.2758	1.52661
10.0801	-41.8227	1.54614
10.0815	-53.5853	1.56567
10.0839	-50.2175	1.58521
10.0836	-35.9793	1.60474
10.0865	-50.04303	1.62427
10.0883	-47.2838	1.6438
10.0899	-35.3267	1.66333
10.0917	-41.9029	1.68286
10.0936	-47.3004	1.70239
10.094	-32.7037	1.72192
10.0962	-39.1987	1.74146
10.0975	-45.2152	1.76099
10.0989	-30.2055	1.78052
10.1008	-33.2392	1.80005
10.1024	-44.7056	1.81958
10.1043	-30.216	1.83911
10.1056	-25.5363	1.85864
10.10677	-39.6634	1.87817
10.1089	-29.6234	1.89771
10.1111	-25.0596	1.91724
10.1115	-34.2926	1.93677
10.1134	-30.8708	1.9563
10.1153	-17.1999	1.97583
10.1174	-26.7037	1.99536
10.1184	-27.2574	2.01489
10.1201	-17.7268	2.03442
10.1224	-17.566	2.05396
10.1237	-29.8176	2.07349
10.1243	-13.7207	2.09302
10.1269	-13.5086	2.11255
10.1287	-22.7714	2.13208
10.13037	-16.4921	2.15161
10.1315	-7.51476	2.17114
10.1337	-20.5054	2.19067
10.13556	-11.2935	2.21021
10.1369	-1.23409	2.22974
10.1385	-15.7682	2.24927
10.139	-16.2471	2.2688
10.1416	2.67249	2.28833
10.1429	-8.58516	2.30786
10.1448	-12.5804	2.32739
10.1463	2.58587	2.34692
10.1487	-1.920561	2.36646
10.1497	-12.2473	2.38599
10.1514	2.70072	2.40552
10.1523	3.37898	2.42505
10.1544	-7.7535	2.44458
10.15629	6.61289	2.46411
10.1588	7.21507	2.48364
10.1595	-2.05699	2.50317
10.1613	3.72701	2.52271
10.1616	14.2158	2.54224
10.1637	2.7173	2.56177
10.1656	7.46414	2.5813
10.1666	13.8113	2.60083
10.169	8.711525	2.62036
10.1697	5.00618	2.63989
10.1725	20.7131	2.65942
10.1739	16.0634	2.67896
10.1757	9.17155	2.69849
10.1774	17.6947	2.71802
10.1786	24.4838	2.73755
10.1812	10.2267	2.75708
10.1819	21.5413	2.77661
10.1834	28.4815	2.79614
10.1848	18.7419	2.81567
10.187	19.8503	2.83521
10.1888	32.7058	2.85474
10.19	19.3734	2.87427
10.19203	23.1057	2.8938
10.1928	36.70145	2.91333
10.1958	26.5985	2.93286
10.19768	20.9201	2.95239
10.1986	39.8854	2.97192
10.20017	32.4161	2.99146
10.2024	26.3995	3.01099
10.2032	40.6471	3.03052
10.2052	39.4371	3.05005
10.20676	29.0119	3.06958
10.20764	40.04	3.08911
10.21	46.0021	3.10864
10.2116	33.5105	3.12817
10.2128	44.1855	3.14771
10.2149	49.959	3.16724
10.2165	38.8606	3.18677
10.218	40.3447	3.2063
10.2202	54.3559	3.22583
10.22019	45.9382	3.24536
10.2228	44.9282	3.26489
10.22504	53.5049	3.28442
10.2265	52.3024	3.30396
10.228	44.4695	3.32349
10.2284	59.7727	3.34302
10.2305	59.142	3.36255
10.232	48.73904	3.38208
10.2341	57.328	3.40161
10.2355	67.245	3.42114
10.2381	52.5959	3.44067
10.23859	59.90295	3.46021
10.24	69.3898	3.47974
10.2424	60.4623	3.49927
10.2438	58.4629	3.5188
10.2452	72.4561	3.53833
10.2474	63.3452	3.55786
10.2488	60.7537	3.57739
10.2505	77.9025	3.59692
10.2512	69.6727	3.61646
10.2536	60.8848	3.63599
10.2561	77.0733	3.65552
10.257	78.1511	3.67505
10.2584	65.6404	3.69458
10.2602	77.33197	3.71411
10.262	81.42765	3.73364
10.26468	72.3923	3.75317
10.2649	76.8102	3.77271
10.2663	87.3834	3.79224
10.269	74.2921	3.81177
10.2702	81.4658	3.8313
10.2707	89.8519	3.85083
10.2733	83.9232	3.87036
10.2739	77.9713	3.88989
10.2779	94.8085	3.90942
10.2776	89.183	3.92896
10.2799	83.3351	3.94849
10.2825	92.021	3.96802
10.2835	96.5888	3.98755
10.2848	85.7293	4.00708
10.2868	97.8064	4.02661
10.2882	101.525	4.04614
10.29	89.5095	4.06567
10.2906	94.3923	4.08521
10.2924	107.8231	4.10474
10.2939	94.8817	4.12427
10.2961	96.658	4.1438
10.2976	111.617	4.16333
10.29873	100.076	4.18286
10.3011	95.8238	4.20239
10.302	112.1768	4.22192
10.30482	107.593	4.24146
10.3056	99.5989	4.26099
10.308	116.676	4.28052
10.3081	111.83	4.30005
10.3112	102.154	4.31958
10.3124	113.511	4.33911
10.3132	120.4188	4.35864
10.3166	106.3877	4.37817
10.3164	115.139	4.39771
10.3197	123.136	4.41724
10.3222	115.436	4.43677
10.3224	113.802	4.4563
10.3238	127.8	4.47583
10.3259	117.8226	4.49536
10.3269	118.234	4.51489
10.3287	128.354	4.53442
10.3297	128.495	4.55396
10.33183	116.958	4.57349
10.3331	131.657	4.59302
10.3345	131.916	4.61255
10.3365	123.0125	4.63208
10.3383	129.222	4.65161
10.3401	138.18	4.67114
10.3409	125.136	4.69067
10.3436	134.289	4.71021
10.3445	142.994	4.72974
10.3471	132.071	4.74927
10.348	131.891	4.7688
10.3492	148.136	4.78833
10.3515	136.145	4.80786
10.3528	133.9218	4.82739
10.35538	149.807	4.84692
10.3566	142.417	4.86646
10.3571	135.024	4.88599
10.359	149.702	4.90552
10.3615	150.736	4.92505
10.3632	139.696	4.94458
10.3653	153.624	4.96411
10.3667	153.419	4.98364
10.3675	143.66	5.00317
10.3694	150.02	5.02271
10.3712	161.722	5.04224
10.3727	150.041	5.06177
10.3737	152.266	5.0813
10.3768	161.618	5.10083
10.3782	157.916	5.12036
10.3793	152.387	5.13989
10.381	167.615	5.15942
10.3827	161.8414	5.17896
10.38292	155.346	5.19849
10.386	165.374	5.21802
10.3868	171.022	5.23755
10.3889	156.619	5.25708
10.3909	168.238	5.27661
10.3931	176.081	5.29614
10.3938	161.796	5.31567
10.3954	167.697	5.33521
10.3966	180.15	5.35474
10.3985	166.936	5.37427
10.4007	170.0674	5.3938
10.4024	183.234	5.41333
10.4034	171.292	5.43286
10.4039	169.039	5.45239
10.4061	185.999	5.47192
10.40886	182.147	5.49146
10.41006	170.031	5.51099
10.4124	187.776	5.53052
10.4121	186.853	5.55005
10.4153	176.4563	5.56958
10.4167	185.096	5.58911
10.41821	191.758	5.60864
10.4198	180.94	5.62817
10.4215	190.145	5.64771
10.424	194.997	5.66724
10.4248	184.877	5.68677
10.4271	185.593	5.7063
10.4294	200.971	5.72583
10.4291	193.714	5.74536
10.4314	187.762	5.76489
10.4326	199.304	5.78442
10.4341	199.044	5.80396
10.436	190.44	5.82349
10.4373	205.033	5.84302
10.4407	204.812	5.86255
10.4412	194.546	5.88208
10.4427	201.436	5.90161
10.4443	211.124	5.92114
10.446	197.257	5.94067
10.4478	204.497	5.96021
10.4484	216.524	5.97974
10.4512	204.464	5.99927
10.45299	202.918	6.0188
10.4549	217.274	6.03833
10.4567	210.929	6.05786
10.4566	205.677	6.07739
10.4585	222.27	6.09692
10.461	214.463	6.11646
10.4628	208.047	6.13599
10.4641	222.402	6.15552
10.4647	224.387	6.17505
10.4665	210.392	6.19458
10.4691	225.474	6.21411
10.47	226.437	6.23364
10.4716	218.386	6.25317
10.4723	221.699	6.27271
10.4763	234.211	6.29224
10.47572	224.158	6.31177
10.4786	225.105	6.3313
10.48	233.754	6.35083
10.4817	228.861	6.37036
10.4827	222.615	6.38989
10.4852	240.551	6.40942
10.4858	236.693	6.42896
10.4886	226.3026	6.44849
10.4892	235.903	6.46802
10.4913	244.206	6.48755
10.493	229.651	6.50708
10.4944	241.077	6.52661
10.4962	248.1051	6.54614
10.4976	234.318	6.56567
10.4994	241.013	6.58521
10.5009	252.302	6.60474
10.5023	238.171	6.62427
10.5047	241.144	6.6438
10.5055	257.878	6.66333
10.5073	245.567	6.68286
10.5082	242.26	6.70239
10.5104	256.6	6.72192
10.5114	254.87	6.74146
10.5148	244.911	6.76099
10.5161	261.543	6.78052
10.5175	256.154	6.80005
10.5193	248.733	6.81958
10.5201	259.559	6.83911
10.5231	267.371	6.85864
10.5238	252.904	6.87817
10.52533	260.654	6.89771
10.5277	268.179	6.91724
10.52843	260.186	6.93677
10.53014	259.105	6.9563
10.53173	274.624	6.97583
10.533	264.859	6.99536
10.5356	262.527	7.01489
10.5382	273.748	7.03442
10.5391	272.9621	7.05396
10.54069	263.451	7.07349
10.5416	277.557	7.09302
10.5432	278.861	7.11255
10.5443	265.092	7.13208
10.5461	275.844	7.15161
10.5482	284.996	7.17114
10.5499	272.173	7.19067
10.5513	278.474	7.21021
10.5524	290.392	7.22974
10.55493	275.61	7.24927
10.55626	278.417	7.2688
10.55782	292.188	7.28833
10.5599	282.869	7.30786
10.5622	278.098	7.32739
10.5633	296.905	7.34692
10.5641	287.742	7.36646
10.5672	282.476	7.38599
10.5678	294.371	7.40552
10.5695	296.256	7.42505
10.5701	285.974	7.44458
10.5725	298.341	7.46411
10.5751	298.521	7.48364
10.5764	291.275	7.50317
10.5772	295.718	7.52271
10.5788	309.089	7.54224
10.5806	294.935	7.56177
10.5828	298.118	7.5813
10.5834	309.051	7.60083
10.5862	303.768	7.62036
10.5873	296.507	7.63989
10.5895	310.886	7.65942
10.5909	308.863	7.67896
10.5924	299.114	7.69849
10.5938	311.808	7.71802
10.5953	315.1951	7.73755
10.5969	302.223	7.75708
10.5986	314.862	7.77661
10.6002	322.432	7.79614
10.6026	305.272	7.81567
10.6032	312.827	7.83521
10.6056	324.186	7.85474
10.6068	313.851	7.87427
10.6091	314.258	7.8938
10.6103	327.977	7.91333
10.612	316.539	7.93286
10.61356	315.35	7.95239
10.6149	328.324	7.97192
10.6164	325.231	7.99146
10.6181	315.708	8.01099
10.6196	332.432	8.03052
10.6216	330.739	8.05005
10.6229	321.855	8.06958
10.625	329.686	8.08911
10.6266	339.293	8.10864
10.6274	326.231	8.12817
10.6289	333.9285	8.14771
10.6321	339.189	8.16724
10.6334	332.316	8.18677
10.6353	330.151	8.2063
10.6369	345.754	8.22583
10.6375	336.828	8.24536
10.6393	333.037	8.26489
10.6409	345.936	8.28442
10.6423	346.52	8.30396
10.64438	333.564	8.32349
10.64604	346.967	8.34302
10.6477	350.433	8.36255
10.6496	338.696	8.38208
10.6516	349.103	8.40161
10.6523	355.809	8.42114
10.6529	341.795	8.44067
10.6545	349.263	8.46021
10.6572	365.106	8.47974
10.6587	347.964	8.49927
10.6602	349.0419	8.5188
10.6616	363.28	8.53833
10.6635	357.704	8.55786
10.6648	350.7113	8.57739
10.6661	366.976	8.59692
10.6674	359.1524	8.61646
10.6705	352.606	8.63599
10.6725	366.701	8.65552
10.6731	369.9794	8.67505
10.6745	356.12	8.69458
10.6766	368.125	8.71411
10.6787	373.789	8.73364
10.6809	361.639	8.75317
10.6811	363.8465	8.77271
10.6835	381.165	8.79224
10.6849	370.003	8.81177
10.6867	366.637	8.8313
10.6875	379.739	8.85083
10.6899	375.25	8.87036
10.6914	367.026	8.88989
10.6934	384.386	8.90942
10.6949	383.714	8.92896
10.6962	368.388	8.94849
10.6977	382.953	8.96802
10.7	390.253	8.98755
10.7015	373.51	9.00708
10.7033	382.298	9.02661
10.70519	395.497	9.04614
10.70608	377.38	9.06567
10.7079	383.067	9.08521
10.7098	398.352	9.10474
10.7118	386.246	9.12427
10.7127	382.828	9.1438
10.7148	402.403	9.16333
10.7158	389.768	9.18286
10.7175	383.877	9.20239
10.7187	401.576	9.22192
10.7212	402.339	9.24146
10.72183	387.56	9.26099
10.7246	400.31	9.28052
10.7244	402.612	9.30005
10.7273	392.3136	9.31958
10.7292	400.8096	9.33911
10.7307	410.9039	9.35864
10.73173	396.661	9.37817
10.733	401.472	9.39771
10.7358	414.975	9.41724
10.7374	404.203	9.43677
10.7393	399.042	9.4563
10.7409	418.798	9.47583
10.7413	412.464	9.49536
10.7431	400.937	9.51489
10.7449	417.27	9.53442
10.7461	418.2597	9.55396
10.7484	405.3284	9.57349
10.75007	419.887	9.59302
10.7517	425.162	9.61255
10.7534	404.663	9.63208
10.7547	417.477	9.65161
10.7569	430.277	9.67114
10.7584	415.221	9.69067
10.7601	417.193	9.71021
10.7614	435.223	9.72974
10.7638	419.134	9.74927
10.7644	418.802	9.7688
10.767	435.377	9.78833
10.7677	427.863	9.80786
10.77	420.272	9.82739
10.7706	440.685	9.84692
10.77349	433.8902	9.86646
10.7749	422.093	9.88599
10.7762	435.674	9.90552
10.7782	443.739	9.92505
10.77921	427.23	9.94458
10.7813	436.172	9.96411
10.7823	444.902	9.98364
10.784	434.841	10.0032
10.78567	435.823	10.0227
10.7874	450.54	10.0422
10.7899	438.784	10.0618
10.7895	434.2948	10.0813
10.7928	452.5687	10.10083
10.7948	447.585	10.1204
10.7956	434.058	10.1399
10.7963	454.555	10.1594
10.79841	454.461	10.179
10.8007	439.1489	10.1985
10.8024	453.119	10.218
10.8034	459.098	10.2375
10.8045	443.004	10.25708
10.8067	453.8063	10.2766
10.80822	467.141	10.2961
10.8101	445.537	10.3157
10.8117	452.966	10.3352
10.8144	469.94	10.3547
10.8148	457.412	10.3743
10.8166	450.9552	10.3938
10.8179	472.75	10.41333
10.8205	461.939	10.4329
10.8216	454.396	10.4524
10.823	471.831	10.4719
10.826	470.456	10.4915
10.82564	456.851	10.511
10.8274	473.757	10.5305
10.8298	475.058	10.55
10.8313	461.007	10.56958
10.8328	469.148	10.5891
10.835	484.237	10.6086
10.8362	467.734	10.6282
10.8381	470.663	10.6477
10.8398	483.066	10.6672
10.8413	473.952	10.6868
10.8432	469.508	10.7063
10.8435	487.994	10.72583
10.8458	481.179	10.7454
10.8478	470.536	10.7649
10.849	489.818	10.7844
10.8508	488.138	10.804
10.8527	472.541	10.8235
10.8539	489.17	10.843
10.8558	495.815	10.8625
10.8569	474.67	10.88208
10.8597	488.317	10.9016
10.8614	499.565	10.9211
10.8623	484.147	10.9407
10.8642	487.27	10.9602
10.8662	505.405	10.9797
10.86742	487.013	10.9993
10.8689	487.466	11.0188
10.8707	505.382	11.03833
10.8713	499.442	11.0579
10.8746	486.48	11.0774
10.875	506.314	11.0969
10.87697	502.644	11.1165
10.8796	493.302	11.136
10.8798	506.692	11.1555
10.882	513.042	11.175
10.88342	494.829	11.19458
10.8847	505.79	11.2141
10.8874	515.771	11.2336
10.8874	500.121	11.2532
10.89023	502.084	11.2727
10.89122	520.698	11.2922
10.8933	509.593	11.3118
10.8944	502.311	11.3313
10.89658	521.992	11.35083
10.898	516.528	11.3704
10.8995	504.514	11.3899
10.9002	523.624	11.4094
10.9024	522.984	11.429
10.9048	503.992	11.4485
10.9057	522.789	11.468
10.9081	529.401	11.4875
10.9085	511.254	11.50708
10.9108	521.624	11.5266
10.9128	536.491	11.5461
10.9149	516.064	11.5657
10.9159	521.208	11.5852
10.9167	537.244	11.6047
10.9195	524.752	11.6243
10.9215	520.8335	11.6438
10.9223	541.321	11.66333
10.9241	529.792	11.6829
10.9257	522.748	11.7024
10.9271	542.124	11.7219
10.929	541.4184	11.7415
10.93105	524.481	11.761
10.9318	539.418	11.7805
10.9346	543.529	11.8
10.93515	529.625	11.81958
10.9363	537.769	11.8391
10.9372	551.636	11.8586
10.9387	535.066	11.8782
10.9418	536.636	11.8977
10.9429	553.3288	11.9172
10.945	541.215	11.9368
10.9465	536.309	11.9563
10.9485	556.107	11.97583
10.9504	552.0108	11.9954
10.95142	535.617	12.0149
10.9533	555.925	12.0344
10.9551	556.613	12.054
10.9568	540.552	12.0735
10.9586	556.14	12.093
10.9607	563.79	12.1125
10.9632	542.005	12.13208
10.963	556.855	12.1516
10.9646	566.753	12.1711
10.9655	550.695	12.1907
10.9685	554.91	12.2102
10.9702	572.949	12.2297
10.9705	557.398	12.2493
10.973	554.281	12.2688
10.9746	570.592	12.28833
10.9758	567.5257	12.3079
10.9779	554.651	12.3274
10.9787	575.108	12.3469
10.9808	570.2124	12.3665
10.9827	558.447	12.386
10.9847	574.069	12.4055
10.9853	580.0224	12.425
10.9881	561.978	12.44458
10.9901	571.6817	12.4641
10.9913	581.849	12.4836
10.993	569.292	12.5032
10.99325	570.114	12.5227
10.9963	587.26	12.5422
10.9971	576.186	12.5618
11.0001	568.8327	12.5813
11.0006	590.067	12.60083
11.00254	581.308	12.6204
11.0038	570.6134	12.6399
11.00547	590.631	12.6594
11.00738	590.757	12.679
11.0075	570.375	12.6985
11.0104	589.655	12.718
11.0118	594.718	12.7375
11.01415	578.809	12.75708
11.0149	587.846	12.7766
11.0173	601.935	12.7961
11.01901	579.52	12.8157
11.02	587.8576	12.8352
11.0207	605.102	12.8547
11.0238	593.186	12.8743
11.0238	586.0274	12.8938
11.0272	606.94	12.91333
11.0282	595.711	12.9329
11.0304	589.471	12.9524
11.0314	606.219	12.9719
11.0325	605.368	12.9915
11.0353	592.599	13.011
11.037	605.304	13.0305
11.03756	609.941	13.05
11.0394	593.165	13.06958
11.0416	605.079	13.0891
11.0433	617.903	13.1086
11.0449	601.2868	13.1282
11.0475	600.6311	13.1477
11.0476	620.79	13.1672
11.0498	607.805	13.1868
11.0504	602.172	13.2063
11.05165	621.138	13.22583
11.054	615.648	13.2454
11.0551	600.197	13.2649
11.05789	623.814	13.2844
11.0593	619.602	13.304
11.0608	606.904	13.3235
11.06206	623.274	13.343
11.0635	631.011	13.3625
11.0659	606.217	13.38208
11.067	620.991	13.4016
11.0688	632.027	13.4211
11.0694	618.169	13.4407
11.0724	619.105	13.4602
11.0741	637.412	13.4797
11.0763	619.5885	13.4993
11.0775	620.5	13.5188
11.0787	638.689	13.53833
11.0809	630.7793	13.5579
11.0824	619.945	13.5774
11.0843	640.196	13.5969
11.0849	634.91	13.6165
11.0866	623.707	13.636
11.0877	637.071	13.6555
11.09	644.042	13.675
11.0922	628.021	13.69458
11.0944	637.296	13.7141
11.0943	648.424	13.7336
11.0963	632.7243	13.7532
11.0982	634.905	13.7727
11.09968	654.025	13.7922
11.1015	640.785	13.8118
11.1027	632.0144	13.8313
11.10426	654.806	13.85083
11.1065	647.0885	13.8704
11.1083	635.876	13.8899
11.111	654.763	13.9094
11.1115	656.604	13.929
11.114	637.605	13.9485
11.1147	656.409	13.968
11.11632	659.407	13.9875
11.1177	642.767	14.00708
11.1192	654.639	14.0266
11.1214	667.386	14.0461
11.12236	646.41	14.0657
11.1248	652.007	14.0852
11.1254	667.67	14.1047
11.1265	655.553	14.1243
11.1285	652.219	14.1438
11.1309	670.566	14.16333
11.1318	661.078	14.1829
11.1334	652.909	14.2024
11.1364	671.315	14.2219
11.13774	669.467	14.2415
11.1385	652.1864	14.261
11.14	668.0611	14.2805
11.1415	676.11	14.3
11.1445	657.601	14.31958
11.146	668.6405	14.3391
11.1472	680.6131	14.3586
11.1493	665.075	14.3782
11.1505	665.528	14.3977
11.1515	685.578	14.4172
11.15367	669.456	14.4368
11.1554	667.227	14.4563
11.1568	687.098	14.47583
11.1584	682.075	14.4954
11.1594	664.623	14.5149
11.1619	688.036	14.5344
11.1636	685.969	14.554
11.1639	669.911	14.5735
11.1657	685.158	14.593
11.1678	693.4765	14.6125
11.1699	671.641	14.63208
11.1711	685.881	14.6516
11.1734	697.406	14.6711
11.1748	679.137	14.6907
11.1765	683.52	14.7102
11.1785	703.453	14.7297
11.1791	684.072	14.7493
11.18198	683.542	14.7688
11.1827	701.942	14.78833
11.185	695.526	14.8079
11.1865	685.236	14.8274
11.1867	701.161	14.8469
11.1895	699.133	14.8665
11.1913	686.546	14.886
11.1922	702.421	14.9055
11.1949	707.789	14.925
11.1959	690.199	14.94458
11.1973	697.309	14.9641
11.1985	713.344	14.9836
11.2006	695.449	15.0032
11.2022	698.1571	15.0227
11.203	717.449	15.0422
11.2049	704.201	15.0618
11.2075	695.391	15.0813
11.2085	719.806	15.10083
11.2105	708.685	15.1204
11.2115	698.161	15.1399
11.2145	718.893	15.1594
11.215	718.978	15.179
11.2175	696.593	15.1985
11.2184	717.491	15.218
11.22059	721.34	15.2375
11.22208	706.927	15.25708
11.2239	715.182	15.2766
11.2262	727.761	15.2961
11.2259	709.4917	15.3157
11.2282	716.878	15.3352
11.2304	731.788	15.3547
11.2324	717.032	15.3743
11.2331	714.3078	15.3938
11.2351	734.9079	15.41333
11.2366	724.76	15.4329
11.2375	714.5658	15.4524
11.24	732.4173	15.4719
11.2407	731.742	15.4915
11.2433	717.671	15.511
11.2442	730.965	15.5305
11.2464	736.902	15.55
11.2484	720.888	15.56958
11.2503	732.61	15.5891
11.2508	743.679	15.6086
11.25309	726.641	15.6282
11.2535	726.979	15.6477
11.2565	749.933	15.6672
11.2573	734.012	15.6868
11.2598	729.2182	15.7063
11.2611	749.118	15.72583
11.2619	741.947	15.7454
11.2648	727.589	15.7649
11.2646	748.747	15.7844
11.2673	745.278	15.804
11.26949	733.817	15.8235
11.272	748.117	15.843
11.2726	755.782	15.8625
11.275	733.4295	15.88208
11.2746	745.372	15.9016
11.2777	757.928	15.9211
11.2794	742.513	15.9407
11.2807	744.442	15.9602
11.2808	761.798	15.9797
11.2834	747.77	15.9993
11.2851	745.902	16.0188
11.2862	763.703	16.03833
11.2887	754.667	16.0579
11.2901	745.56	16.0774
11.29128	763.129	16.0969
11.2934	761.799	16.1165
11.2949	747.3562	16.136
11.2965	762.926	16.1555
11.299	768.824	16.175
11.2996	753.885	16.19458
11.3013	758.842	16.2141
11.3025	773.971	16.2336
11.3054	756.1	16.2532
11.30754	760.6239	16.2727
11.3082	777.502	16.2922
11.3107	764.0863	16.3118
11.3108	754.688	16.3313
11.3119	781.164	16.35083
11.3155	770.756	16.3704
11.316	758.905	16.3899
11.3175	778.529	16.4094
11.3187	780.517	16.429
11.3208	760.979	16.4485
11.3227	779.456	16.468
11.32464	780.975	16.4875
11.3255	767.189	16.50708
11.3274	776.594	16.5266
11.3285	789.52	16.5461
11.3311	768.982	16.5657
11.3328	773.7464	16.5852
11.3335	791.479	16.6047
11.3356	778.511	16.6243
11.3377	774.65	16.6438
11.3396	791.558	16.66333
11.3411	784.88	16.6829
11.342	774.154	16.7024
11.3434	792.888	16.7219
11.3457	791.317	16.7415
11.3468	777.403	16.761
11.3483	789.603	16.7805
11.3498	798.591	16.8
11.3515	780.101	16.81958
11.3517	790.282	16.8391
11.35535	801.776	16.8586
11.3569	788.28	16.8782
11.3586	785.242	16.8977
11.3609	806.597	16.9172
11.362	792.164	16.9368
11.3638	788.84	16.9563
11.3643	807.554	16.97583
11.3668	799.992	16.9954
11.3685	784.294	17.0149
11.3705	809.698	17.0344
11.37097	806.891	17.054
11.373	791.789	17.0735
11.3745	806.583	17.093
11.3763	812.828	17.1125
11.3778	792.738	17.13208
11.3791	806.44	17.1516
11.38	816.4859	17.1711
11.3833	800.4707	17.1907
11.3846	803.922	17.2102
11.38698	820.491	17.2297
11.3881	804.25	17.2493
11.3895	802.876	17.2688
11.3911	822.949	17.28833
11.3923	815.227	17.3079
11.3938	805.273	17.3274
11.396	819.991	17.3469
11.3979	821.698	17.3665
11.3992	806.319	17.386
11.4008	821.316	17.4055
11.4023	825.509	17.425
11.4036	811.371	17.44458
11.4058	816.835	17.4641
11.4072	832.763	17.4836
11.4087	814.211	17.5032
11.4108	819.519	17.5227
11.4103	834.65	17.5422
11.4139	823.0683	17.5618
11.4163	815.316	17.5813
11.417	836.948	17.60083
11.418	824.72	17.6204
11.42	817.978	17.6399
11.4232	836.617	17.6594
11.4235	834.014	17.679
11.4246	817.229	17.6985
11.4267	836.615	17.718
11.4284	841.414	17.7375
11.43043	824.685	17.75708
11.4322	831.6936	17.7766
11.4335	845.567	17.7961
11.4343	828.192	17.8157
11.4367	832.202	17.8352
11.4387	847.873	17.8547
11.4394	835.054	17.8743
11.4412	833.336	17.8938
11.4427	849.638	17.91333
11.4451	842.358	17.9329
11.44762	830.202	17.9524
11.449	851.876	17.9719
11.4501	849.035	17.9915
11.4508	834.948	18.011
11.4529	846.34	18.0305
11.4542	855.897	18.05
11.4565	837.905	18.06958
11.4585	847.185	18.0891
11.4596	859.473	18.1086
11.4612	843.086	18.1282
11.4621	842.106	18.1477
11.46462	863.962	18.1672
11.4657	847.4408	18.1868
11.46721	844.817	18.2063
11.4701	863.638	18.22583
11.4703	857.854	18.2454
11.4729	843.817	18.2649
11.4732	865.294	18.2844
11.47597	861.474	18.304
11.4772	847.305	18.3235
11.4791	864.409	18.343
11.4805	867.219	18.3625
11.4821	848.58	18.38208
11.484	861.385	18.4016
11.48642	873.017	18.4211
11.4872	856.417	18.4407
11.4883	858.569	18.4602
11.4901	874.403	18.4797
11.4921	860.1825	18.4993
11.4931	858.891	18.5188
11.4951	875.383	18.53833
11.4968	867.634	18.5579
11.4986	862.092	18.5774
11.50086	875.592	18.5969
11.5025	876.632	18.6165
11.5039	858.962	18.636
11.5052	876.589	18.6555
11.5053	881.842	18.675
11.5085	865.74	18.69458
11.51043	870.706	18.7141
11.5114	887.429	18.7336
11.513	869.937	18.7532
11.5147	874.854	18.7727
11.5159	889.412	18.7922
11.5182	875.816	18.8118
11.5187	869.871	18.8313
11.5206	893.968	18.85083
11.5228	881.641	18.8704
11.5249	871.549	18.8899
11.5259	893.549	18.9094
11.5281	889.201	18.929
11.529	872.272	18.9485
11.5312	888.091	18.968
11.5322	894.025	18.9875
11.5352	876.501	19.00708
11.5365	888.606	19.0266
11.5379	898.198	19.0461
11.5389	880.172	19.0657
11.54	886.778	19.0852
11.5424	902.116	19.1047
11.5435	888.229	19.1243
11.5447	884.982	19.1438
11.5468	900.932	19.16333
11.54849	895.096	19.1829
11.5509	884.612	19.2024
11.552	902.782	19.2219
11.5544	900.042	19.2415
11.5553	889.6817	19.261
11.55694	900.29	19.2805
11.5585	907.421	19.3
11.5598	889.171	19.31958
11.5614	902.34	19.3391
11.5624	911.83	19.3586
11.5644	896.255	19.3782
11.5661	894.962	19.3977
11.5687	914.681	19.4172
11.5701	901.611	19.4368
11.5716	899.382	19.4563
11.5726	916.439	19.47583
11.57531	907.48	19.4954
11.576	897.499	19.5149
11.5782	918.9444	19.5344
11.5797	912.49	19.554
11.5813	898.947	19.5735
11.58215	915.412	19.593
11.5847	919.281	19.6125
11.5865	902.72	19.63208
11.5882	911.4765	19.6516
11.5895	923.2821	19.6711
11.5917	906.217	19.6907
11.5926	912.647	19.7102
11.5936	923.824	19.7297
11.5969	912.462	19.7493
11.5968	909.913	19.7688
11.59916	928.663	19.78833
11.6009	919.14	19.8079
11.6027	911.7926	19.8274
11.6039	924.43	19.8469
11.6052	926.283	19.8665
11.6065	911.25	19.886
11.6098	928.436	19.9055
11.6111	931.243	19.925
11.6123	916.808	19.94458
11.61354	924.79	19.9641
11.6154	936.93	19.9836
11.6166	917.055	20.0032
11.61714	914.38	20.0129

Data Header:			0.254_solid_dimension_typei_4545_r0			Time:	40.0176	s	4/14/2019 4:59:02 AM
Data Acquisition:	Timed
Station Name:	ft40.cfg
Test File Name:	monotonic_0.2540_typei_solid_4545_dimension.tst
Displacement	Force	Running Time
mm	N	s
11.61869	924.078	20.0227
11.6196	940.126	20.0422
11.6215	925.003	20.0618
11.6236	917.77	20.0813
11.625	940.596	20.10083
11.6272	930.083	20.1204
11.6285	922.244	20.1399
11.63	940.467	20.1594
11.6318	936.14	20.179
11.6335	921.792	20.1985
11.6352	938.831	20.218
11.637	942.511	20.2375
11.6387	925.265	20.25708
11.6392	938.884	20.2766
11.64117	946.597	20.2961
11.6429	931.422	20.3157
11.6447	936.197	20.3352
11.6463	949.693	20.3547
11.6484	936.433	20.3743
11.6502	937.42	20.3938
11.6505	948.182	20.41333
11.6536	941.892	20.4329
11.6541	932.784	20.4524
11.65518	952.855	20.4719
11.658	950.093	20.4915
11.6597	935.758	20.511
11.6614	947.048	20.5305
11.6628	956.305	20.55
11.6644	938.931	20.56958
11.6662	949.386	20.5891
11.6679	959.55	20.6086
11.6701	942.028	20.6282
11.6714	943.415	20.6477
11.6719	961.5097	20.6672
11.6752	946.627	20.6868
11.676	944.951	20.7063
11.67842	963.959	20.72583
11.6793	953.457	20.7454
11.6805	943.41	20.7649
11.6828	962.244	20.7844
11.6838	960.28	20.804
11.6851	945.773	20.8235
11.6871	962.0271	20.843
11.689	963.1012	20.8625
11.6901	946.973	20.88208
11.6923	960.399	20.9016
11.694	970.521	20.9211
11.6954	952.698	20.9407
11.696	959.633	20.9602
11.6983	970.418	20.9797
11.70119	961.259	20.9993
11.7019	955.4314	21.0188
11.7021	972.607	21.03833
11.7042	964.396	21.0579
11.7076	957.627	21.0774
11.70839	970.724	21.0969
11.7093	972.187	21.1165
11.7118	956.381	21.136
11.7131	975.718	21.1555
11.7143	976.825	21.175
11.71678	962.111	21.19458
11.7183	967.5	21.2141
11.7199	982.184	21.2336
11.7223	965.789	21.2532
11.7231	970.2746	21.2727
11.725	984.66	21.2922
11.7263	970.383	21.3118
11.7275	965.759	21.3313
11.7298	987.2113	21.35083
11.7307	973.091	21.3704
11.7325	965.2561	21.3899
11.7336	986.387	21.4094
11.7358	981.093	21.429
11.7372	967.709	21.4485
11.7404	983.222	21.468
11.7403	988.352	21.4875
11.7419	972.243	21.50708
11.74439	982.318	21.5266
11.746	987.8	21.5461
11.7472	977.332	21.5657
11.749	980.32	21.5852
11.7505	994.343	21.6047
11.7524	980.438	21.6243
11.7535	979.694	21.6438
11.7561	994.39	21.66333
11.7577	988.5694	21.6829
11.7585	977.2688	21.7024
11.7604	996.009	21.7219
11.7624	992.297	21.7415
11.7641	981.668	21.761
11.7656	992.858	21.7805
11.7661	998.498	21.8
11.7684	980.853	21.81958
11.77	993.947	21.8391
11.7708	1001.7	21.8586
11.7727	984.8244	21.8782
11.7742	989.336	21.8977
11.7771	1005.13	21.9172
11.7775	990.002	21.9368
11.78052	989.554	21.9563
11.7804	1005.02	21.97583
11.7832	994.184	21.9954
11.7852	987.17	22.0149
11.7861	1006.917	22.0344
11.78853	1001.68	22.054
11.7893	988.034	22.0735
11.7917	1007.3	22.093
11.7927	1004.82	22.1125
11.7951	991.181	22.13208
11.7967	1001.912	22.1516
11.79809	1011.45	22.1711
11.8003	994.529	22.1907
11.8009	1003.51	22.2102
11.803	1008.76	22.2297
11.8043	998.923	22.2493
11.807	998.489	22.2688
11.8072	1017.33	22.28833
11.8088	1005.79	22.3079
11.8117	998.966	22.3274
11.8127	1012.83	22.3469
11.8136	1014.085	22.3665
11.8154	997.873	22.386
11.8174	1014.39	22.4055
11.8193	1017.3	22.425
11.8197	1000.9	22.44458
11.8211	1009.26	22.4641
11.8234	1021.25	22.4836
11.8255	1003.25	22.5032
11.8267	1010.06	22.5227
11.828	1025.47	22.5422
11.8302	1009.77	22.5618
11.8315	1006.75	22.5813
11.8335	1024.85	22.60083
11.8351	1014.06	22.6204
11.837	1006.98	22.6399
11.8381	1027.12	22.6594
11.8396	1018.81	22.679
11.842	1007.86	22.6985
11.8434	1022.56	22.718
11.8454	1025.72	22.7375
11.8466	1010.1	22.75708
11.8483	1021.49	22.7766
11.849	1028.25	22.7961
11.85208	1015.41	22.8157
11.8527	1015.85	22.8352
11.8548	1032.92	22.8547
11.8557	1019.44	22.8743
11.8575	1018.69	22.8938
11.8601	1030.49	22.91333
11.8607	1026.31	22.9329
11.86353	1015.36	22.9524
11.8652	1033.7	22.9719
11.8666	1028.88	22.9915
11.8676	1017.97	23.011
11.8692	1029.43	23.0305
11.87069	1035.3	23.05
11.8735	1018.86	23.06958
11.8739	1029.56	23.0891
11.876	1038.97	23.1086
11.878	1023.87	23.1282
11.8786	1028.38	23.1477
11.8803	1039.54	23.1672
11.8819	1025.812	23.1868
11.8838	1026.12	23.2063
11.8862	1043.85	23.22583
11.88677	1029.93	23.2454
11.88816	1024.166	23.2649
11.8909	1040.78	23.2844
11.8927	1037.76	23.304
11.8939	1025.52	23.3235
11.8944	1041.01	23.343
11.8974	1038.72	23.3625
11.898	1030.21	23.38208
11.9008	1038.92	23.4016
11.90215	1046.91	23.4211
11.9031	1032.74	23.4407
11.9047	1038.84	23.4602
11.9059	1048.04	23.4797
11.908	1035.2	23.4993
11.9098	1032.16	23.5188
11.9117	1051.95	23.53833
11.9141	1042.73	23.5579
11.9156	1035.08	23.5774
11.9159	1045.991	23.5969
11.91794	1047.28	23.6165
11.9196	1033.17	23.636
11.9208	1049.94	23.6555
11.9233	1050.1	23.675
11.9248	1035.23	23.69458
11.9259	1045.1	23.7141
11.9276	1053.84	23.7336
11.9285	1039.64	23.7532
11.9302	1043.26	23.7727
11.9331	1057.16	23.7922
11.9348	1040.38	23.8118
11.9366	1042.14	23.8313
11.93727	1056.72	23.85083
11.93959	1047.63	23.8704
11.9406	1041.38	23.8899
11.9424	1059.274	23.9094
11.9446	1049.69	23.929
11.9458	1041.13	23.9485
11.9483	1055.12	23.968
11.9488	1058.7	23.9875
11.9502	1043.23	24.00708
11.9524	1055.55	24.0266
11.9538	1057.19	24.0461
11.9553	1048.02	24.0657
11.9568	1051.98	24.0852
11.9603	1064.17	24.1047
11.9602	1051.18	24.1243
11.9624	1050.41	24.1438
11.963	1064.145	24.16333
11.9651	1057.22	24.1829
11.96699	1048.92	24.2024
11.9684	1064.01	24.2219
11.9707	1060.37	24.2415
11.971	1047.51	24.261
11.9736	1060.09	24.2805
11.9745	1064.63	24.3
11.9771	1050.75	24.31958
11.9784	1062.1	24.3391
11.9802	1069.11	24.3586
11.98109	1050.03	24.3782
11.9824	1058.952	24.3977
11.98479	1070.72	24.4172
11.9875	1058.6	24.4368
11.9879	1056.94	24.4563
11.9897	1074.18	24.47583
11.9918	1061.08	24.4954
11.9926	1057.29	24.5149
11.9947	1070.608	24.5344
11.9966	1066.78	24.554
11.9979	1057.27	24.5735
11.9987	1071.68	24.593
12.0011	1068.49	24.6125
12.0034	1057.859	24.63208
12.0046	1065.92	24.6516
12.0059	1075.78	24.6711
12.0072	1059.934	24.6907
12.0088	1067.99	24.7102
12.0111	1073.87	24.7297
12.0133	1065.92	24.7493
12.014	1063.593	24.7688
12.0145	1078.89	24.78833
12.0188	1067.46	24.8079
12.0196	1062.88	24.8274
12.0205	1077.84	24.8469
12.0224	1073.11	24.8665
12.0244	1061.06	24.886
12.0256	1075.33	24.9055
12.0282	1078.84	24.925
12.0292	1063.06	24.94458
12.0296	1072.21	24.9641
12.0312	1080.53	24.9836
12.0337	1066.75	25.0032
12.0348	1071.19	25.0227
12.0371	1084.61	25.0422
12.03866	1067.17	25.0618
12.0404	1068.93	25.0813
12.0413	1083.88	25.10083
12.04429	1073.57	25.1204
12.0458	1067.73	25.1399
12.0462	1084.01	25.1594
12.0482	1076.8	25.179
12.0504	1068.95	25.1985
12.05126	1080.63	25.218
12.0531	1083.64	25.2375
12.0545	1070.09	25.25708
12.0566	1082.38	25.2766
12.0585	1084.31	25.2961
12.0586	1072.41	25.3157
12.0614	1077.08	25.3352
12.062	1090.8	25.3547
12.0639	1075.45	25.3743
12.0655	1073.9	25.3938
12.0682	1087.03	25.41333
12.0699	1081.585	25.4329
12.0712	1074.59	25.4524
12.0736	1089.063	25.4719
12.0753	1085.56	25.4915
12.07535	1072.03	25.511
12.07735	1086.96	25.5305
12.0792	1088.18	25.55
12.0803	1072.88	25.56958
12.0827	1084.32	25.5891
12.0844	1093.79	25.6086
12.0857	1075.52	25.6282
12.0876	1081.15	25.6477
12.089	1091.92	25.6672
12.0908	1081.31	25.6868
12.0927	1080.2	25.7063
12.0942	1097.605	25.72583
12.0961	1081.62	25.7454
12.0974	1078.96	25.7649
12.0979	1094.65	25.7844
12.0994	1089.05	25.804
12.1026	1077.46	25.8235
12.1024	1092.993	25.843
12.1061	1090.54	25.8625
12.10758	1079.78	25.88208
12.1088	1087.3	25.9016
12.11041	1095.51	25.9211
12.1111	1080.73	25.9407
12.1129	1087.48	25.9602
12.1151	1096.32	25.9797
12.1172	1085.56	25.9993
12.1188	1082.42	26.0188
12.1198	1098.44	26.03833
12.1206	1089.7	26.0579
12.1228	1082.14	26.0774
12.1246	1095.28	26.0969
12.1266	1093.09	26.1165
12.1281	1082.11	26.136
12.1296	1094.37	26.1555
12.1318	1097.86	26.175
12.1332	1080.72	26.19458
12.1343	1095.27	26.2141
12.1355	1100.53	26.2336
12.1385	1084.35	26.2532
12.1397	1089.05	26.2727
12.1409	1103.82	26.2922
12.14348	1086.88	26.3118
12.1444	1090.02	26.3313
12.14561	1100.92	26.35083
12.1477	1094.87	26.3704
12.1484	1087.51	26.3899
12.1514	1104	26.4094
12.1521	1092.4	26.429
12.15395	1087.88	26.4485
12.1556	1098.97	26.468
12.1581	1101.563	26.4875
12.15836	1086.12	26.50708
12.1605	1098.11	26.5266
12.1623	1100.42	26.5461
12.1634	1089.59	26.5657
12.1651	1093.85	26.5852
12.1661	1104.9	26.6047
12.1692	1090.98	26.6243
12.17	1091.543	26.6438
12.1725	1104.96	26.66333
12.1734	1095.26	26.6829
12.1744	1087.93	26.7024
12.1767	1105.13	26.7219
12.1789	1103.24	26.7415
12.1803	1086.36	26.761
12.1824	1101.55	26.7805
12.1833	1103.73	26.8
12.1848	1092.5	26.81958
12.1869	1100.78	26.8391
12.1875	1109.55	26.8586
12.1901	1090.11	26.8782
12.1918	1099.59	26.8977
12.1939	1108.77	26.9172
12.194	1095.79	26.9368
12.1962	1094.94	26.9563
12.1975	1112.58	26.97583
12.1995	1097.65	26.9954
12.2014	1094.77	27.0149
12.2035	1107.311	27.0344
12.2047	1105.16	27.054
12.2065	1092.83	27.0735
12.2076	1108.83	27.093
12.2092	1102.43	27.1125
12.2112	1094.71	27.13208
12.2123	1103.45	27.1516
12.21461	1111.3	27.1711
12.2156	1094.75	27.1907
12.2175	1099.34	27.2102
12.2195	1110.05	27.2297
12.2214	1097.49	27.2493
12.2222	1097.75	27.2688
12.22432	1110.59	27.28833
12.2252	1102.64	27.3079
12.2268	1096.069	27.3274
12.2286	1110.83	27.3469
12.2306	1105.6	27.3665
12.2319	1094.84	27.386
12.23309	1110.65	27.4055
12.2362	1113.093	27.425
12.2366	1093.723	27.44458
12.2383	1106.118	27.4641
12.2403	1112.25	27.4836
12.2431	1098.49	27.5032
12.2437	1104.34	27.5227
12.2452	1115.35	27.5422
12.24702	1097.62	27.5618
12.248	1101.46	27.5813
12.2509	1114.89	27.60083
12.2515	1105.41	27.6204
12.253	1098.35	27.6399
12.255	1115.33	27.6594
12.2568	1105.13	27.679
12.2584	1097.6	27.6985
12.2599	1109.82	27.718
12.26172	1111.17	27.7375
12.263	1097.74	27.75708
12.2649	1109.1	27.7766
12.2658	1110.14	27.7961
12.2685	1098.22	27.8157
12.2693	1104.64	27.8352
12.2709	1115.54	27.8547
12.2728	1103.382	27.8743
12.27492	1098.882	27.8938
12.2749	1115.37	27.91333
12.2779	1106.36	27.9329
12.2792	1100.35	27.9524
12.2807	1112.02	27.9719
12.2832	1110.79	27.9915
12.2849	1095.11	28.011
12.2856	1112.61	28.0305
12.2872	1111.93	28.05
12.2894	1098.92	28.06958
12.2902	1109.09	28.0891
12.2918	1118.36	28.1086
12.2946	1098.37	28.1282
12.2962	1107.19	28.1477
12.2961	1116.24	28.1672
12.3009	1106.582	28.1868
12.30027	1103.68	28.2063
12.3014	1119.15	28.22583
12.3036	1104.71	28.2454
12.3053	1103.36	28.2649
12.3067	1117.25	28.2844
12.309	1111.33	28.304
12.3099	1099.79	28.3235
12.3122	1114.16	28.343
12.3131	1112.04	28.3625
12.3146	1101.04	28.38208
12.3161	1111.42	28.4016
12.3182	1116.7	28.4211
12.3196	1103.59	28.4407
12.3223	1105.4	28.4602
12.3238	1116.02	28.4797
12.3249	1105.63	28.4993
12.3267	1104.95	28.5188
12.328	1119.157	28.53833
12.3294	1109.29	28.5579
12.3319	1099.421	28.5774
12.3332	1117.71	28.5969
12.3348	1111.73	28.6165
12.3368	1102.77	28.636
12.33743	1115.14	28.6555
12.33957	1117.86	28.675
12.3405	1098.6	28.69458
12.3424	1114.08	28.7141
12.3444	1117.986	28.7336
12.34596	1104.17	28.7532
12.3473	1108.74	28.7727
12.3494	1121.8	28.7922
12.349	1102.77	28.8118
12.3525	1106.19	28.8313
12.3543	1120.47	28.85083
12.3554	1109.68	28.8704
12.3569	1104.19	28.8899
12.3587	1118.6	28.9094
12.3604	1111.848	28.929
12.3616	1103.89	28.9485
12.3643	1115.16	28.968
12.3653	1116.68	28.9875
12.3668	1102.16	29.00708
12.3692	1112.67	29.0266
12.3708	1118.14	29.0461
12.37276	1105.18	29.0657
12.3737	1108.42	29.0852
12.37584	1120.212	29.1047
12.3775	1110.36	29.1243
12.3784	1104.41	29.1438
12.3801	1119.39	29.16333
12.3827	1109.09	29.1829
12.3836	1104.45	29.2024
12.38553	1120.35	29.2219
12.3867	1116.74	29.2415
12.38859	1099.88	29.261
12.38897	1118.47	29.2805
12.3911	1117.12	29.3
12.3938	1103.97	29.31958
12.3945	1113.86	29.3391
12.39616	1121.47	29.3586
12.3982	1103.4	29.3782
12.3999	1112.02	29.3977
12.4025	1121.32	29.4172
12.4027	1106.47	29.4368
12.4055	1108.3	29.4563
12.4055	1124.34	29.47583
12.4077	1108.95	29.4954
12.4089	1106.84	29.5149
12.4112	1120.27	29.5344
12.4119	1116.3	29.554
12.41441	1106.24	29.5735
12.41564	1117.36	29.593
12.4181	1115.75	29.6125
12.4191	1104.45	29.63208
12.4213	1115.71	29.6516
12.42235	1120.31	29.6711
12.424	1105.71	29.6907
12.4261	1110.02	29.7102
12.4277	1122.9	29.7297
12.42938	1108.99	29.7493
12.4305	1108.18	29.7688
12.4323	1121.49	29.78833
12.4336	1113.832	29.8079
12.4352	1103.733	29.8274
12.4364	1121.82	29.8469
12.4391	1114.25	29.8665
12.4399	1105.51	29.886
12.4426	1119.61	29.9055
12.4447	1120.75	29.925
12.4445	1100.44	29.94458
12.4467	1117.75	29.9641
12.44804	1122.11	29.9836
12.4509	1109.07	30.0032
12.4521	1111.36	30.0227
12.4536	1123.13	30.0422
12.4552	1106.86	30.0618
12.457	1109.76	30.0813
12.4584	1122.48	30.10083
12.4609	1112.94	30.1204
12.46169	1107.31	30.1399
12.4634	1122.693	30.1594
12.4653	1112.97	30.179
12.466	1105.07	30.1985
12.4676	1118.92	30.218
12.46982	1119.2	30.2375
12.4714	1106.14	30.25708
12.4727	1114.96	30.2766
12.4747	1120.08	30.2961
12.4761	1107.58	30.3157
12.4766	1113.24	30.3352
12.4799	1123.42	30.3547
12.4813	1108.1	30.3743
12.4825	1107.53	30.3938
12.4836	1125.41	30.41333
12.4865	1111.546	30.4329
12.48815	1107.72	30.4524
12.4892	1121.86	30.4719
12.4909	1118.57	30.4915
12.4922	1104.55	30.511
12.4944	1120.48	30.5305
12.4948	1118.02	30.55
12.4988	1105.7	30.56958
12.4988	1115.84	30.5891
12.5014	1123.22	30.6086
12.5024	1103.48	30.6282
12.5045	1113.46	30.6477
12.5067	1123.25	30.6672
12.5068	1110.95	30.6868
12.5092	1108.68	30.7063
12.5105	1123.02	30.72583
12.512	1110.42	30.7454
12.5143	1106.77	30.7649
12.5148	1120.34	30.7844
12.5174	1114.02	30.804
12.5185	1105.89	30.8235
12.5201	1118.6	30.843
12.5213	1117.912	30.8625
12.5233	1104.31	30.88208
12.5257	1115.48	30.9016
12.5267	1120.85	30.9211
12.5287	1108.43	30.9407
12.5294	1109.53	30.9602
12.53184	1121.43	30.9797
12.53327	1109.02	30.9993
12.5356	1108.47	31.0188
12.53628	1122.96	31.03833
12.5383	1111.02	31.0579
12.5393	1103.12	31.0774
12.541	1122.93	31.0969
12.54237	1117.73	31.1165
12.545	1104.76	31.136
12.5458	1117.83	31.1555
12.5487	1119.55	31.175
12.55	1102.34	31.19458
12.5516	1117.31	31.2141
12.5532	1119.43	31.2336
12.5542	1105.59	31.2532
12.5561	1114.06	31.2727
12.5582	1122.407	31.2922
12.5585	1104.3	31.3118
12.5616	1107.44	31.3313
12.5622	1122.693	31.35083
12.5636	1111.7	31.3704
12.5656	1106.23	31.3899
12.5673	1118.8	31.4094
12.5693	1114.66	31.429
12.5716	1106.1	31.4485
12.5722	1118.83	31.468
12.5749	1116.82	31.4875
12.5757	1106.02	31.50708
12.5778	1112.8	31.5266
12.5785	1121.99	31.5461
12.5806	1104.25	31.5657
12.5822	1110.8	31.5852
12.5844	1123.93	31.6047
12.58482	1110.527	31.6243
12.5864	1105.34	31.6438
12.5893	1122.47	31.66333
12.5902	1110.52	31.6829
12.5915	1106	31.7024
12.5942	1121.23	31.7219
12.5948	1115.83	31.7415
12.5965	1101.18	31.761
12.5989	1120.41	31.7805
12.59894	1117.17	31.8
12.602	1103.98	31.81958
12.6033	1113.65	31.8391
12.6049	1123.51	31.8586
12.6064	1104.07	31.8782
12.6084	1112.67	31.8977
12.61	1121.43	31.9172
12.6105	1108.2	31.9368
12.6121	1109.18	31.9563
12.6153	1122.8	31.97583
12.6167	1108.82	31.9954
12.6169	1105.3	32.0149
[...]
15.0172	1086.97	60.804
15.0176	1074.96	60.8235
15.0199	1092.51	60.843
15.022	1089.9	60.8625
15.0234	1076.55	60.88208
15.0247	1089.4	60.9016
15.0271	1092.07	60.9211
15.0277	1076.55	60.9407
15.029	1083.92	60.9602
15.0313	1095.02	60.9797
15.0325	1082.16	60.9993
15.0342	1081.886	61.0188
15.0367	1091.73	61.03833
15.0377	1083.99	61.0579
15.0404	1079.31	61.0774
15.0404	1093.71	61.0969
15.0422	1086.69	61.1165
15.0445	1077.9	61.136
15.0466	1089.56	61.1555
15.0479	1093.31	61.175
15.0493	1076.09	61.19458
15.051	1086.96	61.2141
15.0534	1092.454	61.2336
15.0538	1080.54	61.2532
15.05687	1083.25	61.2727
15.0568	1095.07	61.2922
15.059	1080.33	61.3118
15.0603	1082.6	61.3313
15.06131	1096.22	61.35083
15.0643	1084.09	61.3704
15.0648	1074.62	61.3899
15.0674	1095.21	61.4094
15.0694	1086.9	61.429
15.07009	1076.42	61.4485
15.0719	1091.91	61.468
15.0734	1089.95	61.4875
15.0753	1076.58	61.50708
15.0766	1088.96	61.5266
15.0775	1093.182	61.5461
15.08031	1077.38	61.5657
15.0826	1085.592	61.5852
15.0838	1093.47	61.6047
15.0846	1080.61	61.6243
15.0873	1078.68	61.6438
15.08881	1095.32	61.66333
15.0899	1085.75	61.6829
15.0907	1080.62	61.7024
15.09244	1090.37	61.7219
15.095	1086.95	61.7415
15.0971	1076.87	61.761
15.0984	1092.86	61.7805
15.0998	1091.06	61.8
15.1014	1078.9	61.81958
15.1037	1085.2	61.8391
15.1047	1095.71	61.8586
15.1066	1077.46	61.8782
15.1076	1084.903	61.8977
15.1088	1094.44	61.9172
15.1106	1083.1	61.9368
15.1123	1080.23	61.9563
15.11384	1095.35	61.97583
15.117	1083.28	61.9954
15.1174	1077.65	62.0149
15.1191	1095.26	62.0344
15.121	1088.58	62.054
15.1226	1074.07	62.0735
15.1242	1091.47	62.093
15.1263	1090.65	62.1125
15.1265	1076.91	62.13208
15.1292	1086.99	62.1516
15.1316	1091.51	62.1711
15.132	1079.12	62.1907
15.1347	1086.55	62.2102
15.1359	1094.99	62.2297
15.1375	1080.8	62.2493
15.1391	1083.09	62.2688
15.13976	1093.75	62.28833
15.1422	1083.86	62.3079
15.1439	1077.11	62.3274
15.1449	1093.4	62.3469
15.1471	1087.85	62.3665
15.1491	1078.53	62.386
15.1499	1086.9	62.4055
15.1521	1091.22	62.425
15.1542	1074.7	62.44458
15.1548	1089.36	62.4641
15.1563	1093.6	62.4836
15.1579	1079.13	62.5032
15.16	1081.95	62.5227
15.1621	1096.14	62.5422
15.162	1078.6	62.5618
15.1641	1079.18	62.5813
15.1661	1095.011	62.60083
15.1678	1082.48	62.6204
15.1696	1076.48	62.6399
15.1719	1093.28	62.6594
15.173	1085.7	62.679
15.1746	1074.65	62.6985
15.1758	1091.66	62.718
15.1782	1089.72	62.7375
15.1795	1072.8	62.75708
15.1815	1085.76	62.7766
15.1833	1094.16	62.7961
15.184	1076.87	62.8157
15.1861	1085.63	62.8352
15.1875	1090.78	62.8547
15.1889	1080.84	62.8743
15.1904	1080.14	62.8938
15.1931	1094.458	62.91333
15.1942	1081.81	62.9329
15.1961	1079.59	62.9524
15.1978	1090.92	62.9719
15.1985	1087.42	62.9915
15.2017	1074.41	63.011
15.2017	1090.82	63.0305
15.2039	1090.34	63.05
15.206	1078.36	63.06958
15.208	1083.19	63.0891
15.2077	1094.83	63.1086
15.2109	1077.89	63.1282
15.2117	1085.58	63.1477
15.2139	1096.15	63.1672
15.2154	1079.67	63.1868
15.2162	1077.25	63.2063
15.2187	1096.84	63.22583
15.22015	1081.45	63.2454
15.2215	1075.48	63.2649
15.2233	1093.15	63.2844
15.2252	1085.778	63.304
15.2268	1075.58	63.3235
15.2279	1090.63	63.343
15.2291	1088.856	63.3625
15.2316	1074.08	63.38208
15.234	1089.49	63.4016
15.2339	1092.03	63.4211
15.2363	1076.99	63.4407
15.2384	1082.78	63.4602
15.2392	1094.73	63.4797
15.2406	1080.24	63.4993
15.2428	1082.49	63.5188
15.244	1090.72	63.53833
15.2466	1085.24	63.5579
15.2472	1075.15	63.5774
15.2483	1092.17	63.5969
15.2508	1085.54	63.6165
15.2524	1076.46	63.636
15.2544	1087.562	63.6555
15.2554	1090.59	63.675
15.2573	1074.14	63.69458
15.2589	1086.05	63.7141
15.2604	1093.19	63.7336
15.2628	1078.41	63.7532
15.2633	1082.42	63.7727
15.2658	1093.94	63.7922
15.267	1076.37	63.8118
15.2682	1080.13	63.8313
15.2699	1094.66	63.85083
15.2722	1081.69	63.8704
15.274	1073.88	63.8899
15.275	1091.78	63.9094
15.2771	1086.19	63.929
15.2787	1074.1	63.9485
15.28	1090.54	63.968
15.2815	1088.9	63.9875
15.28362	1075.978	64.00708
15.2845	1086.81	64.0266
15.2859	1092.33	64.0461
15.2887	1076.172	64.0657
15.29	1085.55	64.0852
15.2923	1092.796	64.1047
15.2922	1079.59	64.1243
15.295	1077.7	64.1438
15.2962	1094.44	64.16333
15.29805	1084.62	64.1829
15.2996	1079.2	64.2024
15.3016	1087.81	64.2219
15.3031	1087.09	64.2415
15.3054	1076.56	64.261
15.3064	1091.05	64.2805
15.3077	1089.01	64.3
15.3099	1075.24	64.31958
15.3107	1083.64	64.3391
15.313	1094.55	64.3586
15.3146	1074.47	64.3782
15.3164	1082.74	64.3977
15.3173	1093.74	64.4172
15.3197	1081	64.4368
15.3216	1077.23	64.4563
15.3222	1092.056	64.47583
15.3237	1082.74	64.4954
15.3251	1076.69	64.5149
15.32854	1094.78	64.5344
15.3292	1086.11	64.554
15.3315	1075.34	64.5735
15.3319	1088.5	64.593
15.3344	1090.07	64.6125
15.3349	1075.46	64.63208
15.3376	1087.219	64.6516
15.3405	1089.28	64.6711
15.3405	1078.51	64.6907
15.3423	1082.35	64.7102
15.3442	1093.38	64.7297
15.3451	1077.79	64.7493
15.3459	1081.52	64.7688
15.3487	1091.29	64.78833
15.3513	1084.91	64.8079
15.3514	1073.65	64.8274
15.3542	1092.26	64.8469
15.3536	1087.2	64.8665
15.3566	1077.94	64.886
15.3595	1086.933	64.9055
15.3597	1090.95	64.925
15.3612	1074.82	64.94458
15.36374	1087.18	64.9641
15.366	1092.02	64.9836
15.366	1076.55	65.0032
15.3684	1080.344	65.0227
15.3704	1093.99	65.0422
15.3714	1077.35	65.0618
15.3732	1078.02	65.0813
15.3752	1093.56	65.10083
15.3752	1082.95	65.1204
15.3786	1075.89	65.1399
15.3804	1092.021	65.1594
15.3813	1085.47	65.179
15.3819	1075.04	65.1985
15.3846	1091.52	65.218
15.3857	1087.09	65.2375
15.3879	1074.96	65.25708
15.39	1084.76	65.2766
15.3911	1092.55	65.2961
15.3926	1077.868	65.3157
15.3938	1084.46	65.3352
15.3948	1089.98	65.3547
15.39759	1081.609	65.3743
15.3995	1078.02	65.3938
15.40088	1092.04	65.41333
15.4019	1082.1	65.4329
15.4042	1077.98	65.4524
15.4056	1088.68	65.4719
15.4072	1089.04	65.4915
15.4089	1072.49	65.511
15.40993	1089.55	65.5305
15.4125	1091.85	65.55
15.4132	1075.709	65.56958
15.4152	1083.05	65.5891
15.4171	1090.97	65.6086
15.4195	1074.66	65.6282
15.4197	1080.97	65.6477
15.4216	1093.58	65.6672
15.4231	1077.1	65.6868
15.4263	1077.14	65.7063
15.4263	1093.514	65.72583
15.4279	1082.14	65.7454
15.4307	1073.94	65.7649
15.43144	1093.58	65.7844
15.4331	1084.33	65.804
15.4359	1075.92	65.8235
15.43665	1087.33	65.843
15.4379	1089.33	65.8625
15.4401	1075.21	65.88208
15.4415	1088.83	65.9016
15.4421	1087.85	65.9211
15.4447	1075.73	65.9407
15.4467	1080.09	65.9602
15.4471	1092.79	65.9797
15.4494	1080.41	65.9993
15.4514	1080.4	66.0188
15.452	1089.76	66.03833
15.4543	1085.131	66.0579
15.45626	1074.53	66.0774
15.4582	1091.89	66.0969
15.4596	1084.957	66.1165
15.46182	1076.535	66.136
15.4635	1086.67	66.1555
15.4638	1090.11	66.175
15.4649	1073.81	66.19458
15.4678	1085.23	66.2141
15.4684	1092.86	66.2336
15.47	1076.16	66.2532
15.4716	1079.774	66.2727
15.4737	1092.76	66.2922
15.4756	1078.37	66.3118
15.4774	1077.54	66.3313
15.4793	1093.67	66.35083
15.4807	1080.27	66.3704
15.4819	1075.61	66.3899
15.4831	1090.19	66.4094
15.486	1085.179	66.429
15.4858	1074.14	66.4485
15.4883	1090.12	66.468
15.4908	1086.36	66.4875
15.4921	1078.29	66.50708
15.4929	1085.04	66.5266
15.4964	1090.9	66.5461
15.497	1075.71	66.5657
15.49827	1083.63	66.5852
15.5013	1090.74	66.6047
15.5007	1079.08	66.6243
15.5024	1078.4	66.6438
15.50623	1095.39	66.66333
15.5053	1083.36	66.6829
15.5082	1075.69	66.7024
15.5098	1087.85	66.7219
15.5111	1086.78	66.7415
15.5125	1073.17	66.761
15.51527	1087.61	66.7805
15.5167	1088.25	66.8
15.5171	1074.79	66.81958
15.5192	1084.54	66.8391
15.52168	1093.66	66.8586
15.5239	1073.41	66.8782
15.5248	1080.246	66.8977
15.5269	1094.33	66.9172
15.5275	1078.51	66.9368
15.5295	1076.36	66.9563
15.5307	1091.77	66.97583
15.5335	1081.33	66.9954
15.5343	1075.4	67.0149
15.5363	1092.41	67.0344
15.5377	1083.285	67.054
15.5388	1073.69	67.0735
15.5405	1086.67	67.093
15.5423	1089.86	67.1125
15.5431	1074.74	67.13208
15.5445	1086.26	67.1516
15.5483	1087.54	67.1711
15.5488	1077.16	67.1907
15.5503	1079.64	67.2102
15.55257	1090.953	67.2297
15.5545	1078.218	67.2493
15.5549	1078.76	67.2688
15.5573	1089.03	67.28833
15.5585	1082.41	67.3079
15.55929	1074.41	67.3274
15.5615	1090.25	67.3469
15.5639	1087.64	67.3665
15.5659	1074.77	67.386
15.5678	1085.22	67.4055
15.5671	1089.67	67.425
15.56919	1073.87	67.44458
15.57251	1084.36	67.4641
15.5733	1089.83	67.4836
15.5749	1073.995	67.5032
15.57588	1080.86	67.5227
15.5786	1093.35	67.5422
15.58	1075.63	67.5618
15.5817	1076.8	67.5813
15.5834	1094.28	67.60083
15.5845	1079.71	67.6204
15.5867	1075.58	67.6399
15.5876	1088.17	67.6594
15.5895	1083.345	67.679
15.5918	1074.49	67.6985
15.5926	1089.114	67.718
15.5937	1084.42	67.7375
15.5956	1076.028	67.75708
15.598	1085.26	67.7766
15.59922	1090.64	67.7961
15.6016	1074.29	67.8157
15.6023	1080.96	67.8352
15.6047	1087.75	67.8547
15.6056	1080.03	67.8743
15.6075	1075.65	67.8938
15.61	1090.996	67.91333
15.6101	1082.43	67.9329
15.61243	1074.81	67.9524
15.61426	1087.58	67.9719
15.6157	1082.06	67.9915
15.6175	1071.86	68.011
15.6192	1086.485	68.0305
15.6205	1088.98	68.05
15.6225	1072.52	68.06958
15.6234	1081.2	68.0891
15.626	1089.29	68.1086
15.6268	1076.46	68.1282
15.6289	1078.75	68.1477
15.6298	1090.78	68.1672
15.6313	1074.8	68.1868
15.6327	1077.97	68.2063
15.6347	1091.48	68.22583
15.6363	1081.65	68.2454
15.639	1074.15	68.2649
15.6399	1091.57	68.2844
15.6416	1084.18	68.304
15.644	1074.88	68.3235
15.6444	1085.62	68.343
15.6458	1085.74	68.3625
15.6477	1074.48	68.38208
15.6491	1084.87	68.4016
15.6509	1085.36	68.4211
15.6525	1075.04	68.4407
15.6543	1080.35	68.4602
15.6559	1092.06	68.4797
15.6573	1076.37	68.4993
15.66	1076.39	68.5188
15.6614	1087.328	68.53833
15.6635	1080.73	68.5579
15.6644	1071.97	68.5774
15.6649	1088.7	68.5969
15.6675	1085.92	68.6165
15.66994	1072.45	68.636
15.6708	1084.8	68.6555
15.6724	1085.43	68.675
15.6745	1070.79	68.69458
15.6756	1082.998	68.7141
15.6773	1090.79	68.7336
15.679	1072.73	68.7532
15.6812	1078.6	68.7727
15.682	1088.79	68.7922
15.6831	1076.45	68.8118
15.684	1076.679	68.8313
15.6868	1091.7	68.85083
15.6887	1078.42	68.8704
15.6918	1076.36	68.8899
15.6925	1087.96	68.9094
15.69474	1084.09	68.929
15.6958	1072	68.9485
15.6969	1088.49	68.968
15.6981	1083.36	68.9875
15.6999	1074.73	69.00708
15.70171	1082.07	69.0266
15.7033	1089.41	69.0461
15.7064	1074.74	69.0657
15.7067	1081.974	69.0852
15.7087	1086.85	69.1047
15.7107	1078.7	69.1243
15.7125	1076.52	69.1438
15.7129	1090.44	69.16333
15.7151	1081.15	69.1829
15.7156	1073.797	69.2024
15.7169	1087.19	69.2219
15.7199	1084.34	69.2415
15.7207	1072.798	69.261
15.7229	1086.11	69.2805
15.7228	1088.15	69.3
15.7254	1073.41	69.31958
15.7279	1083.92	69.3391
15.7306	1087.172	69.3586
15.7308	1074.28	69.3782
15.733	1079.67	69.3977
15.735	1092.333	69.4172
15.7353	1075.07	69.4368
15.7372	1076.79	69.4563
15.73912	1090.28	69.47583
15.74119	1080.618	69.4954
15.7424	1074.97	69.5149
15.7447	1089.568	69.5344
15.7458	1080.49	69.554
15.74755	1073.84	69.5735
15.7491	1085.32	69.593
15.7506	1084.94	69.6125
15.7522	1071.108	69.63208
15.7536	1083.26	69.6516
15.7565	1087.07	69.6711
15.7569	1075.81	69.6907
15.7587	1076.989	69.7102
15.7606	1090.59	69.7297
15.76169	1079.04	69.7493
15.764	1076.84	69.7688
15.7663	1087.72	69.78833
15.7668	1080.22	69.8079
15.7696	1073.93	69.8274
15.7702	1086.69	69.8469
15.77228	1083.64	69.8665
15.77334	1070.18	69.886
15.77564	1084.66	69.9055
15.7774	1086.106	69.925
15.7781	1071.93	69.94458
15.7799	1082.09	69.9641
15.7813	1089.76	69.9836
15.7833	1072.15	70.0032
15.7849	1081.251	70.0227
15.7876	1088.11	70.0422
15.7897	1075.11	70.0618
15.79	1076.67	70.0813
15.7922	1092.16	70.10083
15.7919	1076.131	70.1204
15.7945	1073.55	70.1399
15.7957	1086.214	70.1594
15.7972	1084.63	70.179
15.7997	1072.96	70.1985
15.8	1087.33	70.218
15.8021	1083.2	70.2375
15.8035	1074.22	70.25708
15.8069	1082.2	70.2766
15.8083	1088.39	70.2961
15.8087	1074.67	70.3157
15.8119	1080.16	70.3352
15.813	1088.02	70.3547
15.81406	1075.95	70.3743
15.8155	1073.84	70.3938
15.8181	1089.01	70.41333
15.81933	1080.52	70.4329
15.8212	1072.37	70.4524
15.8218	1087.84	70.4719
15.8237	1080.44	70.4915
15.82574	1071.4	70.511
15.82747	1085.15	70.5305
15.8292	1087.42	70.55
15.8297	1068.82	70.56958
15.8316	1082.99	70.5891
15.8326	1088.25	70.6086
15.8356	1074.2	70.6282
15.8367	1077.66	70.6477
15.8376	1092.26	70.6672
15.84063	1075.11	70.6868
15.8422	1076.61	70.7063
15.84322	1086.41	70.72583
15.845	1078.33	70.7454
15.847	1074.22	70.7649
15.84849	1089.77	70.7844
15.8506	1078.78	70.804
15.851	1072.16	70.8235
15.8525	1084.13	70.843
15.8546	1088.04	70.8625
15.8573	1074.34	70.88208
15.858	1082.76	70.9016
15.8594	1084.68	70.9211
15.8608	1074.81	70.9407
15.8626	1079.42	70.9602
15.8644	1089.7	70.9797
15.8664	1077.94	70.9993
15.8677	1074.99	71.0188
15.8694	1089.95	71.03833
15.8713	1078.52	71.0579
15.8722	1071.6	71.0774
15.8746	1086.85	71.0969
15.8763	1084.08	71.1165
15.8776	1069.72	71.136
15.8781	1085.55	71.1555
15.8803	1083.1	71.175
15.8833	1071.73	71.19458
15.8838	1082.79	71.2141
15.8861	1089.65	71.2336
15.8874	1069.34	71.2532
15.88954	1079.85	71.2727
15.8908	1089.49	71.2922
15.8911	1076.2	71.3118
15.8939	1074.88	71.3313
15.8958	1088.85	71.35083
15.8976	1075.61	71.3704
15.8983	1073.98	71.3899
15.90013	1085.75	71.4094
15.9015	1080.21	71.429
15.90315	1071.5	71.4485
15.905	1087.43	71.468
15.9079	1082.32	71.4875
15.9085	1071.51	71.50708
15.9108	1080.65	71.5266
15.9112	1086.27	71.5461
15.9137	1073.86	71.5657
15.9153	1076.07	71.5852
15.9169	1087.48	71.6047
15.9179	1073.9	71.6243
15.9198	1074.056	71.6438
15.9208	1085.83	71.66333
15.9231	1077.5	71.6829
15.9247	1070.08	71.7024
15.9271	1088.07	71.7219
15.9284	1080.07	71.7415
15.9298	1070.28	71.761
15.9314	1085.11	71.7805
15.9332	1086.31	71.8
15.9339	1069.6	71.81958
15.9361	1081.72	71.8391
15.9386	1084.843	71.8586
15.93867	1072.57	71.8782
15.9419	1080.2	71.8977
15.9435	1090.72	71.9172
15.9444	1071.93	71.9368
15.9459	1075.84	71.9563
15.9476	1087.63	71.97583
15.9494	1078.44	71.9954
15.95078	1072.17	72.0149
15.9524	1087	72.0344
15.95387	1079.48	72.054
15.9561	1071.72	72.0735
15.958	1083.129	72.093
15.9598	1084.83	72.1125
15.96036	1073.101	72.13208
15.963	1080.54	72.1516
15.9642	1084.85	72.1711
15.9653	1071.1	72.1907
15.9672	1077.15	72.2102
15.9682	1087.28	72.2297
15.9697	1075.61	72.2493
15.9718	1072.19	72.2688
15.9729	1087.69	72.28833
15.9757	1077.1	72.3079
15.9764	1071.36	72.3274
15.9773	1085.92	72.3469
15.9798	1082.28	72.3665
15.98173	1067.16	72.386
15.9839	1086	72.4055
15.9848	1083.43	72.425
15.9874	1070.28	72.44458
15.9883	1082.32	72.4641
15.9893	1088.58	72.4836
15.9919	1068.82	72.5032
15.9934	1078.8	72.5227
15.99404	1085.6	72.5422
15.99631	1074.71	72.5618
15.9977	1074.74	72.5813
15.9995	1088.99	72.60083
16.0004	1073.493	72.6204
16.0029	1071.998	72.6399
16.00466	1086.35	72.6594
16.0065	1080.24	72.679
16.0084	1070.84	72.6985
16.0096	1082.41	72.718
16.0113	1084.67	72.7375
16.0123	1071.87	72.75708
16.0144	1079.55	72.7766
16.0159	1084.61	72.7961
16.0179	1072.27	72.8157
16.0196	1076.08	72.8352
16.0199	1087.95	72.8547
16.0224	1071.5	72.8743
16.02371	1074.58	72.8938
16.0261	1087.483	72.91333
16.0284	1080.2	72.9329
16.0293	1068.45	72.9524
16.0306	1086.78	72.9719
16.0324	1078.48	72.9915
16.0329	1071.61	73.011
16.0358	1084.03	73.0305
16.0375	1083.616	73.05
16.039	1066	73.06958
16.041	1083	73.0891
16.0416	1085.14	73.1086
16.0438	1070.65	73.1282
16.0456	1077.001	73.1477
16.0473	1088.82	73.1672
16.0486	1071.41	73.1868
16.0505	1074.06	73.2063
16.05143	1084.57	73.22583
16.0543	1075.87	73.2454
16.0558	1072.68	73.2649
16.0569	1086.05	73.2844
16.05825	1076.354	73.304
16.05979	1070.47	73.3235
16.0616	1082.78	73.343
16.063	1082.12	73.3625
16.06522	1071.27	73.38208
16.0666	1078.26	73.4016
16.068	1084.525	73.4211
16.0697	1069.8	73.4407
16.0718	1076.82	73.4602
16.073	1084.24	73.4797
16.0753	1076.19	73.4993
16.0767	1071.87	73.5188
16.07869	1087.77	73.53833
16.08	1073.89	73.5579
16.0817	1070.67	73.5774
16.0829	1086.31	73.5969
16.0846	1082.11	73.6165
16.0864	1065.78	73.636
16.0879	1083.23	73.6555
16.0883	1081.45	73.675
16.0895	1069.63	73.69458
16.0931	1080.52	73.7141
16.0947	1085.47	73.7336
16.0955	1066.14	73.7532
16.0976	1077.94	73.7727
16.0991	1086.12	73.7922
16.0998	1070.86	73.8118
16.102	1072.302	73.8313
16.1041	1086.48	73.85083
16.1061	1074.73	73.8704
16.1069	1069.17	73.8899
16.1098	1084.45	73.9094
16.1095	1079.34	73.929
16.1121	1071.54	73.9485
16.11375	1081.82	73.968
16.1144	1081.27	73.9875
16.1174	1067.02	74.00708
16.1186	1080.52	74.0266
16.1197	1084.267	74.0461
16.1218	1070.531	74.0657
16.1228	1072.01	74.0852
16.1246	1088.52	74.1047
16.1269	1073.51	74.1243
16.1283	1071.42	74.1438
16.1298	1086.37	74.16333
16.13168	1075.68	74.1829
16.1338	1068.22	74.2024
16.136	1087.3	74.2219
16.1368	1077.57	74.2415
16.1375	1068.369	74.261
16.1394	1083.64	74.2805
16.1415	1083.84	74.3
16.1427	1066.24	74.31958
16.1443	1079.47	74.3391
16.1465	1084.84	74.3586
16.1481	1070.04	74.3782
16.15	1075.15	74.3977
16.1504	1084.35	74.4172
16.15156	1069.61	74.4368
16.1536	1072.34	74.4563
16.1562	1084.72	74.47583
16.158	1073.61	74.4954
16.15951	1070.91	74.5149
16.1607	1083.16	74.5344
16.1628	1077.881	74.554
16.1638	1067.33	74.5735
16.1653	1080.7	74.593
16.167	1080.89	74.6125
16.1688	1069.12	74.63208
16.17103	1074.73	74.6516
16.1718	1083.29	74.6711
16.1743	1066.453	74.6907
16.1751	1073.93	74.7102
16.1776	1086.14	74.7297
16.17893	1072.64	74.7493
16.18	1068.23	74.7688
16.1814	1086.33	74.78833
16.1844	1071.88	74.8079
16.185	1068.45	74.8274
16.1863	1083.65	74.8469
16.1896	1077.41	74.8665
16.1904	1066.02	74.886
16.1924	1081.42	74.9055
16.1929	1079.08	74.925
16.1946	1064.89	74.94458
16.1973	1079.465	74.9641
16.199	1083.3	74.9836
16.1998	1065.326	75.0032
16.2011	1072.12	75.0227
16.2031	1083.06	75.0422
16.2061	1070.96	75.0618
16.2068	1070.8	75.0813
16.2089	1079.17	75.10083
16.20896	1069.57	75.1204
16.2115	1064.89	75.1399
16.2133	1080.19	75.1594
16.2151	1071.81	75.179
16.216	1061.82	75.1985
16.2183	1071.43	75.218
16.2189	1073.58	75.2375
16.2208	1055.38	75.25708
16.2225	1063.229	75.2766
16.2331	-253.729	75.2961
16.2312	-46.4072	75.3157
16.2323	-50.0422	75.3352
16.2327	-31.4642	75.3547
16.2337	-47.5474	75.3743
16.2356	-47.3825	75.3938
16.2359	-29.5165	75.41333
16.2378	-39.49931	75.4329
16.238	-54.4417	75.4524
16.24	-30.8663	75.4719
16.2409	-36.8809	75.4915
16.24288	-52.9541	75.511
16.2442	-36.4965	75.5305
16.2465	-32.0381	75.55
16.2474	-50.087	75.56958
16.2505	-39.3412	75.5891
16.252	-31.411	75.6086
16.2528	-48.4476	75.6282
16.2556	-41.91943	75.6477
16.2564	-28.7456	75.6672
16.2573	-45.7382	75.6868
16.2591	-48.0071	75.7063
16.2609	-29.7168	75.72583
16.26259	-41.4641	75.7454
16.26384	-47.84082	75.7649
16.2655	-34.0768	75.7844
16.26716	-36.5896	75.804
16.2686	-50.588	75.8235
16.2708	-34.7056	75.843
16.2713	-34.737	75.8625
16.2739	-48.78334	75.88208
16.2762	-42.8009	75.9016
16.2775	-28.6856	75.9211
16.2792	-49.6897	75.9407
16.2795	-43.5222	75.9602
16.2817	-30.0023	75.9797
16.2841	-43.023	75.9993
16.2838	-48.6286	76.0188
16.288	-32.1854	76.03833
16.2881	-42.753	76.0579
16.2904	-47.2164	76.0774
16.2904	-30.2957	76.0969
16.2932	-38.1887	76.1165
16.2948	-52.384	76.136
16.2955	-34.0322	76.1555
16.29789	-35.5991	76.175
16.3002	-49.7473	76.19458
16.3014	-38.2328	76.2141
16.3025	-33.2573	76.2336
16.3055	-48.2183	76.2532
16.3059	-42.9169	76.2727
16.3081	-32.7405	76.2922
16.3104	-47.21389	76.3118
16.3109	-43.42	76.3313
16.31237	-33.305	76.35083
16.3156	-41.8819	76.3704
16.3148	-49.8512	76.3899
16.3179	-32.2283	76.4094
16.319	-36.7966	76.429
16.3211	-48.7566	76.4485
16.3215	-37.6209	76.468
16.324	-35.1893	76.4875
16.3255	-49.3342	76.50708
16.3266	-39.1232	76.5266
16.3279	-31.7038	76.5461
16.33	-47.6315	76.5657
16.3311	-45.6742	76.5852
16.3335	-30.756	76.6047
16.336	-46.3418	76.6243
16.3377	-46.908	76.6438
16.3393	-31.5797	76.66333
16.3408	-40.3435	76.6829
16.34219	-49.622	76.7024
16.3439	-32.9811	76.7219
16.3463	-39.6033	76.7415
16.3472	-48.4602	76.761
16.3479	-34.1022	76.7805
16.3506	-37.666	76.8
16.3517	-50.7044	76.81958
16.3533	-40.065	76.8391
16.3551	-33.0105	76.8586
16.357	-49.1157	76.8782
16.3578	-42.73851	76.8977
16.3605	-34.2145	76.9172
16.3616	-42.9189	76.9368
16.3643	-46.8758	76.9563
16.3652	-33.46093	76.97583
16.3672	-43.3891	76.9954
16.36867	-46.3603	77.0149