File: data/processed_data_files/tensile/0.254_hd_dimension_typei_4545_r(4).dat
MTS793|BTW|ENU|1|2|.|/|:|1|0|0|A

Data Header:			0.254_hd_dimension_typei_4545_r0			Time:	20.0173	s	4/15/2019 3:15:31 PM
Data Acquisition:	Timed
Station Name:	ft40.cfg
Test File Name:	monotonic_0.2540_typei_hd_4545_dimension.tst
Displacement	Force	Running Time
mm	N	s
9.98073	-122.553	0.0224609
9.98109	-124.687	0.0419922
9.98056	-117.19	0.0615234
9.98085	-119.938	0.0810547
9.98284	-120.7663	0.100586
9.98492	-119.104	0.120117
9.98782	-114.269	0.139648
9.987998	-120.723	0.15918
9.98966	-114.579	0.178711
9.99118	-112.559	0.198242
9.99331	-116.089	0.217773
9.99448	-119.054	0.237305
9.99472	-109.52	0.256836
9.99777	-111.83	0.276367
10.00036	-113.958	0.295898
10.0005	-110.621	0.31543
10.0027	-106.612	0.334961
10.0052	-116.304	0.354492
10.0057	-106.362	0.374023
10.0079	-103.867	0.393555
10.0089	-111.6854	0.413086
10.0111	-107.84	0.432617
10.0123	-99.9459	0.452148
10.0134	-109.057	0.47168
10.0138	-106.57	0.491211
10.0181	-97.28231	0.510742
10.0182	-103.244	0.530273
10.02061	-103.2866	0.549805
10.0221	-94.70166	0.569336
10.0247	-100.975	0.588867
10.0252	-104.214	0.608398
10.0274	-91.4494	0.62793
10.0282	-95.2166	0.647461
10.0293	-99.3433	0.666992
10.0316	-92.5447	0.686523
10.0327	-87.6327	0.706055
10.03462	-97.2487	0.725586
10.0375	-90.5179	0.745117
10.0384	-89.9499	0.764648
10.0399	-92.7377	0.78418
10.0412	-91.6883	0.803711
10.0415	-81.7732	0.823242
10.0446	-91.9099	0.842773
10.04634	-87.6165	0.862305
10.0483	-84.31665	0.881836
10.0503	-82.0828	0.901367
10.0507	-89.426	0.920898
10.0524	-78.5596	0.94043
10.0542	-80.3798	0.959961
10.0554	-83.6134	0.979492
10.0579	-81.0987	0.999023
10.0598	-74.0061	1.01855
10.0606	-84.1954	1.03809
10.0625	-76.8264	1.05762
10.0642	-69.9748	1.07715
10.0663	-80.37117	1.09668
10.0676	-79.033	1.11621
10.0699	-68.5891	1.13574
10.0695	-74.4602	1.15527
10.0721	-76.3974	1.1748
10.07464	-64.66349	1.19434
10.0748	-71.5543	1.21387
10.0779	-73.365	1.2334
10.0795	-64.04554	1.25293
10.0806	-65.9185	1.27246
10.0825	-73.2923	1.29199
10.08397	-60.5224	1.31152
10.0858	-63.4079	1.33105
10.0871	-68.2241	1.35059
10.0887	-63.1658	1.37012
10.0911	-56.5046	1.38965
10.092	-64.7211	1.40918
10.093	-59.95295	1.42871
10.0959	-56.9647	1.44824
10.0959	-58.6771	1.46777
10.0978	-62.2814	1.4873
10.1001	-50.5078	1.50684
10.1016	-56.1633	1.52637
10.1031	-57.9321	1.5459
10.1046	-53.9561	1.56543
10.106	-49.13	1.58496
10.10833	-58.3751	1.60449
10.1099	-48.6462	1.62402
10.1113	-47.3263	1.64355
10.1126	-53.9177	1.66309
10.1137	-50.1759	1.68262
10.1169	-41.9513	1.70215
10.1181	-53.0145	1.72168
10.1203	-47.8384	1.74121
10.1217	-38.4127	1.76074
10.123	-45.1921	1.78027
10.1248	-47.7262	1.7998
10.1264	-36.6951	1.81934
10.1274	-41.0963	1.83887
10.12996	-45.5602	1.8584
10.1303	-35.4544	1.87793
10.1326	-38.8721	1.89746
10.1346	-44.05854	1.91699
10.1365	-34.7609	1.93652
10.13793	-33.2014	1.95605
10.1399	-41.5267	1.97559
10.1414	-32.6656	1.99512
10.143	-31.9697	2.01465
10.1436	-35.7192	2.03418
10.1445	-33.21949	2.05371
10.147	-25.5362	2.07324
10.14872	-32.8355	2.09277
10.1511	-29.8252	2.1123
10.1514	-26.4352	2.13184
10.1541	-27.1295	2.15137
10.1552	-32.8541	2.1709
10.1582	-20.6642	2.19043
10.1585	-20.8201	2.20996
10.1605	-28.6737	2.22949
10.16251	-23.6802	2.24902
10.1621	-15.979	2.26855
10.16554	-26.6025	2.28809
10.1667	-19.2518	2.30762
10.1681	-14.2506	2.32715
10.1705	-20.7805	2.34668
10.1713	-20.37381	2.36621
10.1733	-9.79261	2.38574
10.1738	-19.4045	2.40527
10.1772	-18.53566	2.4248
10.1778	-8.1536	2.44434
10.1802	-13.3434	2.46387
10.1822	-17.6825	2.4834
10.1834	-9.23845	2.50293
10.1852	-9.25613	2.52246
10.1861	-14.31513	2.54199
10.18781	-3.84689	2.56152
10.1891	-6.01201	2.58105
10.192	-13.7135	2.60059
10.1922	-4.18496	2.62012
10.1947	0.836912	2.63965
10.1964	-9.335269	2.65918
10.1979	-2.70829	2.67871
10.1994	1.47577	2.69824
10.2002	-2.12735	2.71777
10.2033	-3.56551	2.7373
10.2034	4.34427	2.75684
10.2053	1.80077	2.77637
10.2079	2.28006	2.7959
10.2096	6.04304	2.81543
10.2112	9.36469	2.83496
10.2127	-1.08637	2.85449
10.2145	9.38827	2.87402
10.2148	11.9243	2.89355
10.2167	6.41422	2.91309
10.22	7.51743	2.93262
10.2205	15.8609	2.95215
10.2221	6.73949	2.97168
10.2232	11.4189	2.99121
10.2263	17.9206	3.01074
10.2272	12.34821	3.03027
10.2286	8.88842	3.0498
10.2299	22.536	3.06934
10.2312	16.4608	3.08887
10.2343	12.1541	3.1084
10.2351	23.1737	3.12793
10.2367	20.7063	3.14746
10.2376	12.382	3.16699
10.2405	22.6355	3.18652
10.2419	24.8647	3.20605
10.24374	18.2113	3.22559
10.2456	26.7919	3.24512
10.2463	29.0563	3.26465
10.2479	20.9001	3.28418
10.2488	22.6719	3.30371
10.2518	33.8792	3.32324
10.2526	26.7614	3.34277
10.25464	27.9201	3.3623
10.2556	33.4553	3.38184
10.2586	32.8037	3.40137
10.2596	27.0479	3.4209
10.2617	38.0527	3.44043
10.2621	35.3105	3.45996
10.2638	30.75561	3.47949
10.2656	37.1885	3.49902
10.2679	42.9083	3.51855
10.2699	31.985	3.53809
10.2712	39.2354	3.55762
10.2725	46.7038	3.57715
10.2743	39.5925	3.59668
10.2758	37.8908	3.61621
10.2776	49.0963	3.63574
10.2786	39.8128	3.65527
10.2803	42.2128	3.6748
10.2825	52.3064	3.69434
10.2838	47.0746	3.71387
10.2864	41.3231	3.7334
10.2876	54.3827	3.75293
10.28944	52.0188	3.77246
10.2907	45.2642	3.79199
10.2917	54.92981	3.81152
10.29399	55.6774	3.83105
10.2958	47.7855	3.85059
10.2962	54.8344	3.87012
10.2988	57.5846	3.88965
10.3004	50.5024	3.90918
10.3021	56.7574	3.92871
10.3026	63.30286	3.94824
10.30606	56.6701	3.96777
10.3071	56.5859	3.9873
10.3081	65.52681	4.00684
10.3106	60.2151	4.02637
10.3117	60.3167	4.0459
10.3134	65.90451	4.06543
10.3149	67.0384	4.08496
10.3167	58.333	4.10449
10.3174	69.6911	4.12402
10.3201	72.2735	4.14355
10.3213	64.7813	4.16309
10.3229	68.1724	4.18262
10.3254	76.06115	4.20215
10.3252	66.6582	4.22168
10.3273	71.3115	4.24121
10.3289	77.7071	4.26074
10.33115	74.5834	4.28027
10.3322	71.2539	4.2998
10.33471	82.6964	4.31934
10.3363	75.3959	4.33887
10.337	74.1738	4.3584
10.3398	84.4528	4.37793
10.3402	83.0987	4.39746
10.3413	72.723	4.41699
10.3434	86.4007	4.43652
10.3459	85.3628	4.45605
10.347	80.0729	4.47559
10.34829	86.0575	4.49512
10.351	90.02272	4.51465
10.3533	80.3306	4.53418
10.3534	87.3988	4.55371
10.35448	93.9173	4.57324
10.3578	86.051	4.59277
10.3589	86.8793	4.6123
10.3606	96.2069	4.63184
10.36228	93.74398	4.65137
10.36377	91.3732	4.6709
10.3662	97.8506	4.69043
10.3676	94.581	4.70996
10.3691	92.7585	4.72949
10.3706	97.6161	4.74902
10.3719	101.887	4.76855
10.3735	93.019	4.78809
10.375	100.836	4.80762
10.3763	107.185	4.82715
10.3782	99.752	4.84668
10.3792	97.0922	4.86621
10.38154	109.719	4.88574
10.3837	101.9239	4.90527
10.3844	101.639	4.9248
10.3864	112.523	4.94434
10.38761	108.672	4.96387
10.3896	102.62	4.9834
10.3917	115.826	5.00293
10.3931	109.437	5.02246
10.395	105.011	5.04199
10.3959	113.939	5.06152
10.3979	118.893	5.08105
10.4002	107.746	5.10059
10.3998	116.057	5.12012
10.4036	120.152	5.13965
10.4047	113.241	5.15918
10.4056	117.512	5.17871
10.4065	125.037	5.19824
10.4096	115.988	5.21777
10.4109	117.611	5.2373
10.4111	128.5959	5.25684
10.4146	118.725	5.27637
10.41524	120.49	5.2959
10.4168	127.183	5.31543
10.4187	127.251	5.33496
10.4209	120.6027	5.35449
10.4232	129.185	5.37402
10.4235	128.489	5.39355
10.4251	125.217	5.41309
10.4267	128.3875	5.43262
10.4286	135.572	5.45215
10.4309	126.366	5.47168
10.4318	131.079	5.49121
10.4343	139.736	5.51074
10.436	134.928	5.53027
10.4367	129.529	5.5498
10.4387	142.032	5.56934
10.4414	136.264	5.58887
10.442	135.995	5.6084
10.4435	143.17	5.62793
10.4454	143.089	5.64746
10.4467	132.635	5.66699
10.44851	146.534	5.68652
10.4502	144.9599	5.70605
10.4509	139.469	5.72559
10.4535	144.1255	5.74512
10.45387	152.736	5.76465
10.4556	139.974	5.78418
10.4591	147.129	5.80371
10.45973	152.0139	5.82324
10.4612	146.517	5.84277
10.4631	147.285	5.8623
10.4651	157.886	5.88184
10.4649	149.798	5.90137
10.4682	147.747	5.9209
10.4702	157.631	5.94043
10.4705	155.849	5.95996
10.4727	152.909	5.97949
10.474	156.022	5.99902
10.4763	161.962	6.01855
10.4773	154.184	6.03809
10.4791	159.4268	6.05762
10.4809	163.729	6.07715
10.4825	157.829	6.09668
10.4845	159.163	6.11621
10.4849	169.547	6.13574
10.4865	159.46	6.15527
10.49	159.049	6.1748
10.4907	169.075	6.19434
10.4924	169.45	6.21387
10.4945	161.597	6.2334
10.4963	173.846	6.25293
10.4971	169.297	6.27246
10.499	166.282	6.29199
10.501	174.35	6.31152
10.5028	176.703	6.33105
10.5034	164.738	6.35059
10.5042	175.803	6.37012
10.50701	179.07	6.38965
10.5083	171.706	6.40918
10.5103	175.004	6.42871
10.51152	184.375	6.44824
10.5123	175.112	6.46777
10.5155	177.261	6.4873
10.5163	184.853	6.50684
10.51826	179.567	6.52637
10.5198	180.179	6.5459
10.5216	188.13	6.56543
10.5228	184.923	6.58496
10.5257	180.017	6.60449
10.5267	189.002	6.62402
10.5277	189.548	6.64355
10.5295	186.786	6.66309
10.53124	188.265	6.68262
10.5332	194.661	6.70215
10.5344	185.41	6.72168
10.5364	190.977	6.74121
10.537	197.352	6.76074
10.5398	192.494	6.78027
10.5409	187.966	6.7998
10.5422	201.457	6.81934
10.54371	195.367	6.83887
10.5462	192.504	6.8584
10.5465	201.414	6.87793
10.5503	203.636	6.89746
10.551	193.381	6.91699
10.5519	204.007	6.93652
10.555	202.521	6.95605
10.5555	197.2934	6.97559
10.5569	206.651	6.99512
10.5603	209.918	7.01465
10.56079	198.3896	7.03418
10.5625	205.443	7.05371
10.5642	212.355	7.07324
10.5655	207.8967	7.09277
10.568	206.4528	7.1123
10.5689	215.633	7.13184
10.5711	208.541	7.15137
10.5726	209.446	7.1709
10.5745	215.992	7.19043
10.5751	215.118	7.20996
10.5758	209.048	7.22949
10.5782	219.747	7.24902
10.58	219.402	7.26855
10.582	213.712	7.28809
10.5839	218.479	7.30762
10.5854	223.122	7.32715
10.58744	219.002	7.34668
10.58777	218.659	7.36621
10.5901	226.578	7.38574
10.592	219.56	7.40527
10.5936	221.468	7.4248
10.5946	230.251	7.44434
10.5964	228.06	7.46387
10.5978	218.943	7.4834
10.5995	232.104	7.50293
10.6022	229.412	7.52246
10.6034	225.948	7.54199
10.6052	232.849	7.56152
10.6071	236.058	7.58105
10.60885	224.273	7.60059
10.6102	235.879	7.62012
10.6114	237.574	7.63965
10.613	231.213	7.65918
10.6141	235.278	7.67871
10.6165	244.489	7.69824
10.6163	233.3374	7.71777
10.6198	235.786	7.7373
10.621	243.138	7.75684
10.6219	239.175	7.77637
10.6234	238.34	7.7959
10.6252	247.318	7.81543
10.62777	242.238	7.83496
10.6298	239.858	7.85449
10.6301	246.575	7.87402
10.6316	250.075	7.89355
10.6328	242.756	7.91309
10.6356	248.196	7.93262
10.6366	252.55	7.95215
10.6383	247.368	7.97168
10.6405	249.893	7.99121
10.6412	254.19	8.01074
10.6439	250.212	8.03027
10.6448	249.791	8.0498
10.64686	260.674	8.06934
10.6485	254.192	8.08887
10.6504	250.598	8.1084
10.6516	260.194	8.12793
10.65388	260.58	8.14746
10.6561	251.379	8.16699
10.6574	263.774	8.18652
10.6581	263.5509	8.20605
10.65982	258.0311	8.22559
10.6615	262.781	8.24512
10.6628	268.6301	8.26465
10.6659	257.412	8.28418
10.6656	265.257	8.30371
10.6676	269.3042	8.32324
10.66986	264.104	8.34277
10.6711	264.9502	8.3623
10.6729	275.784	8.38184
10.6739	268.014	8.40137
10.6756	266.374	8.4209
10.6775	272.718	8.44043
10.6792	275.915	8.45996
10.6813	269.62	8.47949
10.6828	277.442	8.49902
10.6846	275.954	8.51855
10.68627	270.596	8.53809
10.6877	276.564	8.55762
10.6889	284.569	8.57715
10.6905	275.136	8.59668
10.6933	276.74	8.61621
10.6947	284.973	8.63574
10.6966	279.714	8.65527
10.6977	278.06	8.6748
10.6995	287.184	8.69434
10.7008	285.5426	8.71387
10.7027	279.677	8.7334
10.7039	290.7186	8.75293
10.7061	287.225	8.77246
10.7066	282.952	8.79199
10.7089	289.985	8.81152
10.7102	296.384	8.83105
10.7121	283.843	8.85059
10.7146	293.885	8.87012
10.71477	295.117	8.88965
10.71609	289.758	8.90918
10.71789	294.353	8.92871
10.7198	302.593	8.94824
10.7217	291.256	8.96777
10.7236	296.309	8.9873
10.7251	302.625	9.00684
10.7263	300.332	9.02637
10.7281	295.907	9.0459
10.7293	306.388	9.06543
10.7314	301.583	9.08496
10.7317	301.266	9.10449
10.7355	304.697	9.12402
10.7359	308.078	9.14355
10.7376	299.6	9.16309
10.7394	308.281	9.18262
10.7411	310.245	9.20215
10.7427	304.804	9.22168
10.74377	307.601	9.24121
10.7456	314.626	9.26074
10.7482	310.057	9.28027
10.7487	308.713	9.2998
10.7504	316.423	9.31934
10.7524	313.859	9.33887
10.75421	310.109	9.3584
10.7567	318.594	9.37793
10.7578	318.335	9.39746
10.7596	309.957	9.41699
10.7608	321.009	9.43652
10.7618	322.894	9.45605
10.765	315.263	9.47559
10.7664	320.49	9.49512
10.7667	327.614	9.51465
10.7689	316.329	9.53418
10.7702	322.518	9.55371
10.7719	327.765	9.57324
10.7735	322.278	9.59277
10.7756	322.7244	9.6123
10.7768	333.256	9.63184
10.77847	324.511	9.65137
10.7796	323.953	9.6709
10.7815	332.627	9.69043
10.783	334.836	9.70996
10.78545	326.112	9.72949
10.7864	334.654	9.74902
10.788	335.449	9.76855
10.7902	330.127	9.78809
10.7919	336.402	9.80762
10.7928	340.554	9.82715
10.7947	333.032	9.84668
10.79724	337.517	9.86621
10.7981	344.031	9.88574
10.7993	338.007	9.90527
10.8018	335.439	9.9248
10.80303	345.284	9.94434
10.804	343.684	9.96387
10.8061	337.472	9.9834
10.808	348.277	10.00293
10.8107	346.38	10.0225
10.8121	340.881	10.042
10.8121	348.196	10.0615
10.8147	354.254	10.0811
10.8157	342.001	10.1006
10.8184	350.744	10.1201
10.8197	355.1196	10.1396
10.8204	348.665	10.15918
10.8222	349.874	10.1787
10.8231	359.724	10.1982
10.8249	349.853	10.2178
10.8273	353.301	10.2373
10.8293	359.946	10.2568
10.8305	355.143	10.2764
10.8319	351.858	10.2959
10.8334	364.81	10.31543
10.836	358.909	10.335
10.8377	355.459	10.3545
10.838	363.004	10.374
10.8404	368.175	10.3936
10.8421	359.538	10.4131
10.8437	364.587	10.4326
10.8452	366.826	10.4521
10.84796	362.197	10.47168
10.8482	363.284	10.4912
10.8493	373.549	10.5107
10.852	365.722	10.5303
10.8538	363.86	10.5498
10.8553	374.623	10.5693
10.8565	372.141	10.5889
10.8584	366.19	10.6084
10.8607	375.116	10.62793
10.8615	377.724	10.6475
10.863	368.037	10.667
10.8656	377.65	10.6865
10.86573	378.434	10.7061
10.8679	370.417	10.7256
10.87	378.167	10.7451
10.8715	385.501	10.7646
10.8732	372.408	10.78418
10.8746	380.457	10.8037
10.8772	386.489	10.8232
10.8775	380.47	10.8428
10.8782	379.176	10.8623
10.8814	391.998	10.8818
10.883	382.025	10.9014
10.8855	382.021	10.9209
10.8861	390.225	10.94043
10.8875	389.329	10.96
10.8891	382.2077	10.9795
10.8911	392.517	10.999
10.8926	392.003	11.0186
10.8939	386.726	11.0381
10.8954	390.912	11.0576
10.8974	398.233	11.0771
10.8984	389.706	11.09668
10.9005	394.13	11.1162
10.903	398.253	11.1357
10.9038	393.8	11.1553
10.9064	391.932	11.1748
10.90626	404.449	11.1943
10.9077	399.981	11.2139
10.9104	395.147	11.2334
10.9112	403.099	11.25293
10.9136	405.97	11.2725
10.915	397.06	11.292
10.9175	404.6618	11.3115
10.9188	410.094	11.3311
10.9206	398.571	11.3506
10.9227	406.07	11.3701
10.9231	411.907	11.3896
10.9246	404.335	11.40918
10.9272	407.278	11.4287
10.92823	418.535	11.4482
10.9307	405.395	11.4678
10.9315	407.969	11.4873
10.9337	416.11	11.5068
10.9352	412.869	11.5264
10.9356	410.224	11.5459
10.9383	420.599	11.56543
10.939	414.1958	11.585
10.9412	411.65	11.6045
10.94348	419.295	11.624
10.9434	424.833	11.6436
10.94579	413.1752	11.6631
10.948	421.881	11.6826
10.9487	423.506	11.7021
10.9513	419.253	11.72168
10.9528	420.12	11.7412
10.9541	427.7272	11.7607
10.9559	421.808	11.7803
10.9579	420.821	11.7998
10.9588	427.821	11.8193
10.96	425.356	11.8389
10.9625	419.351	11.8584
10.9643	432.214	11.87793
10.9651	431.9693	11.8975
10.9677	420.911	11.917
10.9695	430.539	11.9365
10.971	435.31	11.9561
10.9724	425.725	11.9756
10.9738	431.257	11.9951
10.975	439.192	12.0146
10.9778	426.853	12.03418
10.9783	432.991	12.0537
10.98012	442.2077	12.0732
10.9824	433.654	12.0928
10.9839	430.82	12.1123
10.9858	445.595	12.1318
10.9874	437.885	12.1514
10.9886	435.151	12.1709
10.9895	444.431	12.19043
10.9908	443.6167	12.21
10.9937	437.883	12.2295
10.9947	447.958	12.249
10.9973	444.6394	12.2686
10.9991	440.093	12.2881
11.0004	444.856	12.3076
11.0006	452.761	12.3271
11.0025	442.922	12.34668
11.0048	447.832	12.3662
11.0052	452.432	12.3857
11.0078	449.1846	12.4053
11.0087	445.727	12.4248
11.011	456.067	12.4443
11.0129	452.18	12.4639
11.01474	448.721	12.4834
11.01623	457.97	12.50293
11.0181	458.316	12.5225
11.0198	448.4295	12.542
11.0214	458.249	12.5615
11.0227	460.738	12.5811
11.0235	450.966	12.6006
11.0267	456.6463	12.6201
11.0275	465.588	12.6396
11.0302	455.835	12.65918
11.0294	458.855	12.6787
11.0322	468.51	12.6982
11.0337	457.492	12.7178
11.0354	458.383	12.7373
11.0371	470.338	12.7568
11.0389	465.905	12.7764
11.04035	460.962	12.7959
11.04099	473.383	12.81543
11.0436	467.791	12.835
11.0455	466.028	12.8545
11.0461	469.755	12.874
11.0487	474.528	12.8936
11.0503	466.048	12.9131
11.0507	475.067	12.9326
11.0539	476.231	12.9521
11.0556	470.035	12.97168
11.05657	471.287	12.9912
11.0589	482.6619	13.0107
11.05984	474.278	13.0303
11.0609	473.394	13.0498
11.0629	480.501	13.0693
11.0641	481.123	13.0889
11.0659	473.789	13.1084
11.068	484.84	13.12793
11.07	483.338	13.1475
11.0716	476.015	13.167
11.0738	485.399	13.1865
11.0746	487.74	13.2061
11.0751	478.783	13.2256
11.0776	485.886	13.2451
11.0801	494.497	13.2646
11.0827	482.247	13.28418
11.08273	485.596	13.3037
11.0847	495.135	13.3232
11.0863	487.939	13.3428
11.0879	486.935	13.3623
11.0896	499.052	13.3818
11.0921	489.404	13.4014
11.0928	487.339	13.4209
11.0941	497.544	13.44043
11.0962	499.581	13.46
11.0974	489.258	13.4795
11.0996	500.297	13.499
11.1004	500.521	13.5186
11.1019	494.408	13.5381
11.1041	498.25	13.5576
11.1063	504.212	13.5771
11.1076	496.323	13.59668
11.10918	501.69	13.6162
11.1107	506.642	13.6357
11.1121	500.874	13.6553
11.1143	497.549	13.6748
11.1153	509.961	13.6943
11.11821	507.143	13.7139
11.1193	501.7457	13.7334
11.1203	510.014	13.75293
11.1223	513.572	13.7725
11.1239	502.192	13.792
11.1247	512.129	13.8115
11.1272	515.47	13.8311
11.1291	503.624	13.8506
11.1306	510.443	13.8701
11.1315	518.581	13.8896
11.1334	508.738	13.90918
11.1346	511.088	13.9287
11.1362	522.851	13.9482
11.1384	511.749	13.9678
11.1407	513.928	13.9873
11.1414	522.989	14.0068
11.143	519.231	14.0264
11.14423	514.1665	14.0459
11.14637	526.2832	14.06543
11.1484	520.928	14.085
11.1495	516.855	14.1045
11.1511	524.312	14.124
11.1521	528.557	14.1436
11.155	519.451	14.1631
11.15549	528.507	14.1826
11.15732	528.715	14.2021
11.1594	522.629	14.22168
11.1613	524.361	14.2412
11.162	534.4165	14.2607
11.1636	528.079	14.2803
11.1659	527.219	14.2998
11.1677	535.322	14.3193
11.16948	533.745	14.3389
11.1706	525.043	14.3584
11.1722	537.314	14.37793
11.175	539.188	14.3975
11.176	531.927	14.417
11.1777	537.537	14.4365
11.179	541.257	14.4561
11.1805	531.502	14.4756
11.1821	538.712	14.4951
11.183	546.56	14.5146
11.1858	534.842	14.53418
11.1864	537.957	14.5537
11.1892	547.7959	14.5732
11.1902	540.0376	14.5928
11.1918	538.2912	14.6123
11.1928	550.249	14.6318
11.195	543.165	14.6514
11.1974	543.367	14.6709
11.1986	550.7	14.69043
11.2005	549.195	14.71
11.2011	541.77	14.7295
11.2038	554.898	14.749
11.2044	550.758	14.7686
11.2063	546.332	14.7881
11.2089	549.389	14.8076
11.2097	558.641	14.8271
11.2115	548.546	14.84668
11.2129	552.816	14.8662
11.2142	558.463	14.8857
11.2166	554.443	14.9053
11.218	550.7959	14.9248
11.2204	561.93	14.9443
11.2218	556.158	14.9639
11.2229	553.846	14.9834
11.2236	561.346	15.00293
11.2257	563.551	15.0225
11.22764	552.361	15.042
11.229	563.191	15.0615
11.231	567.953	15.0811
11.23188	558.08	15.1006
11.2342	561.896	15.1201
11.2359	567.825	15.1396
11.2371	560.699	15.15918
11.2397	564.76	15.1787
11.2403	575.024	15.1982
11.2413	561.176	15.2178
11.2443	563.396	15.2373
11.2458	574.459	15.2568
11.2469	569.35	15.2764
11.2488	564.97	15.2959
11.2514	576.693	15.31543
11.2525	572.481	15.335
11.2535	568.527	15.3545
11.2551	575.0766	15.374
11.2574	576.571	15.3936
11.2587	570.058	15.4131
11.2589	577.429	15.4326
11.2617	580.841	15.4521
11.2635	574.654	15.47168
11.26593	575.269	15.4912
11.2663	584.237	15.5107
11.2682	578.475	15.5303
11.2692	577.831	15.5498
11.2711	583.9856	15.5693
11.2734	582.984	15.5889
11.2759	577.039	15.6084
11.2764	589.266	15.62793
11.2776	587.113	15.6475
11.2785	579.853	15.667
11.2812	587.1095	15.6865
11.2825	590.907	15.7061
11.2845	580.345	15.7256
11.28592	587.283	15.7451
11.2882	595.128	15.7646
11.2901	585.8288	15.78418
11.2921	589.028	15.8037
11.2925	598.0658	15.8232
11.29442	586.992	15.8428
11.2966	589.362	15.8623
11.2974	600.627	15.8818
11.2982	592.033	15.9014
11.3013	588.775	15.9209
11.3024	600.239	15.94043
11.305	599.608	15.96
11.3059	591.717	15.9795
11.3078	603.295	15.999
11.3081	600.46	16.0186
11.31038	595.387	16.0381
11.312	600.3429	16.0576
11.3131	607.402	16.0771
11.3153	597.445	16.09668
11.3172	603.282	16.1162
11.3187	608.089	16.1357
11.3202	603.409	16.1553
11.3219	599.6767	16.1748
11.3233	611.885	16.1943
11.3267	606.521	16.2139
11.3271	604.426	16.2334
11.3291	610.532	16.25293
11.3303	613.003	16.2725
11.3325	603.422	16.292
11.33391	612.973	16.3115
11.3354	615.821	16.3311
11.3375	606.328	16.3506
11.3388	610.44	16.3701
11.3393	618.733	16.3896
11.3411	609.745	16.40918
11.3436	611.298	16.4287
11.3438	623.374	16.4482
11.346	613.289	16.4678
11.3491	614.149	16.4873
11.3488	623.633	16.5068
11.3522	616.941	16.5264
11.353	612.029	16.5459
11.3544	627.643	16.56543
11.3551	621.006	16.585
11.3585	616.163	16.6045
11.3598	623.26	16.624
11.3617	626.791	16.6436
11.363	619.634	16.6631
11.3651	627.555	16.6826
11.3659	628.3858	16.7021
11.3677	623.319	16.72168
11.3695	624.357	16.7412
11.3712	635.96	16.7607
11.373	625.026	16.7803
11.3747	625.224	16.7998
11.3753	632.1792	16.8193
11.3773	633.01	16.8389
11.379	626.413	16.8584
11.3796	637.445	16.87793
11.3819	636.709	16.8975
11.3842	629.926	16.917
11.38478	635.88	16.9365
11.387	639.9953	16.9561
11.3892	628.061	16.9756
11.3901	637.279	16.9951
11.3925	646.204	17.0146
11.3936	633.874	17.03418
11.3952	637.3252	17.0537
11.3976	646.412	17.0732
11.3993	639.222	17.0928
11.3998	635.981	17.1123
11.4014	648.857	17.1318
11.4025	641.021	17.1514
11.4049	637.17	17.1709
11.4066	648.393	17.19043
11.4088	646.545	17.21
11.41	636.883	17.2295
11.411	651.418	17.249
11.4127	650.491	17.2686
11.41497	643.7428	17.2881
11.4164	646.714	17.3076
11.4181	653.565	17.3271
11.4202	644.834	17.34668
11.4205	648.291	17.3662
11.4231	654.22	17.3857
11.4246	648.38	17.4053
11.4258	647.231	17.4248
11.4278	659.68	17.4443
11.4297	654.791	17.4639
11.4303	649.863	17.4834
11.4328	657.685	17.50293
11.434	659.727	17.5225
11.4355	650.9491	17.542
11.4375	659.556	17.5615
11.4392	661.3418	17.5811
11.4411	653.881	17.6006
11.4425	658.806	17.6201
11.4453	666.187	17.6396
11.4452	654.943	17.65918
11.4473	659.443	17.6787
11.44869	670.9	17.6982
11.4508	659.634	17.7178
11.4518	658.385	17.7373
11.4543	669.3172	17.7568
11.45502	665.669	17.7764
11.4565	661.236	17.7959
11.4593	673.476	17.81543
11.4595	666.951	17.835
11.4616	662.929	17.8545
11.4636	672.873	17.874
11.4656	674.651	17.8936
11.4666	664.023	17.9131
11.46823	672.906	17.9326
11.46931	675.099	17.9521
11.472	670.864	17.97168
11.4731	671.35	17.9912
11.4759	680.072	18.0107
11.4774	672.666	18.0303
11.4784	674.82	18.0498
11.4798	681.159	18.0693
11.4814	677.698	18.0889
11.4833	670.974	18.1084
11.4855	683.397	18.12793
11.486	683.23	18.1475
11.4877	674.5705	18.167
11.4895	681.682	18.1865
11.4907	686.831	18.2061
11.4934	676.095	18.2256
11.4942	683.161	18.2451
11.4956	689.389	18.2646
11.4983	678.0993	18.28418
11.4995	683.977	18.3037
11.5015	692.1792	18.3232
11.5034	684.196	18.3428
11.5053	683.163	18.3623
11.5054	694.423	18.3818
11.5078	687.752	18.4014
11.5105	681.775	18.4209
11.51047	694.664	18.44043
11.5117	692.47	18.46
11.5132	684.79	18.4795
11.5157	695.959	18.499
11.5171	694.093	18.5186
11.5187	687.424	18.5381
11.5207	693.387	18.5576
11.523	700.0965	18.5771
11.5236	691.683	18.59668
11.52535	694.945	18.6162
11.5278	699.973	18.6357
11.5287	697.1167	18.6553
11.5295	693.168	18.6748
11.5319	705.183	18.6943
11.5338	701.159	18.7139
11.5355	696.772	18.7334
11.5369	704.026	18.75293
11.5385	705.207	18.7725
11.5407	694.112	18.792
11.5421	705.476	18.8115
11.544	708.54	18.8311
11.5453	700.141	18.8506
11.5464	704.053	18.8701
11.5485	710.707	18.8896
11.5499	701.967	18.90918
11.5512	705.71	18.9287
11.5532	714.577	18.9482
11.5549	703.889	18.9678
11.5565	704.115	18.9873
11.5578	716.939	19.0068
11.5594	708.875	19.0264
11.5618	704.612	19.0459
11.5633	717.8692	19.06543
11.5652	715.474	19.085
11.5664	710.048	19.1045
11.5679	715.722	19.124
11.5698	718.76	19.1436
11.571	710.25	19.1631
11.57373	720.139	19.1826
11.5751	719.924	19.2021
11.5755	714.806	19.22168
11.5784	714.685	19.2412
11.5796	725.148	19.2607
11.5812	719.267	19.2803
11.5828	717.194	19.2998
11.5837	722.654	19.3193
11.5851	720.845	19.3389
11.5878	715.433	19.3584
11.5886	728.112	19.37793
11.5909	726.005	19.3975
11.5921	717.836	19.417
11.5936	726.783	19.4365
11.59637	730.002	19.4561
11.5979	718.502	19.4756
11.598	727.592	19.4951
11.601	733.338	19.5146
11.6014	724.133	19.53418
11.6034	726.87	19.5537
11.6056	734.046	19.5732
11.607	726.8175	19.5928
11.608	726.568	19.6123
11.6103	738.809	19.6318
11.6115	729.918	19.6514
11.61325	726.57	19.6709
11.61552	738.484	19.69043
11.6165	737.065	19.71
11.617	727.657	19.7295
11.6199	738.888	19.749
11.6218	737.279	19.7686
11.6233	732.8822	19.7881
11.6248	735.681	19.8076
11.6264	742.587	19.8271
11.6282	734.138	19.84668
11.6295	740.046	19.8662
11.6315	743.706	19.8857
11.633	739.129	19.9053
11.6342	734.527	19.9248
11.6367	748.127	19.9443
11.6371	742.734	19.9639
11.6398	739.835	19.9834
11.64163	744.944	20.00293
11.6422	749.158	20.0127

Data Header:			0.254_hd_dimension_typei_4545_r0			Time:	40.0181	s	4/15/2019 3:15:51 PM
Data Acquisition:	Timed
Station Name:	ft40.cfg
Test File Name:	monotonic_0.2540_typei_hd_4545_dimension.tst
Displacement	Force	Running Time
mm	N	s
11.6417	746.59	20.0225
11.6441	737.12	20.042
11.6457	749.542	20.0615
11.6473	749.277	20.0811
11.6488	739.659	20.1006
11.6508	747.591	20.1201
11.65274	755.121	20.1396
11.65451	742.615	20.15918
11.6565	747.1731	20.1787
11.6575	757.083	20.1982
11.6591	748.272	20.2178
11.66048	746.495	20.2373
11.662	756.055	20.2568
11.66487	750.335	20.2764
11.6647	747.3902	20.2959
11.6669	759.647	20.31543
11.6694	753.297	20.335
11.6702	749.7	20.3545
11.6722	758.0553	20.374
11.6734	760.464	20.3936
11.6755	751.547	20.4131
11.6767	760.429	20.4326
11.6782	760.747	20.4521
11.6801	755.745	20.47168
11.6809	759.152	20.4912
11.6826	765.932	20.5107
11.6851	756.721	20.5303
11.688	757.494	20.5498
11.6885	765.244	20.5693
11.6902	763.405	20.5889
11.6906	754.939	20.6084
11.6935	768.521	20.62793
11.695	767.396	20.6475
11.6961	760.649	20.667
11.6985	765.386	20.6865
11.6995	771.096	20.7061
11.7017	759.54	20.7256
11.7023	768.527	20.7451
11.7043	773.762	20.7646
11.7054	763.299	20.78418
11.7075	763.52	20.8037
11.7086	776.3421	20.8232
11.7113	766.982	20.8428
11.7123	765.138	20.8623
11.7139	776.7652	20.8818
11.715	771.744	20.9014
11.7179	767.39	20.9209
11.7187	776.203	20.94043
11.7214	774.482	20.96
11.7229	766.405	20.9795
11.7244	780.739	20.999
11.726	778.188	21.0186
11.7277	769.526	21.0381
11.7286	775.966	21.0576
11.7303	783.138	21.0771
11.7333	773.324	21.09668
11.7341	779.314	21.1162
11.735	780.935	21.1357
11.7371	778.317	21.1553
11.7391	775.279	21.1748
11.739	788.0567	21.1943
11.7417	781.091	21.2139
11.7431	780.26	21.2334
11.7455	785.017	21.25293
11.7466	789.198	21.2725
11.7488	775.052	21.292
11.7493	786.427	21.3115
11.7515	789.323	21.3311
11.7534	781.385	21.3506
11.7544	783.922	21.3701
11.7564	792.101	21.3896
11.75875	781.113	21.40918
11.7595	787.019	21.4287
11.7613	795.66	21.4482
11.7639	784.54	21.4678
11.76417	782.8078	21.4873
11.7669	797.526	21.5068
11.7684	790.792	21.5264
11.7697	784.937	21.5459
11.77147	796.833	21.56543
11.7728	793.265	21.585
11.7748	786.18	21.6045
11.7756	796.36	21.624
11.7775	797.174	21.6436
11.7793	786.827	21.6631
11.7816	796.138	21.6826
11.7829	800.103	21.7021
11.7839	793.84	21.72168
11.7858	792.31	21.7412
11.7875	803.726	21.7607
11.7892	794.433	21.7803
11.7904	796.484	21.7998
11.7922	801.482	21.8193
11.7946	800.444	21.8389
11.7956	793.965	21.8584
11.7963	805.801	21.87793
11.799	803.046	21.8975
11.8012	796.71	21.917
11.802	802.317	21.9365
11.8038	809.281	21.9561
11.8055	797.225	21.9756
11.807	803.407	21.9951
11.809	809.6037	22.0146
11.8107	801.061	22.03418
11.8122	801.85	22.0537
11.8132	811.915	22.0732
11.8156	801.79	22.0928
11.8168	802.612	22.1123
11.81756	815.177	22.1318
11.82	806.228	22.1514
11.8215	801.18	22.1709
11.8223	814.035	22.19043
11.825	809.273	22.21
11.8258	803.4541	22.2295
11.8286	815.636	22.249
11.8293	812.85	22.2686
11.832	805.373	22.2881
11.834	812.654	22.3076
11.8335	819.262	22.3271
11.8369	808.334	22.34668
11.83851	813.99	22.3662
11.83993	819.153	22.3857
11.84155	814.787	22.4053
11.8427	809.343	22.4248
11.8445	821.878	22.4443
11.846	816.806	22.4639
11.8473	814.388	22.4834
11.8497	821.08	22.50293
11.85017	821.83	22.5225
11.8518	810.423	22.542
11.8545	823.079	22.5615
11.8557	823.776	22.5811
11.8573	814.375	22.6006
11.8597	818.476	22.6201
11.861	827.817	22.6396
11.8624	817.224	22.65918
11.8639	820.374	22.6787
11.8648	829.881	22.6982
11.8671	821.277	22.7178
11.8686	820.393	22.7373
11.8696	832.684	22.7568
11.8724	825.502	22.7764
11.8735	817.704	22.7959
11.8749	832.427	22.81543
11.8783	828.525	22.835
11.8784	820.136	22.8545
11.8802	829.3985	22.874
11.8814	832.332	22.8936
11.8846	823.313	22.9131
11.885	831.874	22.9326
11.8866	833.12	22.9521
11.8888	824.376	22.97168
11.8902	828.698	22.9912
11.8918	837.289	23.0107
11.8941	827.606	23.0303
11.8951	830.444	23.0498
11.8957	835.544	23.0693
11.8979	835.364	23.0889
11.8994	826.287	23.1084
11.9021	837.199	23.12793
11.903	837.088	23.1475
11.9044	830.318	23.167
11.9057	835.535	23.1865
11.9079	840.218	23.2061
11.9092	828.535	23.2256
11.9126	835.8692	23.2451
11.9135	843.805	23.2646
11.9142	834.7135	23.28418
11.9162	833.07	23.3037
11.91701	844.771	23.3232
11.91944	836.355	23.3428
11.9213	835.555	23.3623
11.92175	846.998	23.3818
11.924	840.3	23.4014
11.9257	833.451	23.4209
11.9274	847.03	23.44043
11.9296	843.613	23.46
11.9303	834.057	23.4795
11.9324	846.179	23.499
11.9337	845.905	23.5186
11.9353	839.015	23.5381
11.9377	844.143	23.5576
11.939	849.066	23.5771
11.9413	841.127	23.59668
11.9424	847.922	23.6162
11.9434	849.316	23.6357
11.9451	845.193	23.6553
11.9469	840.504	23.6748
11.9487	853.621	23.6943
11.9503	847.236	23.7139
11.9518	846.081	23.7334
11.95298	848.8866	23.75293
11.9544	852.679	23.7725
11.9564	844.247	23.792
11.9575	853.578	23.8115
11.96	854.069	23.8311
11.9616	846.049	23.8506
11.9627	850.577	23.8701
11.9651	858.676	23.8896
11.9667	844.754	23.90918
11.9682	849.87	23.9287
11.9701	860.292	23.9482
11.97143	852.611	23.9678
11.972	848.118	23.9873
11.975	860.214	24.0068
11.9755	853.84	24.0264
11.9772	848.913	24.0459
11.979	861.341	24.06543
11.9818	856.962	24.085
11.9828	849.256	24.1045
11.9851	860.1366	24.124
11.9856	859.463	24.1436
11.9878	849.7746	24.1631
11.9894	858.972	24.1826
11.9912	862.727	24.2021
11.9921	855.086	24.22168
11.994	855.302	24.2412
11.9957	864.108	24.2607
11.9974	855.8385	24.2803
11.9984	858.811	24.2998
12	865.494	24.3193
12.0021	861.379	24.3389
12.0039	855.162	24.3584
12.0045	865.189	24.37793
12.0078	864.262	24.3975
12.0087	859.234	24.417
12.0111	861.611	24.4365
12.0127	868.908	24.4561
12.0139	856.899	24.4756
12.0153	864.994	24.4951
12.0175	870.843	24.5146
12.0174	860.653	24.53418
12.0198	862.469	24.5537
12.0221	874.0564	24.5732
12.02425	860.758	24.5928
12.0258	862.392	24.6123
12.0261	873.522	24.6318
12.0278	868.534	24.6514
12.0297	862.282	24.6709
12.0313	873.382	24.69043
12.0343	869.3	24.71
12.0339	862.258	24.7295
12.036	873.76	24.749
12.037	873.5	24.7686
12.0403	864.24	24.7881
12.04106	870.28	24.8076
12.0427	875.684	24.8271
12.0446	866.7	24.84668
12.0461	871.7	24.8662
12.0476	876.146	24.8857
12.0489	871.721	24.9053
12.05169	868.715	24.9248
12.0523	879.124	24.9443
12.0539	873.324	24.9639
12.056	870.451	24.9834
12.0565	876.295	25.00293
12.0583	877.461	25.0225
12.0607	867.069	25.042
12.0612	876.763	25.0615
12.06519	880.7489	25.0811
12.06448	871.808	25.1006
12.0673	873.1969	25.1201
12.0695	882.957	25.1396
12.0703	870.866	25.15918
12.0721	874.29	25.1787
12.0744	883.546	25.1982
12.0758	874.894	25.2178
12.0776	871.664	25.2373
12.0782	883.5014	25.2568
12.0807	876.104	25.2764
12.0822	874.211	25.2959
12.08351	883.596	25.31543
12.08524	882.11	25.335
12.0865	872.757	25.3545
12.089	882.103	25.374
12.0901	882.613	25.3936
12.0911	872.774	25.4131
12.0928	883.175	25.4326
12.0952	886.172	25.4521
12.0964	876.294	25.47168
12.0982	878.462	25.4912
12.0991	887.819	25.5107
12.1019	880.738	25.5303
12.1031	879.724	25.5498
12.1046	887.026	25.5693
12.1061	884.166	25.5889
12.108	877.455	25.6084
12.1094	888.82	25.62793
12.1116	886.464	25.6475
12.11343	881.321	25.667
12.1155	886.514	25.6865
12.1161	890.963	25.7061
12.1177	879.281	25.7256
12.1189	887.028	25.7451
12.121	892.704	25.7646
12.1223	884.451	25.78418
12.1232	885.105	25.8037
12.1259	895.646	25.8232
12.1272	884.9187	25.8428
12.1287	885.575	25.8623
12.1306	895.3175	25.8818
12.1331	889.208	25.9014
12.1333	880.855	25.9209
12.1359	895.581	25.94043
12.1371	893.54	25.96
12.1393	884.614	25.9795
12.1412	894.416	25.999
12.142	892.962	26.0186
12.1437	885.123	26.0381
12.1453	893.131	26.0576
12.1471	895.733	26.0771
12.1484	886.306	26.09668
12.1491	890.256	26.1162
12.1517	897.653	26.1357
12.1531	891.449	26.1553
12.1557	887.534	26.1748
12.1572	898.107	26.1943
12.1577	892.62	26.2139
12.1605	891.592	26.2334
12.1613	895.26	26.25293
12.1641	897.414	26.2725
12.1643	886.949	26.292
12.1672	898.577	26.3115
12.1687	899.209	26.3311
12.1697	890.561	26.3506
12.1708	891.475	26.3701
12.1726	904.214	26.3896
12.1751	891.447	26.40918
12.1762	895.007	26.4287
12.1776	903.166	26.4482
12.1802	895.333	26.4678
12.1811	891.432	26.4873
12.1834	903.683	26.5068
12.1838	894.6969	26.5264
12.18576	892.911	26.5459
12.1875	903.786	26.56543
12.1897	900.752	26.585
12.1915	889.9256	26.6045
12.1917	902.1825	26.624
12.1949	900.718	26.6436
12.19615	894.007	26.6631
12.1975	901.608	26.6826
12.1989	902.734	26.7021
12.2009	894.906	26.72168
12.2025	899.517	26.7412
12.2037	906.683	26.7607
12.2051	895.606	26.7803
12.2077	898.394	26.7998
12.2096	906.886	26.8193
12.21	902.656	26.8389
12.2108	894.584	26.8584
12.2149	905.472	26.87793
12.2151	902.966	26.8975
12.2165	898.31	26.917
12.2186	903.552	26.9365
12.2197	907.316	26.9561
12.2216	895.935	26.9756
12.2234	906.913	26.9951
12.2246	910.429	27.0146
12.2264	901.25	27.03418
12.2285	900.252	27.0537
12.2298	910.896	27.0732
12.2328	900.875	27.0928
12.2337	901.776	27.1123
12.234	910.484	27.1318
12.236	904.841	27.1514
12.2375	897.432	27.1709
12.239	911.311	27.19043
12.24071	906.571	27.21
12.2435	898.835	27.2295
12.2447	909.623	27.249
12.2457	909.2995	27.2686
12.2487	900.1828	27.2881
12.2497	905.504	27.3076
12.2509	910.73	27.3271
12.2528	901.195	27.34668
12.2549	907.152	27.3662
12.2559	912.476	27.3857
12.2584	903.646	27.4053
12.2592	903.826	27.4248
12.2609	913.899	27.4443
12.2637	906.683	27.4639
12.2634	903.79	27.4834
12.2655	911.409	27.50293
12.2681	910.705	27.5225
12.2693	902.052	27.542
12.2711	912.086	27.5615
12.2724	910.515	27.5811
12.2735	905.777	27.6006
12.2755	910.167	27.6201
12.2774	916.288	27.6396
12.2786	901.8	27.65918
12.28057	908.19	27.6787
12.2823	917.805	27.6982
12.2838	908.258	27.7178
12.2856	903.651	27.7373
12.288	916.038	27.7568
12.289	910.923	27.7764
12.2897	906.605	27.7959
12.2912	917.111	27.81543
12.2934	913.703	27.835
12.2959	903.51	27.8545
12.2957	916.503	27.874
12.2986	915.1676	27.8936
12.3004	904.329	27.9131
12.302	914.169	27.9326
12.3031	919.156	27.9521
12.3052	907.592	27.97168
12.3068	911.259	27.9912
12.308	915.986	28.0107
12.3097	908.467	28.0303
12.3112	912.917	28.0498
12.313	917.874	28.0693
12.3149	911.936	28.0889
12.3171	908.917	28.1084
12.3176	918.642	28.12793
12.3195	915.142	28.1475
12.3217	911.319	28.167
12.3226	914.819	28.1865
12.3237	919.958	28.2061
12.3259	907.835	28.2256
12.3279	916.12	28.2451
12.3295	919.961	28.2646
12.3304	913.28	28.28418
12.33258	914.313	28.3037
12.3339	923.4	28.3232
12.3355	911.302	28.3428
12.3384	912.367	28.3623
12.3392	922.065	28.3818
12.3416	919.663	28.4014
12.34357	909.474	28.4209
12.344	920.531	28.44043
12.3459	917.628	28.46
12.3479	911.971	28.4795
12.3485	922.43	28.499
12.35095	921.33	28.5186
12.35178	909.639	28.5381
12.3535	919.575	28.5576
12.3549	923.623	28.5771
12.3568	910.68	28.59668
12.3581	917.824	28.6162
12.3601	922.876	28.6357
12.3623	915.245	28.6553
12.3631	914.149	28.6748
12.3652	921.811	28.6943
12.3673	915.355	28.7139
12.3687	915.853	28.7334
12.37033	921.0932	28.75293
12.3712	921.247	28.7725
12.3734	911.99	28.792
12.3744	921.679	28.8115
12.3765	922.903	28.8311
12.3779	914.662	28.8506
12.3805	917.918	28.8701
12.3825	925.9715	28.8896
12.383	915.349	28.90918
12.3853	919.036	28.9287
12.38675	925.698	28.9482
12.3881	920.945	28.9678
12.3895	914.036	28.9873
12.3916	929.193	29.0068
12.3923	918.938	29.0264
12.3947	914.508	29.0459
12.3966	926.247	29.06543
12.398	924.153	29.085
12.4002	912.893	29.1045
12.4015	925.029	29.124
12.402	922.637	29.1436
12.4035	916.571	29.1631
12.4063	924.844	29.1826
12.4068	925.428	29.2021
12.4094	915.057	29.22168
12.4112	920.218	29.2412
12.4123	928.352	29.2607
12.4143	919.359	29.2803
12.4156	919.917	29.2998
12.4175	927.633	29.3193
12.4194	922.241	29.3389
12.4208	918.797	29.3584
12.422	928.138	29.37793
12.4241	921.848	29.3975
12.4261	919.219	29.417
12.4255	925.393	29.4365
12.4291	927.394	29.4561
12.4301	917.024	29.4756
12.4318	922.499	29.4951
12.4336	927.96	29.5146
12.43524	921.7749	29.53418
12.437	919.619	29.5537
12.4378	931.029	29.5732
12.441	920.858	29.5928
12.4425	921.165	29.6123
12.44323	931.008	29.6318
12.4447	924.02	29.6514
12.44741	917.745	29.6709
12.4492	931.694	29.69043
12.4491	926.599	29.71
12.4515	918.502	29.7295
12.453	927.524	29.749
12.455	930.457	29.7686
12.4569	918.13	29.7881
12.4576	927.255	29.8076
12.4591	928.878	29.8271
12.4609	919.603	29.84668
12.4627	925.281	29.8662
12.4646	933.04	29.8857
12.4657	922.719	29.9053
12.4677	921.273	29.9248
12.4699	931.0061	29.9443
12.4704	926.0863	29.9639
12.4724	923.805	29.9834
12.4746	930.42	30.00293
12.4755	928.765	30.0225
12.4773	921.657	30.042
12.4798	930.14	30.0615
12.4818	929.035	30.0811
12.4827	922.927	30.1006
12.4842	924.803	30.1201
12.4844	933.151	30.1396
12.4878	921.527	30.15918
12.4891	922.9715	30.1787
12.4905	933.353	30.1982
12.4926	927.178	30.2178
12.494	921.657	30.2373
12.4953	934.168	30.2568
12.4977	925.775	30.2764
12.49866	924.043	30.2959
12.5012	933.847	30.31543
12.5017	932.091	30.335
12.504	919.5	30.3545
12.5056	931.938	30.374
12.5066	931.244	30.3936
12.5078	925.53	30.4131
12.5099	928.967	30.4326
12.5118	935.884	30.4521
12.5141	923.27	30.47168
12.51548	928.526	30.4912
12.5164	933.996	30.5107
12.5181	925.731	30.5303
12.5198	927.943	30.5498
12.5226	935.747	30.5693
12.5216	926.2262	30.5889
12.5241	922.848	30.6084
12.5257	934.5614	30.62793
12.5281	930.628	30.6475
12.5285	925.357	30.667
12.5307	932.009	30.6865
12.5333	933.281	30.7061
12.5346	923.695	30.7256
12.5361	932.294	30.7451
12.5374	937.191	30.7646
12.5388	927.445	30.78418
12.5408	926.96	30.8037
12.542	937.396	30.8232
12.5438	925.46	30.8428
12.5458	926.574	30.8623
12.5477	934.957	30.8818
12.5493	932.369	30.9014
12.5498	925.177	30.9209
12.5527	937.071	30.94043
12.554	930.303	30.96
12.555	926.484	30.9795
12.5576	936.165	30.999
12.559	936.683	31.0186
12.56	922.518	31.0381
12.5624	931.144	31.0576
12.564	935.931	31.0771
12.5651	927.875	31.09668
12.5676	930.577	31.1162
12.5687	936.115	31.1357
12.5693	925.8302	31.1553
12.5715	930.127	31.1748
12.5733	937.688	31.1943
12.5752	929.525	31.2139
12.57725	926.875	31.2334
12.5786	936.7243	31.25293
12.5816	933.612	31.2725
12.58147	924.804	31.292
12.5828	934.1778	31.3115
12.5842	934.354	31.3311
12.5868	929.199	31.3506
12.5885	931.572	31.3701
12.5891	938.156	31.3896
12.5914	925.988	31.40918
12.5925	930.93	31.4287
12.595	938.193	31.4482
12.5966	932.811	31.4678
12.5981	926.231	31.4873
12.5996	940.464	31.5068
12.6001	933.259	31.5264
12.6021	928.301	31.5459
12.6044	937.339	31.56543
12.6069	937.841	31.585
12.608	925.7594	31.6045
12.61	936.773	31.624
12.6105	934.911	31.6436
12.6119	927.029	31.6631
12.6142	935.259	31.6826
12.6154	939.786	31.7021
12.6173	926.954	31.72168
12.6185	933.193	31.7412
12.6213	938.667	31.7607
12.6227	931.232	31.7803
12.6243	933.31	31.7998
12.624	940.155	31.8193
12.6284	932.312	31.8389
12.6283	930.121	31.8584
12.6301	939.6665	31.87793
12.6326	935.564	31.8975
12.6335	931.758	31.917
12.6352	936.304	31.9365
12.6374	937.187	31.9561
12.63884	929.586	31.9756
12.6404	935.005	31.9951
12.64312	937.925	32.0146
12.6443	933.389	32.03418
12.6457	933.0968	32.0537
[...]
15.28817	944.872	63.7725
15.28946	940.276	63.7822
15.2904	940.105	63.792
15.29	939.016	63.8018
15.2905	941.185	63.8115
15.2927	949.379	63.8213
15.2926	948.01	63.8311
15.2939	943.76	63.84082
15.2956	936.198	63.8506
15.2959	939.483	63.8604
15.2964	945.308	63.8701
15.2975	946.277	63.8799
15.2978	947.015	63.8896
15.3001	945.17	63.8994
15.2999	940.605	63.90918
15.3	938.001	63.9189
15.3004	939.059	63.9287
15.30218	944.715	63.9385
15.3032	951.457	63.9482
15.30328	946.2301	63.958
15.3047	939.3999	63.9678
15.30489	936.463	63.9775
15.3073	937.705	63.9873
15.308	947.167	63.99707
15.3081	947.789	64.0068
15.3093	946.103	64.0166
15.3101	942.11	64.0264
15.3109	937.0506	64.0361
15.3113	936.279	64.0459
15.3123	940.621	64.0557
15.3125	948.405	64.06543
15.314	949.8941	64.0752
15.3144	942.106	64.085
15.3154	938.036	64.0947
15.3153	936.577	64.1045
15.3162	941.004	64.1143
15.3177	947.319	64.124
15.31865	947.618	64.1338
15.3196	947.1571	64.1436
15.3192	941.78	64.15332
15.3211	936.014	64.1631
15.322	939.871	64.1729
15.3221	942.567	64.1826
15.3229	949.096	64.1924
15.3252	947.006	64.2021
15.3252	938.254	64.2119
15.3252	937.175	64.22168
15.3276	939.199	64.2314
15.327	942.857	64.2412
15.3276	945.96	64.251
15.3294	946.815	64.2607
15.3309	945.54	64.2705
15.331	938.9729	64.2803
15.331	936.327	64.29
15.332	938.817	64.2998
15.3326	944.904	64.30957
15.3334	948.228	64.3193
15.3359	945.438	64.3291
15.3357	939.133	64.3389
15.3358	939.774	64.3486
15.33702	937.498	64.3584
15.3379	939.605	64.3682
15.3397	945.69	64.37793
15.3395	947.163	64.3877
15.3408	944.811	64.3975
15.3407	939.872	64.4072
15.3412	934.588	64.417
15.34287	939.501	64.4268
15.3439	944.665	64.4365
15.3445	946.933	64.4463
15.3452	946.414	64.4561
15.34639	941.752	64.46582
15.347	939.348	64.4756
15.3477	935.891	64.4854
15.3474	939.98	64.4951
15.3491	945.963	64.5049
15.3504	948.559	64.5146
15.35112	945.63	64.5244
15.3519	935.612	64.53418
15.3523	935.682	64.5439
15.3531	940.952	64.5537
15.3548	943.131	64.5635
15.3553	948.841	64.5732
15.3557	943.705	64.583
15.3563	940.612	64.5928
15.3571	936.1261	64.6025
15.3585	934.9696	64.6123
15.3599	942.895	64.62207
15.36	949.908	64.6318
15.3607	947.1626	64.6416
15.3614	941.319	64.6514
15.3633	934.009	64.6611
15.3636	936.944	64.6709
15.36443	939.274	64.6807
15.3647	947.036	64.69043
15.3657	947.668	64.7002
15.3658	945.603	64.71
15.3681	937.777	64.7197
15.3685	934.171	64.7295
15.3695	938.331	64.7393
15.3694	946.067	64.749
15.3711	949.476	64.7588
15.3712	946.075	64.7686
15.3724	939.261	64.77832
15.373	935.2442	64.7881
15.3745	939.418	64.7979
15.3744	942.208	64.8076
15.3772	944.829	64.8174
15.3752	947.257	64.8271
15.3772	943.159	64.8369
15.37849	936.373	64.84668
15.3784	937.507	64.8564
15.3798	939.399	64.8662
15.38006	947.595	64.876
15.3808	947.194	64.8857
15.3817	942.234	64.8955
15.3827	938.164	64.9053
15.384	937.8313	64.915
15.3843	940.193	64.9248
15.3849	942.582	64.93457
15.3863	947.533	64.9443
15.3872	947.1756	64.9541
15.388	941.546	64.9639
15.3883	936.2464	64.9736
15.389	936.729	64.9834
15.38951	941.01	64.9932
15.3903	947.5155	65.00293
15.3912	945.435	65.0127
15.3918	945.079	65.0225
15.3945	940.266	65.0322
15.395	936.836	65.042
15.39441	939.347	65.0518
15.3959	943.296	65.0615
15.398	946.315	65.0713
15.3968	946.7287	65.0811
15.3977	938.918	65.09082
15.3995	935.447	65.1006
15.3994	937.988	65.1104
15.4014	941.627	65.1201
15.4009	945.27	65.1299
15.4018	946.882	65.1396
15.4037	943.336	65.1494
15.4036	939.113	65.15918
15.405	934.248	65.1689
15.4051	938.7384	65.1787
15.4061	944.281	65.1885
15.408	948.805	65.1982
15.4074	943.487	65.208
15.4096	937.277	65.2178
15.4099	936.245	65.2275
15.4107	937.2746	65.2373
15.411	941.532	65.24707
15.4132	947.861	65.2568
15.4127	945.596	65.2666
15.4138	943.5672	65.2764
15.4141	935.101	65.2861
15.4152	932.79	65.2959
15.4164	940.98	65.3057
15.4175	947.216	65.31543
15.4182	949.541	65.3252
15.4186	942.967	65.335
15.4196	935	65.3447
15.4199	937.151	65.3545
15.4215	938.15	65.3643
15.4223	944.744	65.374
15.4235	946.599	65.3838
15.4234	945.895	65.3936
15.4243	942.048	65.40332
15.4251	934.1554	65.4131
15.4247	935.93	65.4229
15.4268	942.729	65.4326
15.4274	948.2998	65.4424
15.4278	947.348	65.4521
15.4289	940.9433	65.4619
15.4295	936.469	65.47168
15.4308	938.325	65.4814
15.4322	940.341	65.4912
15.4325	944.979	65.501
15.43333	948.1792	65.5107
15.43447	944.89	65.5205
15.4347	937.777	65.5303
15.4352	936.22	65.54
15.4364	937.946	65.5498
15.4361	946.56	65.55957
15.4395	945.664	65.5693
15.4385	943.686	65.5791
15.4393	940.853	65.5889
15.441	936.386	65.5986
15.4413	937.8681	65.6084
15.4426	937.687	65.6182
15.44326	945.31	65.62793
15.4448	946.6167	65.6377
15.4446	942.363	65.6475
15.44502	939.045	65.6572
15.4457	935.304	65.667
15.4477	941.024	65.6768
15.4484	944.34	65.6865
15.4491	945.425	65.6963
15.4493	943.493	65.7061
15.4497	940.4386	65.71582
15.4506	937.751	65.7256
15.4521	934.751	65.7354
15.45337	938.7193	65.7451
15.4531	946.963	65.7549
15.4553	948.6	65.7646
15.4556	942.682	65.7744
15.4556	937.821	65.78418
15.45684	936.8382	65.7939
15.45795	940.923	65.8037
15.4582	942.916	65.8135
15.4592	947.12	65.8232
15.46028	945.9895	65.833
15.4613	939.65	65.8428
15.4617	934.427	65.8525
15.4621	934.795	65.8623
15.463	941.149	65.87207
15.4639	949.051	65.8818
15.4648	946.448	65.8916
15.4664	938.681	65.9014
15.4662	936.304	65.9111
15.4681	934.621	65.9209
15.4684	941.009	65.9307
15.4683	945.855	65.94043
15.4702	947.259	65.9502
15.4715	945.554	65.96
15.4711	935.848	65.9697
15.4726	932.574	65.9795
15.4731	936.103	65.9893
15.4745	945.095	65.999
15.4749	950.756	66.0088
15.4756	942.807	66.0186
15.47642	938.711	66.02832
15.4782	936.371	66.0381
15.47697	935.03	66.0479
15.4781	942.479	66.0576
15.4802	946.006	66.0674
15.4806	948.205	66.0771
15.4807	942.407	66.0869
15.4816	933.547	66.09668
15.483	935.85	66.1064
15.4841	940.689	66.1162
15.4846	946.661	66.126
15.4842	946.36	66.1357
15.4849	943.234	66.1455
15.488	937.963	66.1553
15.4875	936.7915	66.165
15.4877	938.592	66.1748
15.4903	942.247	66.18457
15.49	947.111	66.1943
15.4913	946.797	66.2041
15.4924	940.048	66.2139
15.4925	935.95	66.2236
15.493	938.612	66.2334
15.4946	941.644	66.2432
15.4954	946.186	66.25293
15.4948	945.916	66.2627
15.4957	940.901	66.2725
15.4978	939.127	66.2822
15.4979	936.919	66.292
15.4994	936.9129	66.3018
15.4993	944.37	66.3115
15.49963	947.455	66.3213
15.5019	944.239	66.3311
15.5019	940.273	66.34082
15.5034	933.0517	66.3506
15.5031	938.246	66.3604
15.5048	940.891	66.3701
15.5056	944.052	66.3799
15.5067	945.3053	66.3896
15.5079	941.433	66.3994
15.5089	938.746	66.40918
15.5084	934.635	66.4189
15.5102	936.468	66.4287
15.51066	944.2677	66.4385
15.5113	946.942	66.4482
15.513	945.189	66.458
15.5138	936.498	66.4678
15.5137	934.832	66.4775
15.5143	939.818	66.4873
15.5162	939.868	66.49707
15.5156	947.927	66.5068
15.5167	947.3316	66.5166
15.5182	941.663	66.5264
15.5192	935.089	66.5361
15.51971	933.3	66.5459
15.52	939.366	66.5557
15.521	947.622	66.56543
15.5213	946.55	66.5752
15.5229	941.18	66.585
15.5232	936.252	66.5947
15.5245	934.472	66.6045
15.5241	938.828	66.6143
15.5265	943.283	66.624
15.5266	947.203	66.6338
15.5276	946.307	66.6436
15.52772	937.344	66.65332
15.5291	934.754	66.6631
15.53	934.119	66.6729
15.5312	944.644	66.6826
15.5318	946.765	66.6924
15.5329	944.114	66.7021
15.5332	942.129	66.7119
15.5343	936.94	66.72168
15.5347	935.703	66.7314
15.5365	939.309	66.7412
15.5358	943.736	66.751
15.5374	948.71	66.7607
15.5382	943.857	66.7705
15.5393	935.503	66.7803
15.5407	934.859	66.79
15.5405	938.549	66.7998
15.542	945.732	66.80957
15.5422	946.536	66.8193
15.5434	943.8	66.8291
15.5444	939.596	66.8389
15.54396	935.443	66.8486
15.5456	935.024	66.8584
15.5462	939.455	66.8682
15.5481	944.402	66.87793
15.5489	948.262	66.8877
15.5487	941.143	66.8975
15.55	936.5	66.9072
15.5505	936.352	66.917
15.552	937.799	66.9268
15.5516	943.796	66.9365
15.5526	942.94	66.9463
15.554	943.52	66.9561
15.555	940.502	66.96582
15.5551	935.474	66.9756
15.5569	934.61	66.9854
15.5568	939.534	66.9951
15.557	946.078	67.0049
15.5579	945.241	67.0146
15.5597	941.235	67.0244
15.55961	934.697	67.03418
15.5616	936.961	67.0439
15.56215	937.617	67.0537
15.5626	942.488	67.0635
15.5633	946.249	67.0732
15.5632	944.323	67.083
15.5649	939.0072	67.0928
15.566	930.915	67.1025
15.56716	933.912	67.1123
15.56871	942.159	67.12207
15.5681	946.313	67.1318
15.569	945.368	67.1416
15.5699	937.909	67.1514
15.571	935.149	67.1611
15.5721	934.317	67.1709
15.572	936.596	67.1807
15.5727	944.1637	67.19043
15.5733	946.6925	67.2002
15.5754	944.811	67.21
15.5756	934.787	67.2197
15.5764	931.301	67.2295
15.5777	937.256	67.2393
15.5777	942.656	67.249
15.5793	947.003	67.2588
15.58	943.02	67.2686
15.5805	936.566	67.27832
15.5817	934.026	67.2881
15.5834	933.635	67.2979
15.5836	940.547	67.3076
15.5833	945.959	67.3174
15.5845	946.497	67.3271
15.5851	939.156	67.3369
15.5855	931.549	67.34668
15.5867	930.968	67.3564
15.5885	938.794	67.3662
15.5881	943.631	67.376
15.5899	943.61	67.3857
15.5907	941.672	67.3955
15.5915	936.25	67.4053
15.5921	933.756	67.415
15.5927	937.533	67.4248
15.5931	942.068	67.43457
15.5946	947.761	67.4443
15.5951	943.208	67.4541
15.596	939.012	67.4639
15.596	933.3454	67.4736
15.59739	935.811	67.4834
15.5984	941.45	67.4932
15.5985	941.854	67.50293
15.6004	944.611	67.5127
15.6003	940.1687	67.5225
15.60223	936.268	67.5322
15.6024	935.605	67.542
15.6037	934.111	67.5518
15.6032	942.311	67.5615
15.6051	946.646	67.5713
15.6057	940.229	67.5811
15.6064	940.014	67.59082
15.6076	934.143	67.6006
15.6084	937.406	67.6104
15.6086	940.971	67.6201
15.6095	942.546	67.6299
15.6107	943.929	67.6396
15.61067	941.4115	67.6494
15.6119	935.795	67.65918
15.6133	933.373	67.6689
15.61344	936.2066	67.6787
15.6142	943.369	67.6885
15.6151	945.349	67.6982
15.6169	941.598	67.708
15.6176	937.71	67.7178
15.6185	933.326	67.7275
15.6187	936.5686	67.7373
15.6194	941.205	67.74707
15.62	944.159	67.7568
15.6213	946.442	67.7666
15.62288	940.717	67.7764
15.6234	933.142	67.7861
15.62347	933.991	67.7959
15.6251	938.457	67.8057
15.6254	945.567	67.81543
15.6265	946.808	67.8252
15.6267	940.354	67.835
15.6279	936.976	67.8447
15.6285	932.997	67.8545
15.6297	935.286	67.8643
15.631	942.625	67.874
15.6316	946.212	67.8838
15.6317	946.424	67.8936
15.632	936.327	67.90332
15.6327	931.916	67.9131
15.6342	934.534	67.9229
15.6345	941.647	67.9326
15.6356	947.964	67.9424
15.6366	943.965	67.9521
15.6374	941.8	67.9619
15.6388	936.272	67.97168
15.6404	932.017	67.9814
15.6402	940.299	67.9912
15.63984	943.108	68.001
15.64209	947.762	68.0107
15.6427	942.057	68.0205
15.6433	932.381	68.0303
15.644	932.4873	68.04
15.6451	938.113	68.0498
15.6456	942.406	68.05957
15.6466	944.576	68.0693
15.6472	941.954	68.0791
15.6486	939.05	68.0889
15.6496	933.7041	68.0986
15.6492	934.5	68.1084
15.6507	938.459	68.1182
15.65097	944.639	68.12793
15.6525	945.706	68.1377
15.6531	938.574	68.1475
15.6542	934.755	68.1572
15.6541	935.103	68.167
15.6554	936.244	68.1768
15.6567	941.391	68.1865
15.6574	943.402	68.1963
15.6571	942.342	68.2061
15.6587	937.3963	68.21582
15.6587	934.3421	68.2256
15.6606	933.1925	68.2354
15.6612	941.103	68.2451
15.6619	944.155	68.2549
15.66274	942.087	68.2646
15.6637	940.33	68.2744
15.6645	932.705	68.28418
15.6651	936.491	68.2939
15.6666	934.275	68.3037
15.6668	939.414	68.3135
15.6672	943.7818	68.3232
15.66811	943.22	68.333
15.6695	937.899	68.3428
15.6695	932.111	68.3525
15.6712	934.681	68.3623
15.6713	941.608	68.37207
15.6724	943.2312	68.3818
15.67302	944.701	68.3916
15.6748	939.135	68.4014
15.6749	934.456	68.4111
15.6762	933.903	68.4209
15.6758	934.842	68.4307
15.6773	942.376	68.44043
15.6781	947.509	68.4502
15.68013	943.126	68.46
15.6799	933.372	68.4697
15.68146	931.852	68.4795
15.6816	935.75	68.4893
15.6822	944.292	68.499
15.6841	944.919	68.5088
15.684	942.932	68.5186
15.6851	937.62	68.52832
15.6854	931.971	68.5381
15.6864	932.395	68.5479
15.6879	938.06	68.5576
15.6872	944.465	68.5674
15.6892	946.705	68.5771
15.6894	938.296	68.5869
15.6902	931.097	68.59668
15.6909	931.432	68.6064
15.6922	937.29	68.6162
15.69309	943.9892	68.626
15.69454	941.057	68.6357
15.6949	940.477	68.6455
15.69577	934.425	68.6553
15.69529	929.833	68.665
15.697	935.005	68.6748
15.6978	938.974	68.68457
15.6985	946.623	68.6943
15.6989	942.972	68.7041
15.6991	934.109	68.7139
15.7017	931.857	68.7236
15.7003	933.5683	68.7334
15.70201	938.762	68.7432
15.70283	941.548	68.75293
15.7039	943.677	68.7627
15.7051	941.252	68.7725
15.7078	934.348	68.7822
15.7065	934.38	68.792
15.7077	935.194	68.8018
15.708	942.196	68.8115
15.7086	944.897	68.8213
15.709	939.56	68.8311
15.7109	935.381	68.84082
15.7115	934.178	68.8506
15.7126	933.425	68.8604
15.713	938.207	68.8701
15.7144	941.081	68.8799
15.7155	942.731	68.8896
15.7155	942.703	68.8994
15.7158	933.118	68.90918
15.7187	930.412	68.9189
15.7182	936.886	68.9287
15.7185	940.518	68.9385
15.7197	943.589	68.9482
15.7209	940.42	68.958
15.72112	935.0166	68.9678
15.7212	935.076	68.9775
15.7225	932.307	68.9873
15.7235	937.411	68.99707
15.724	941.994	69.0068
15.7259	943.373	69.0166
15.726	939.361	69.0264
15.7273	929.7865	69.0361
15.72855	933.531	69.0459
15.7288	939.4668	69.0557
15.7296	941.084	69.06543
15.7303	945.247	69.0752
15.732	939.302	69.085
15.7314	933.502	69.0947
15.7313	930.996	69.1045
15.7326	929.665	69.1143
15.7346	941.18	69.124
15.735	945.795	69.1338
15.7363	942.421	69.1436
15.7376	935.042	69.15332
15.7381	928.7735	69.1631
15.7391	932.55	69.1729
15.7391	938.633	69.1826
15.7397	942.314	69.1924
15.7413	943.638	69.2021
15.7411	938.228	69.2119
15.7426	932.714	69.22168
15.7444	929.422	69.2314
15.7446	934.511	69.2412
15.7448	941.801	69.251
15.7457	944.08	69.2607
15.7469	937.851	69.2705
15.748	931.084	69.2803
15.7476	929.245	69.29
15.74898	932.759	69.2998
15.7496	938.0285	69.30957
15.7499	941.043	69.3193
15.7518	942.959	69.3291
15.7533	934.429	69.3389
15.7528	930.084	69.3486
15.7536	930.075	69.3584
15.755	935.1723	69.3682
15.7559	944.198	69.37793
15.7569	940.156	69.3877
15.7568	934.539	69.3975
15.7582	931.303	69.4072
15.7587	930.946	69.417
15.7596	934.9151	69.4268
15.7606	936.801	69.4365
15.762	940.3302	69.4463
15.7632	939.614	69.4561
15.7619	932.219	69.46582
15.7642	930.214	69.4756
15.76334	930.941	69.4854
15.7655	934.822	69.4951
15.7654	943.7453	69.5049
15.767	940.272	69.5146
15.768	935.442	69.5244
15.7687	932.497	69.53418
15.7695	931.71	69.5439
15.7701	933.44	69.5537
15.772	936.823	69.5635
15.7714	941.268	69.5732
15.77329	939.956	69.583
15.7742	932.674	69.5928
15.7737	927.763	69.6025
15.7742	931.381	69.6123
15.776	935.125	69.62207
15.7772	939.73	69.6318
15.7775	938.244	69.6416
15.7786	934.995	69.6514
15.7791	931.736	69.6611
15.7797	927.666	69.6709
15.7815	932.0799	69.6807
15.7815	938.481	69.69043
15.7825	941.88	69.7002
15.7843	936.69	69.71
15.7837	927.524	69.7197
15.7853	927.057	69.7295
15.7853	930.368	69.7393
15.7856	935.592	69.749
15.7877	941.437	69.7588
15.7892	936.281	69.7686
15.7889	933.803	69.77832
15.7901	926.827	69.7881
15.7905	924.881	69.7979
15.79128	932.6933	69.8076
15.7915	939.004	69.8174
15.7932	941.13	69.8271
15.7932	931.904	69.8369
15.7951	924.779	69.84668
15.7953	927.299	69.8564
15.7962	931.935	69.8662
15.79682	936.711	69.876
15.7982	937.207	69.8857
15.7984	934.828	69.8955
15.8001	929.3197	69.9053
15.7995	921.587	69.915
15.7997	926.458	69.9248
15.8021	932.814	69.93457
15.803	935.465	69.9443
15.8039	932.603	69.9541
15.8109	34.2374	69.9639
15.8122	-17.4757	69.9736
15.8119	-45.2357	69.9834
15.8119	-30.8198	69.9932
15.8115	-42.7326	70.00293
15.8114	-38.343	70.0127
15.8122	-44.5481	70.0225
15.8115	-46.7713	70.0322
15.8129	-49.0844	70.042
15.8141	-44.6832	70.0518
15.8147	-37.9259	70.0615
15.8147	-35.8452	70.0713
15.8147	-40.0656	70.0811
15.8153	-46.5381	70.09082
15.8168	-47.9057	70.1006
15.8177	-46.5109	70.1104
15.8189	-43.5815	70.1201
15.81958	-37.8311	70.1299
15.8202	-35.3309	70.1396
15.8211	-41.9945	70.1494
15.8221	-47.7451	70.15918
15.8224	-49.7555	70.1689
15.82338	-42.4673	70.1787
15.8245	-36.9785	70.1885
15.8241	-38.69677	70.1982
15.8263	-39.6319	70.208
15.8262	-44.5151	70.2178
15.82688	-49.4101	70.2275
15.8279	-47.2573	70.2373
15.8288	-42.4686	70.24707
15.8297	-35.7454	70.2568
15.8295	-35.28	70.2666
15.8308	-42.0332	70.2764
15.831	-49.21463	70.2861
15.8331	-48.2722	70.2959
15.83355	-40.2782	70.3057
15.8342	-38.6865	70.31543
15.8352	-35.9558	70.3252
15.8358	-39.4777	70.335
15.837	-44.6297	70.3447
15.8373	-50.3734	70.3545
15.8382	-47.3309	70.3643
15.8388	-42.0439	70.374
15.8402	-31.9555	70.3838
15.8415	-37.1853	70.3936
15.8417	-45.7863	70.40332
15.8426	-48.5168	70.4131
15.844	-47.85421	70.4229
15.8452	-42.43816	70.4326
15.8447	-35.5973	70.4424
15.8446	-37.0495	70.4521
15.8465	-40.0584	70.4619
15.8478	-49.3385	70.47168
15.8474	-50.6818	70.4814
15.8487	-44.0724	70.4912
15.8504	-37.1161	70.501
15.8509	-33.31031	70.5107
15.8515	-40.2583	70.5205
15.8519	-46.83202	70.5303
15.8519	-49.8427	70.54
15.8542	-46.30344	70.5498
15.8549	-39.2307	70.55957
15.8556	-37.7344	70.5693
15.8558	-36.7236	70.5791
15.8567	-42.0267	70.5889
15.8578	-52.694	70.5986
15.85924	-47.7844	70.6084
15.8586	-41.4978	70.6182
15.8607	-35.8721	70.62793
15.8614	-38.0585	70.6377
15.8619	-43.483	70.6475
15.8631	-47.1615	70.6572
15.8641	-47.7452	70.667
15.86364	-44.648	70.6768
15.8648	-40.6987	70.6865
15.8658	-37.0324	70.6963
15.8654	-37.1421	70.7061
15.8668	-44.8261	70.71582
15.8691	-48.472	70.7256
15.8682	-46.5584	70.7354
15.8703	-41.4275	70.7451
15.87027	-38.38158	70.7549
15.8722	-38.7784	70.7646
15.8724	-43.1659	70.7744
15.8729	-45.1403	70.78418
15.8744	-46.5876	70.7939
15.8754	-45.8201	70.8037
15.876	-39.4301	70.8135
15.8761	-36.2645	70.8232
15.8767	-39.1839	70.833
15.8783	-44.9481	70.8428
15.8795	-50.3899	70.8525
15.87969	-44.8822	70.8623
15.8805	-42.0063	70.87207
15.8811	-38.5985	70.8818
15.8828	-38.2902	70.8916
15.8827	-42.6351	70.9014
15.8839	-45.4478	70.9111
15.8844	-48.1546	70.9209
15.8857	-45.0354	70.9307
15.8866	-38.0655	70.94043
15.8872	-35.6104	70.9502
15.8876	-39.1254	70.96
15.8892	-48.5602	70.9697
15.8899	-49.3665	70.9795
15.89089	-44.26	70.9893
15.8908	-43.0333	70.999
15.8928	-35.8801	71.0088
15.8925	-37.786	71.0186
15.8937	-42.7444	71.02832
15.8941	-47.4305	71.0381
15.8945	-49.264	71.0479
15.8951	-44.1071	71.0576
15.8965	-35.5225	71.0674
15.8976	-35.2957	71.0771
15.8971	-41.6891	71.0869
15.8984	-48.1487	71.09668
15.9	-48.0844	71.1064
15.8997	-43.4388	71.1162
15.9015	-39.0011	71.126
15.9027	-36.2381	71.1357
15.9031	-38.0254	71.1455
15.904	-45.06781	71.1553
15.9043	-49.7475	71.165
15.9055	-48.144	71.1748
15.9061	-38.9498	71.18457
15.9074	-34.57283	71.1943
15.9082	-39.6245	71.2041
15.9095	-45.8054	71.2139
15.9093	-48.194	71.2236
15.9101	-46.7048	71.2334
15.9125	-43.1288	71.2432
15.9125	-40.21339	71.25293
15.913	-34.7862	71.2627
15.9141	-41.2706	71.2725
15.9147	-48.6154	71.2822
15.9153	-48.3307	71.292
15.9154	-46.08976	71.3018
15.9165	-37.9655	71.3115
15.9185	-37.7552	71.3213
15.9188	-41.223	71.3311
15.9203	-45.6304	71.34082
15.92061	-47.6488	71.3506
15.9206	-46.9011	71.3604
15.9217	-44.058	71.3701
15.9231	-36.485	71.3799
15.9245	-36.18	71.3896
15.9254	-43.6999	71.3994
15.9257	-47.2838	71.40918
15.9264	-49.2383	71.4189
15.9271	-44.12743	71.4287
15.9281	-41.5261	71.4385
15.9284	-38.7523	71.4482
15.929	-41.789	71.458
15.9303	-43.8686	71.4678
15.9308	-49.5255	71.4775
15.9311	-47.0256	71.4873
15.9328	-42.9396	71.49707
15.9325	-37.0752	71.5068
15.9337	-36.7666	71.5166
15.9349	-43.4202	71.5264
15.9359	-48.189	71.5361
15.9368	-48.3505	71.5459
15.938	-45.9091	71.5557
15.9382	-39.8829	71.56543
15.9392	-37.5893	71.5752
15.9399	-39.2576	71.585
15.9408	-43.6008	71.5947
15.9416	-51.9972	71.6045
15.94244	-47.1706	71.6143
15.9431	-40.989	71.624
15.94352	-35.93771	71.6338
15.9448	-38.4505	71.6436
15.9465	-46.8412	71.65332
15.9459	-49.2564	71.6631
15.9464	-48.0845	71.6729
15.9474	-45.7568	71.6826
15.9493	-34.94878	71.6924
15.9491	-38.56654	71.7021
15.9504	-40.7451	71.7119
15.951	-48.7781	71.72168
15.9517	-53.35	71.7314
15.9534	-46.7683	71.7412
15.9531	-37.3447	71.751
15.955	-34.84634	71.7607
15.9559	-40.7107	71.7705
15.9564	-47.6518	71.7803
15.95691	-48.04837	71.79
15.9574	-48.8643	71.7998
15.95859	-41.4792	71.80957
15.9598	-35.9927	71.8193
15.9601	-36.0463	71.8291