File: data/processed_data_files/tensile/0.254_solid_uprint_typei_090_r(2).dat
MTS793|BTW|ENU|1|2|.|/|:|1|0|0|A

Data Header:			0.254_solid_uprint_typei_090_r0			Time:	20.0227	s	4/15/2019 2:51:23 PM
Data Acquisition:	Timed
Station Name:	ft40.cfg
Test File Name:	monotonic_0.2540_typei_solid_090_uprint.tst
Displacement	Force	Running Time
mm	N	s
9.98231	-153.289	0.02734375
9.98253	-148.375	0.046875
9.98323	-147.521	0.06640625
9.98245	-155.094	0.0859375
9.98439	-152.444	0.105469
9.98649	-144.996	0.125
9.98921	-146.884	0.144531
9.9906	-146.7001	0.1640625
9.99207	-143.775	0.183594
9.99314	-144.383	0.203125
9.994812	-144.983	0.222656
9.99712	-140.614	0.2421875
9.99786	-141.943	0.261719
9.9997	-141.638	0.28125
10.0027	-138.991	0.300781
10.0031	-134.285	0.3203125
10.0045	-142.079	0.339844
10.00703	-136.344	0.359375
10.0088	-130.9147	0.378906
10.0102	-133.59	0.3984375
10.0115	-136.052	0.417969
10.0127	-127.55	0.4375
10.015	-133.27	0.457031
10.0154	-131.958	0.4765625
10.0183	-123.742	0.496094
10.0197	-124.419	0.515625
10.0211	-133.604	0.535156
10.0231	-121.613	0.5546875
10.0246	-123.848	0.574219
10.0263	-125.527	0.59375
10.0284	-121.239	0.613281
10.0293	-118.952	0.6328125
10.0313	-125.766	0.652344
10.03326	-118.887	0.671875
10.0346	-116.898	0.691406
10.03549	-122.0838	0.7109375
10.0385	-117.58	0.730469
10.0384	-112.457	0.75
10.0412	-116.885	0.769531
10.043	-116.3474	0.7890625
10.0435	-112.189	0.808594
10.0455	-110.528	0.828125
10.0471	-111.076	0.847656
10.0488	-109.382	0.8671875
10.0503	-107.061	0.886719
10.0525	-111.35	0.90625
10.0538	-104.984	0.925781
10.0552	-103.295	0.9453125
10.0567	-106.93	0.964844
10.0589	-105.017	0.984375
10.0612	-97.9731	1.00391
10.0613	-102.911	1.02344
10.0641	-102.377	1.04297
10.0655	-95.9135	1.0625
10.0664	-96.5314	1.08203
10.069	-102.025	1.10156
10.0697	-91.8728	1.12109
10.0713	-96.5102	1.140625
10.0735	-95.5219	1.16016
10.0751	-88.8065	1.17969
10.0766	-86.907	1.19922
10.0778	-96.0303	1.21875
10.0799	-87.1286	1.23828
10.0813	-86.9683	1.25781
10.0832	-87.8794	1.27734
10.0845	-86.1352	1.296875
10.0861	-81.7549	1.31641
10.087	-89.2323	1.33594
10.08996	-82.4286	1.35547
10.0916	-80.1448	1.375
10.0927	-80.9413	1.39453
10.0944	-81.15641	1.41406
10.0964	-76.2547	1.43359
10.09824	-77.7613	1.453125
10.09856	-79.1687	1.47266
10.1013	-74.9585	1.49219
10.1026	-72.5428	1.51172
10.1038	-75.2164	1.53125
10.1063	-70.5728	1.55078
10.1079	-69.8709	1.57031
10.1096	-73.8583	1.58984
10.1114	-67.9808	1.609375
10.1129	-64.58477	1.62891
10.1141	-66.8238	1.64844
10.1159	-69.7006	1.66797
10.1174	-61.9627	1.6875
10.119	-64.7442	1.70703
10.1197	-64.0632	1.72656
10.1223	-59.1336	1.74609
10.1239	-56.2235	1.765625
10.1264	-63.9366	1.78516
10.1268	-54.7071	1.80469
10.1286	-55.98735	1.82422
10.1306	-58.0502	1.84375
10.1316	-53.7197	1.86328
10.1338	-47.3661	1.88281
10.1364	-57.7135	1.90234
10.13705	-50.8542	1.921875
10.1386	-47.4976	1.94141
10.1402	-50.1018	1.96094
10.1423	-49.0223	1.98047
10.14232	-42.5249	2
10.144	-50.0617	2.01953
10.1474	-46.40559	2.03906
10.148	-42.0276	2.05859
10.1505	-42.2311	2.078125
10.1512	-45.0096	2.09766
10.1533	-39.7745	2.11719
10.1547	-38.81839	2.13672
10.1561	-39.97	2.15625
10.1571	-37.932	2.17578
10.1592	-34.6749	2.19531
10.1615	-36.84705	2.21484
10.1631	-34.0378	2.234375
10.165	-31.79517	2.25391
10.1655	-34.0705	2.27344
10.1682	-33.3582	2.29297
10.1695	-26.834	2.3125
10.1709	-27.4897	2.33203
10.1717	-31.9446	2.35156
10.1736	-24.2395	2.37109
10.1755	-26.6422	2.390625
10.1769	-26.052	2.41016
10.1781	-21.4633	2.42969
10.18119	-18.1715	2.44922
10.1822	-26.22263	2.46875
10.1841	-18.3034	2.48828
10.1859	-16.5432	2.50781
10.1876	-18.8657	2.52734
10.1889	-18.7314	2.546875
10.1905	-8.99057	2.56641
10.1916	-17.9331	2.58594
10.1924	-12.7818	2.60547
10.195	-9.17038	2.625
10.1981	-10.8674	2.64453
10.1987	-11.0874	2.66406
10.2007	-4.79343	2.68359
10.2015	-9.43051	2.703125
10.2028	-9.327035	2.72266
10.2049	-5.24729	2.74219
10.207	-1.58092	2.76172
10.2085	-4.64045	2.78125
10.2098	-1.59434	2.80078
10.21173	-0.937667	2.82031
10.213	-1.57468	2.83984
10.21528	-1.42455	2.859375
10.2162	4.15646	2.87891
10.2197	3.43079	2.89844
10.2198	2.34201	2.91797
10.2221	7.81819	2.9375
10.22314	6.37275	2.95703
10.225	3.03222	2.97656
10.2269	9.94114	2.99609
10.2276	13.5486	3.015625
10.2289	6.635366	3.03516
10.2306	15.2682	3.05469
10.2327	13.9364	3.07422
10.2348	10.7974	3.09375
10.2359	16.3402	3.11328
10.2388	21.4815	3.13281
10.24	13.4411	3.15234
10.24053	20.3544	3.171875
10.243	24.4164	3.19141
10.2455	19.2629	3.21094
10.2457	19.24	3.23047
10.247	27.8068	3.25
10.2486	19.44845	3.26953
10.2508	24.7477	3.28906
10.2531	27.9736	3.30859
10.2541	27.6294	3.328125
10.2558	27.6514	3.34766
10.2567	34.272	3.36719
10.2587	30.6408	3.38672
10.26035	29.6552	3.40625
10.262	32.5077	3.42578
10.26482	37.9458	3.44531
10.266	34.4273	3.46484
10.2662	37.1988	3.484375
10.2684	37.99593	3.50391
10.2704	38.6547	3.52344
10.2722	38.5798	3.54297
10.2742	44.21212	3.5625
10.2755	42.70615	3.58203
10.2764	39.5926	3.60156
10.2789	45.8695	3.62109
10.28	46.99823	3.640625
10.2811	43.6507	3.66016
10.2835	48.0909	3.67969
10.2862	52.2896	3.69922
10.287	45.5183	3.71875
10.2879	51.4475	3.73828
10.2897	54.01577	3.75781
10.291	50.1948	3.77734
10.2933	54.8454	3.796875
10.29505	62.17836	3.81641
10.2955	53.3964	3.83594
10.2974	56.551	3.85547
10.3	60.8058	3.875
10.3007	61.4362	3.89453
10.30128	61.4445	3.91406
10.30466	68.0141	3.93359
10.3062	62.31813	3.953125
10.3079	63.818	3.97266
10.3095	65.9915	3.99219
10.31129	70.6127	4.01172
10.3133	67.819	4.03125
10.3145	71.0476	4.05078
10.3149	71.5039	4.07031
10.3165	71.4257	4.08984
10.3196	71.192	4.109375
10.32006	78.1168	4.12891
10.3227	75.7088	4.14844
10.3239	75.87394	4.16797
10.3256	79.1574	4.1875
10.3274	77.9709	4.20703
10.3296	75.78315	4.22656
10.33082	84.1147	4.24609
10.3318	85.699	4.265625
10.33357	79.5693	4.28516
10.3352	84.5473	4.30469
10.337	88.4777	4.32422
10.3386	84.4768	4.34375
10.3405	86.1704	4.36328
10.341	93.4094	4.38281
10.3437	85.28	4.40234
10.3452	90.3896	4.421875
10.3458	95.2253	4.44141
10.348	91.555	4.46094
10.3491	93.38456	4.48047
10.3521	102.754	4.5
10.3536	94.5265	4.51953
10.3546	96.9474	4.53906
10.35657	99.543	4.55859
10.3579	102.241	4.578125
10.3587	99.9733	4.59766
10.362	107.467	4.61719
10.3627	102.3119	4.63672
10.3642	102.495	4.65625
10.3662	105.855	4.67578
10.3687	111.583	4.69531
10.3695	106.534	4.71484
10.37105	109.246	4.734375
10.3728	110.731	4.75391
10.3743	113.307	4.77344
10.3757	110.367	4.79297
10.37724	116.085	4.8125
10.3788	115.575	4.83203
10.38133	115.444	4.85156
10.38161	118.898	4.87109
10.3843	118.479	4.890625
10.3856	116.345	4.91016
10.388	121.97	4.92969
10.389	125.526	4.94922
10.39082	120.701	4.96875
10.3918	123.853	4.98828
10.3938	128.266	5.00781
10.3953	125.462	5.02734
10.3973	126.995	5.046875
10.3987	134.2962	5.06641
10.4006	125.987	5.08594
10.4031	129.782	5.10547
10.4035	136.085	5.125
10.4056	132.94	5.14453
10.4071	131.395	5.16406
10.40858	139.346	5.18359
10.4106	135.9469	5.203125
10.4125	136.504	5.22266
10.4134	139.008	5.24219
10.41597	144.339	5.26172
10.4166	139.358	5.28125
10.418	145.615	5.30078
10.419	143.513	5.32031
10.4219	143.3936	5.33984
10.423	144	5.359375
10.4258	150.904	5.37891
10.4269	148.753	5.39844
10.4286	147.99	5.41797
10.4297	150.3645	5.4375
10.4305	152.3318	5.45703
10.4321	149.202	5.47656
10.4352	156.525	5.49609
10.4361	156.3792	5.515625
10.4379	152.631	5.53516
10.4391	156.678	5.55469
10.4399	161.536	5.57422
10.4432	154.417	5.59375
10.4441	160.593	5.61328
10.44762	165.16	5.63281
10.447	160.681	5.65234
10.44804	162.294	5.671875
10.4508	167.848	5.69141
10.4531	162.678	5.71094
10.4546	165.244	5.73047
10.4553	172.94	5.75
10.4576	167.5876	5.76953
10.4583	167.3844	5.78906
10.4609	174.226	5.80859
10.4619	174.308	5.828125
10.4633	170.8228	5.84766
10.4658	178.084	5.86719
10.4662	175.077	5.88672
10.4688	175.691	5.90625
10.4712	177.999	5.92578
10.4719	182.388	5.94531
10.4733	178.086	5.96484
10.4755	182.205	5.984375
10.4768	184.655	6.00391
10.4781	184.389	6.02344
10.47969	180.57	6.04297
10.48195	188.559	6.0625
10.4836	187.256	6.08203
10.4854	186.039	6.10156
10.4873	189.91	6.12109
10.4891	191.822	6.140625
10.4906	186.39	6.16016
10.48921	194.135	6.17969
10.4927	196.399	6.19922
10.4941	191.998	6.21875
10.496	194.994	6.23828
10.4982	201.9157	6.25781
10.4993	195.558	6.27734
10.5016	197.5695	6.296875
10.5031	205.004	6.31641
10.5055	200.226	6.33594
10.5067	200.586	6.35547
10.5074	207.761	6.375
10.5089	204.895	6.39453
10.5108	201.5874	6.41406
10.51282	211.903	6.43359
10.5138	207.477	6.453125
10.5153	205.797	6.47266
10.5175	210.908	6.49219
10.5187	213.489	6.51172
10.5195	210.443	6.53125
10.5225	216.401	6.55078
10.5237	215.798	6.57031
10.5257	215.6403	6.58984
10.5269	216.026	6.609375
10.5295	223.289	6.62891
10.53	217.446	6.64844
10.5306	220.348	6.66797
10.5337	223.325	6.6875
10.5355	225.102	6.70703
10.5363	219.302	6.72656
10.5386	228.1306	6.74609
10.5407	228.517	6.765625
10.5418	226.672	6.78516
10.5426	228.778	6.80469
10.5447	232.737	6.82422
10.5449	227.259	6.84375
10.5496	234.26	6.86328
10.5496	239.041	6.88281
10.5519	233.4814	6.90234
10.5536	232.949	6.921875
10.5548	240.802	6.94141
10.5556	236.442	6.96094
10.5586	237.254	6.98047
10.56	245.28	7
10.56227	240.312	7.01953
10.5633	239.53	7.03906
10.5637	247.854	7.05859
10.5669	244.166	7.078125
10.5679	242.39	7.09766
10.5697	251.418	7.11719
10.5718	247.4305	7.13672
10.5726	245.965	7.15625
10.5745	248.738	7.17578
10.5763	254.8649	7.19531
10.5781	250.652	7.21484
10.58013	254.737	7.234375
10.5811	255.54	7.25391
10.5825	253.7475	7.27344
10.5836	252.901	7.29297
10.5862	262.931	7.3125
10.5877	260.828	7.33203
10.5888	258.843	7.35156
10.5915	261.509	7.37109
10.5922	264.784	7.390625
10.5945	259.032	7.41016
10.5959	266.25	7.42969
10.5975	267.325	7.44922
10.5989	264.922	7.46875
10.6013	265.931	7.48828
10.6015	274.956	7.50781
10.6043	265.0954	7.52734
10.6057	270.966	7.546875
10.60677	277.935	7.56641
10.6074	273.433	7.58594
10.6099	270.527	7.60547
10.6126	280.247	7.625
10.6134	275.104	7.64453
10.6154	275.033	7.66406
10.6167	283.356	7.68359
10.6181	280.054	7.703125
10.6199	277.426	7.72266
10.6211	286.01	7.74219
10.623	287.552	7.76172
10.6256	281.197	7.78125
10.6272	288.182	7.80078
10.629	288.904	7.82031
10.6299	287.188	7.83984
10.6307	287.371	7.859375
10.6325	293.76	7.87891
10.635	289.257	7.89844
10.6365	292.416	7.91797
10.637	295.236	7.9375
10.6396	295.191	7.95703
10.641	290.358	7.97656
10.6435	300.754	7.99609
10.6448	300.901	8.015625
10.6466	296.458	8.03516
10.6473	298.791	8.05469
10.65	304.514	8.07422
10.6509	298.025	8.09375
10.6528	306.186	8.11328
10.6535	308.145	8.13281
10.6559	303.2113	8.15234
10.6574	303.971	8.171875
10.6592	314.064	8.19141
10.6605	306.633	8.21094
10.6623	307.094	8.23047
10.6642	315.062	8.25
10.6654	312.764	8.26953
10.6669	307.812	8.28906
10.6689	317.606	8.30859
10.6709	316.9874	8.328125
10.6721	312.3819	8.34766
10.6729	321.766	8.36719
10.6758	321.498	8.38672
10.6774	315.135	8.40625
10.6788	321.85	8.42578
10.6799	326.81	8.44531
10.6814	319.705	8.46484
10.6833	325.2326	8.484375
10.6852	326.652	8.50391
10.6869	323.848	8.52344
10.6885	325.293	8.54297
10.6897	332.139	8.5625
10.692	327.067	8.58203
10.6926	330.545	8.60156
10.695	333.048	8.62109
10.696	334.761	8.640625
10.6992	328.551	8.66016
10.6988	336.397	8.67969
10.7024	339.049	8.69922
10.7033	337.608	8.71875
10.7038	336.462	8.73828
10.7071	343.856	8.75781
10.707	336.373	8.77734
10.7105	343.486	8.796875
10.7117	347.4928	8.81641
10.713	342.719	8.83594
10.7147	340.489	8.85547
10.7162	351.737	8.875
10.7176	345.868	8.89453
10.7197	345.707	8.91406
10.7207	351.924	8.93359
10.7225	350.134	8.953125
10.7249	345.887	8.97266
10.7249	355.065	8.99219
10.7269	355.3493	9.01172
10.7281	351.423	9.03125
10.7304	358.895	9.05078
10.732	359.306	9.07031
10.73309	352.449	9.08984
10.7348	356.741	9.109375
10.7369	363.342	9.12891
10.7388	359.513	9.14844
10.7404	361.835	9.16797
10.7424	364.707	9.1875
10.7438	364.069	9.20703
10.7456	361.571	9.22656
10.7467	370.079	9.24609
10.7482	368.016	9.265625
10.7507	366.276	9.28516
10.7508	369.9	9.30469
10.7541	374.205	9.32422
10.756	368.258	9.34375
10.7567	374.5029	9.36328
10.7581	379.9162	9.38281
10.7598	374.381	9.40234
10.7604	373.105	9.421875
10.76272	381.319	9.44141
10.7648	376.103	9.46094
10.7661	377.94	9.48047
10.7682	385.678	9.5
10.77	382.844	9.51953
10.7719	377.2753	9.53906
10.7728	388.197	9.55859
10.77498	384.563	9.578125
10.7762	383.285	9.59766
10.7785	389.661	9.61719
10.7793	391.827	9.63672
10.7816	383.89	9.65625
10.7827	392.515	9.67578
10.7836	393.759	9.69531
10.786	388.764	9.71484
10.7877	394.981	9.734375
10.7905	399.847	9.75391
10.7903	392.817	9.77344
10.7925	395.512	9.79297
10.794	400.485	9.8125
10.797	399.464	9.83203
10.7975	398.464	9.85156
10.7986	402.6217	9.87109
10.8006	403.495	9.890625
10.80185	399.957	9.91016
10.8039	408.004	9.92969
10.805	408.606	9.94922
10.8064	406.661	9.96875
10.8076	406.764	9.98828
10.8107	413.779	10.0078
10.8126	406.394	10.0273
10.8134	410.161	10.0469
10.816	416.36	10.0664
10.8171	414.077	10.0859
10.8187	410.9173	10.1055
10.8202	420.75	10.125
10.8213	412.902	10.1445
10.8232	414.548	10.1641
10.8247	423.298	10.1836
10.8266	423.771	10.2031
10.8292	416.6687	10.2227
10.8302	424.7193	10.2422
10.83183	423.716	10.2617
10.8327	420.978	10.28125
10.8357	427.473	10.3008
10.8358	429.3663	10.3203
10.8381	423.278	10.3398
10.8389	428.448	10.3594
10.841	433.29	10.3789
10.8438	428.411	10.3984
10.845	430.9501	10.418
10.8465	435.315	10.4375
10.849	432.762	10.457
10.8502	431.326	10.4766
10.8506	436.895	10.4961
10.8524	436.837	10.5156
10.8544	437.276	10.5352
10.8567	438.918	10.5547
10.8565	442.057	10.5742
10.8588	436.5257	10.59375
10.8612	443.807	10.6133
10.8627	446.068	10.6328
10.8644	445.157	10.6523
10.8661	441.782	10.6719
10.8682	449.7468	10.6914
10.8681	445.327	10.7109
10.8705	447.138	10.7305
10.8725	452.774	10.75
10.8734	451.2	10.7695
10.8752	446.702	10.7891
10.8773	458.287	10.8086
10.8794	454.445	10.8281
10.8796	451.65	10.8477
10.8817	458.532	10.8672
10.8833	462.607	10.8867
10.8856	454.417	10.90625
10.8864	461.216	10.9258
10.88747	461.235	10.9453
10.8901	459.395	10.9648
10.8915	464.118	10.9844
10.8927	468.184	11.0039
10.8942	460.697	11.0234
10.89702	463.6282	11.043
10.8984	470.436	11.0625
10.9005	468.0332	11.082
10.9015	467.108	11.1016
10.90378	473.02	11.1211
10.9053	470.533	11.1406
10.9067	469.807	11.1602
10.9075	475.397	11.1797
10.9097	474.988	11.1992
10.911	473.8187	11.21875
10.9128	475.668	11.2383
10.9146	481.655	11.2578
10.9155	474.624	11.2773
10.91715	477.744	11.2969
10.9195	485.363	11.3164
10.9205	482.646	11.3359
10.922	479.347	11.3555
10.924	488.0285	11.375
10.9261	482.019	11.3945
10.9275	484.307	11.4141
10.9288	491.6937	11.4336
10.9309	492.523	11.4531
10.9331	483.397	11.4727
10.93373	493.817	11.4922
10.9353	492.916	11.5117
10.9378	490.105	11.53125
10.9388	493.756	11.5508
10.9402	498.179	11.5703
10.9422	490.624	11.5898
10.9439	497.0585	11.6094
10.9463	499.277	11.6289
10.94765	496.056	11.6484
10.9485	497.102	11.668
10.9507	505.529	11.6875
10.9534	499.405	11.707
10.9542	498.333	11.7266
10.9543	504.493	11.7461
10.9572	504.9025	11.7656
10.9597	503.94	11.7852
10.9604	507.795	11.8047
10.9619	508.1871	11.8242
10.9638	505.542	11.84375
10.9652	510.898	11.8633
10.9659	512.269	11.8828
10.9679	509.5759	11.9023
10.9693	512.097	11.9219
10.97116	516.852	11.9414
10.972	512.2738	11.9609
10.975	512.791	11.9805
10.9768	520.298	12
10.9778	518.885	12.0195
10.97948	514.706	12.0391
10.9808	523.75	12.0586
10.9824	520.946	12.0781
10.9859	519.462	12.0977
10.98612	526.771	12.1172
10.9878	528.95	12.1367
10.9899	518.462	12.15625
10.9908	527.229	12.1758
10.993	528.467	12.1953
10.9952	526.366	12.2148
10.996	528.854	12.2344
10.9977	535.5827	12.2539
11.0001	527.005	12.2734
11.0013	532.801	12.293
11.00204	536.625	12.3125
11.0046	535.26	12.332
11.0056	532.6344	12.3516
11.008	541.318	12.3711
11.0096	538.01	12.3906
11.0101	535.482	12.4102
11.0107	540.217	12.4297
11.0142	542.731	12.4492
11.0145	539.695	12.46875
11.017	543.108	12.4883
11.0198	546.295	12.5078
11.0195	541.795	12.5273
11.0223	545.2207	12.5469
11.0249	551.301	12.5664
11.0252	548.162	12.5859
11.0272	544.969	12.6055
11.0279	553.9939	12.625
11.0304	551.78	12.6445
11.0316	550.271	12.6641
11.03257	554.503	12.6836
11.0353	557.16	12.7031
11.0363	550.198	12.7227
11.0388	558.5011	12.7422
11.0393	560.304	12.7617
11.04146	554.473	12.78125
11.0433	559.024	12.8008
11.0443	566.846	12.8203
11.0466	556.672	12.8398
11.0489	562.593	12.8594
11.0496	565.728	12.8789
11.0509	563.924	12.8984
11.0538	564.85	12.918
11.0546	571.419	12.9375
11.0568	563.514	12.957
11.0583	566.861	12.9766
11.0599	571.861	12.9961
11.0607	572.966	13.0156
11.0624	568.066	13.0352
11.0639	574.417	13.0547
11.066	573.682	13.0742
11.0671	573.1637	13.09375
11.0681	574.721	13.1133
11.0698	579.283	13.1328
11.0722	575.156	13.1523
11.0755	577.512	13.1719
11.0761	580.536	13.1914
11.0766	578.3446	13.2109
11.0789	578.726	13.2305
11.0813	586.176	13.25
11.0823	585.387	13.2695
11.0838	580.83	13.2891
11.0861	586.562	13.3086
11.0869	586.956	13.3281
11.0891	585.439	13.3477
11.0901	590.003	13.3672
11.0919	593.257	13.3867
11.0944	584.338	13.40625
11.0949	592.346	13.4258
11.0971	595.94	13.4453
11.0988	590.872	13.4648
11.1001	592.073	13.4844
11.1016	601.325	13.5039
11.1033	592.714	13.5234
11.1055	596.161	13.543
11.1068	599.571	13.5625
11.1083	598.537	13.582
11.1095	597.674	13.6016
11.11213	605.48	13.6211
11.1132	599.396	13.6406
11.1142	600.018	13.6602
11.1168	604.1424	13.6797
11.1179	608.248	13.6992
11.1192	601.46	13.71875
11.12138	607.835	13.7383
11.122	608.098	13.7578
11.1247	607.506	13.7773
11.126	607.8252	13.7969
11.1266	615.509	13.8164
11.1296	609.758	13.8359
11.13151	610.483	13.8555
11.1335	615.3645	13.875
11.1345	614.535	13.8945
11.136	610.228	13.9141
11.138	618.145	13.9336
11.1386	619.539	13.9531
11.1405	614.799	13.9727
11.1428	621.11	13.9922
11.1446	622.097	14.0117
11.1445	617.824	14.03125
11.1469	623.68	14.0508
11.1489	627.912	14.0703
11.15061	618.415	14.0898
11.1517	623.771	14.1094
11.1539	630.316	14.1289
11.1548	625.226	14.1484
11.1575	627.742	14.168
11.1593	635.745	14.1875
11.1597	629.037	14.207
11.1623	631.8515	14.2266
11.1628	635.084	14.2461
11.1651	634.833	14.2656
11.1679	630.5835	14.2852
11.16818	639.762	14.3047
11.1705	637.185	14.3242
11.1708	636.156	14.34375
11.1735	638.39	14.3633
11.1748	642.721	14.3828
11.1767	640.422	14.4023
11.1784	641.855	14.4219
11.1795	643.496	14.4414
11.1821	643.3252	14.4609
11.1839	641.613	14.4805
11.1849	649.59	14.5
11.186	647.122	14.5195
11.1879	644.181	14.5391
11.1901	649.042	14.5586
11.1913	652.2	14.5781
11.1924	645.59	14.5977
11.19535	653.011	14.6172
11.1962	657.739	14.6367
11.197	649.319	14.65625
11.1993	652.886	14.6758
11.20132	657.996	14.6953
11.2028	654.5509	14.7148
11.2054	656.591	14.7344
11.207	666.246	14.7539
11.208	655.428	14.7734
11.2086	657.9	14.793
11.2114	663.811	14.8125
11.21253	662.798	14.832
11.2143	660.119	14.8516
11.2155	667.633	14.8711
11.2177	662.738	14.8906
11.2193	662.493	14.9102
11.2205	665.6308	14.9297
11.2223	670.384	14.9492
11.22277	665.3114	14.96875
11.2255	671.741	14.9883
11.22729	671.657	15.0078
11.2294	669.482	15.0273
11.2307	668.646	15.0469
11.2322	676.711	15.0664
11.2351	674.594	15.0859
11.235	674.499	15.1055
11.2373	678.15	15.125
11.2377	676.297	15.1445
11.2392	672.896	15.1641
11.2416	683.842	15.1836
11.2449	683.012	15.2031
11.2446	677.8598	15.2227
11.2468	681.299	15.2422
11.2474	684.211	15.2617
11.2508	678.323	15.28125
11.251	684.365	15.3008
11.2529	689.506	15.3203
11.2558	683.247	15.3398
11.2564	685.05	15.3594
11.25772	692.348	15.3789
11.2593	686.617	15.3984
11.2622	686.384	15.418
11.2626	695.688	15.4375
11.2647	691.371	15.457
11.2654	689.426	15.4766
11.26809	696.304	15.4961
11.2698	693.585	15.5156
11.271	692.178	15.5352
11.2726	700.5993	15.5547
11.2751	696.774	15.5742
11.2755	695.666	15.59375
11.2769	698.731	15.6133
11.2796	704.224	15.6328
11.2807	699.7027	15.6523
11.2822	702.797	15.6719
11.284	705.195	15.6914
11.28576	705.03	15.7109
11.287	700.754	15.7305
11.2878	709.946	15.75
11.2906	707.972	15.7695
11.29296	707.417	15.7891
11.2948	709.376	15.8086
11.2956	713.359	15.8281
11.2975	705.782	15.8477
11.2992	713.907	15.8672
11.30078	716.741	15.8867
11.30154	710.778	15.90625
11.3031	713.327	15.9258
11.3049	718.995	15.9453
11.3065	712.943	15.9648
11.30852	717.772	15.9844
11.31	725.181	16.0039
11.31193	717.154	16.0234
11.3128	716.903	16.043
11.3147	724.846	16.0625
11.316	722.641	16.082
11.3185	719.728	16.1016
11.3191	727.953	16.1211
11.32177	726.282	16.1406
11.3226	723.648	16.1602
11.324	728.731	16.1797
11.3262	729.45	16.1992
11.3285	725.002	16.21875
11.3288	733.669	16.2383
11.3321	733.828	16.2578
11.333	730.301	16.2773
11.3345	730.903	16.2969
11.3363	738.3728	16.3164
11.3375	732.892	16.3359
11.3392	735.2533	16.3555
11.3409	737.142	16.375
11.3427	736.977	16.3945
11.3445	734.943	16.4141
11.3461	743.39	16.4336
11.347	740.737	16.4531
11.3496	738.945	16.4727
11.351	741.149	16.4922
11.3517	746.607	16.5117
11.3538	738.9306	16.53125
11.3549	745.699	16.5508
11.35697	749.4267	16.5703
11.3587	744.578	16.5898
11.3603	744.891	16.6094
11.3616	751.667	16.6289
11.3642	746.416	16.6484
11.3664	748.331	16.668
11.3666	757.241	16.6875
11.3687	749.884	16.707
11.3707	747.438	16.7266
11.3716	756.796	16.7461
11.3737	754.516	16.7656
11.37497	750.685	16.7852
11.3764	759.37	16.8047
11.3789	759.0567	16.8242
11.3803	754.422	16.84375
11.382	760.801	16.8633
11.3837	762.128	16.8828
11.384	755.888	16.9023
11.3861	763.721	16.9219
11.3881	764.694	16.9414
11.39007	761.176	16.9609
11.391	759.044	16.9805
11.393	768.941	17
11.3947	765.632	17.0195
11.3964	765.185	17.0391
11.3987	769.254	17.0586
11.4005	769.785	17.0781
11.4006	764.1828	17.0977
11.4033	773.398	17.1172
11.40442	776.04	17.1367
11.4064	769.942	17.15625
11.4071	770.553	17.1758
11.4097	778.989	17.1953
11.4121	771.458	17.2148
11.4125	775.039	17.2344
11.4137	781.042	17.2539
11.4155	776.191	17.2734
11.4178	774.03	17.293
11.419	784.107	17.3125
11.4204	778.318	17.332
11.4217	777.189	17.3516
11.42422	786.457	17.3711
11.4257	785.464	17.3906
11.4276	779.053	17.4102
11.4291	785.23	17.4297
11.4309	786.094	17.4492
11.4322	781.689	17.46875
11.4339	789.745	17.4883
11.4348	790.342	17.5078
11.4372	783.515	17.5273
11.43856	788.425	17.5469
11.4403	794.916	17.5664
11.4409	789.119	17.5859
11.44255	791.875	17.6055
11.4455	794.174	17.625
11.4467	795.011	17.6445
11.4487	791.637	17.6641
11.4498	798.928	17.6836
11.4518	797.854	17.7031
11.4535	796.081	17.7227
11.4548	798.319	17.7422
11.4572	802.813	17.7617
11.4583	794.6272	17.78125
11.4612	802.755	17.8008
11.4615	806.754	17.8203
11.46312	802.269	17.8398
11.46433	798.286	17.8594
11.4655	808.12	17.8789
11.4688	801.404	17.8984
11.4697	803.275	17.918
11.4716	809.708	17.9375
11.4732	808.768	17.957
11.4755	801.333	17.9766
11.476	813.82	17.9961
11.478	810.062	18.0156
11.4792	805.76	18.0352
11.4804	814.2218	18.0547
11.4819	814.085	18.0742
11.4838	808.375	18.09375
11.4854	815.768	18.1133
11.4881	816.407	18.1328
11.4887	813.117	18.1523
11.4903	817.191	18.1719
11.4919	821.107	18.1914
11.4946	813.894	18.2109
11.4957	817.193	18.2305
11.4974	822.266	18.25
11.49865	820.551	18.2695
11.4998	819.761	18.2891
11.5024	823.365	18.3086
11.5049	825.596	18.3281
11.5048	819.955	18.3477
11.5084	827.388	18.3672
11.5086	827.318	18.3867
11.5108	823.963	18.40625
11.51272	826.046	18.4258
11.5136	833.374	18.4453
11.5151	824.906	18.4648
11.5167	828.486	18.4844
11.5177	836.079	18.5039
11.519	831.994	18.5234
11.5211	829.089	18.543
11.5231	837.134	18.5625
11.5248	831.855	18.582
11.52668	832.528	18.6016
11.5278	840.851	18.6211
11.5292	839.165	18.6406
11.5324	830.412	18.6602
11.5329	841.174	18.6797
11.5346	841.52	18.6992
11.5364	839.273	18.71875
11.5382	842.874	18.7383
11.5398	846.273	18.7578
11.54093	837.005	18.7773
11.5429	845.112	18.7969
11.5444	847.693	18.8164
11.5454	841.769	18.8359
11.54712	844.858	18.8555
11.5493	850.597	18.875
11.5505	844.909	18.8945
11.553	846.009	18.9141
11.5541	851.229	18.9336
11.5562	850.844	18.9531
11.5576	849.35	18.9727
11.5588	850.844	18.9922
11.5606	853.834	19.0117
11.56217	849.228	19.03125
11.5635	855.613	19.0508
11.565	858.223	19.0703
11.5676	852.674	19.0898
11.5685	852.343	19.1094
11.5712	862.192	19.1289
11.5725	855.4162	19.1484
11.5743	856.952	19.168
11.5753	861.747	19.1875
11.5776	862.32	19.207
11.57854	856.116	19.2266
11.5804	867.157	19.2461
11.5822	862.2287	19.2656
11.5844	860.0567	19.2852
11.58442	866.833	19.3047
11.5861	870.78	19.3242
11.58856	859.403	19.34375
11.5898	867.213	19.3633
11.5918	869.5282	19.3828
11.5927	865.15	19.4023
11.5946	869.899	19.4219
11.59665	874.798	19.4414
11.5983	865.413	19.4609
11.5998	869.536	19.4805
11.601	875.803	19.5
11.6025	871.2984	19.5195
11.6043	871.018	19.5391
11.6061	876.041	19.5586
11.6068	874.471	19.5781
11.6097	872.237	19.5977
11.6113	876.869	19.6172
11.6138	878.436	19.6367
11.61471	877.5188	19.65625
11.6163	879.695	19.6758
11.6178	882.277	19.6953
11.61899	876.782	19.7148
11.62053	880.934	19.7344
11.6225	885.28	19.7539
11.624	883.865	19.7734
11.62655	879.267	19.793
11.6266	888.683	19.8125
11.6287	881.69	19.832
11.6298	882.969	19.8516
11.6324	889.368	19.8711
11.6339	888.404	19.8906
11.6357	881.495	19.9102
11.6371	893.077	19.9297
11.6383	890.364	19.9492
11.6411	886.147	19.96875
11.6422	891.186	19.9883
11.6434	897.967	20.0078
11.6452	890.804	20.0176

Data Header:			0.254_solid_uprint_typei_090_r0			Time:	38.8447	s	4/15/2019 2:51:42 PM
Data Acquisition:	Timed
Station Name:	ft40.cfg
Test File Name:	monotonic_0.2540_typei_solid_090_uprint.tst
Displacement	Force	Running Time
mm	N	s
11.6456	887.459	20.0273
11.6471	893.257	20.0469
11.6488	895.409	20.0664
11.6498	892.941	20.0859
11.6524	893.911	20.1055
11.6531	900.808	20.125
11.6553	892.197	20.1445
11.6561	895.1366	20.1641
11.6587	899.967	20.1836
11.6607	900.2688	20.2031
11.66146	897.585	20.2227
11.66328	901.06	20.2422
11.665	901.24	20.2617
11.6669	898.432	20.28125
11.6681	900.992	20.3008
11.6709	905.697	20.3203
11.67219	902.15	20.3398
11.6728	903.698	20.3594
11.6741	908.011	20.3789
11.676	903.0296	20.3984
11.6777	903.394	20.418
11.6794	908.756	20.4375
11.681	908.9295	20.457
11.6817	903.215	20.4766
11.6841	910.764	20.4961
11.6861	909.163	20.5156
11.6879	906.401	20.5352
11.6888	912.502	20.5547
11.6911	915.369	20.5742
11.6931	906.737	20.59375
11.6937	915.049	20.6133
11.6956	915.982	20.6328
11.6964	912.214	20.6523
11.6988	913.63	20.6719
11.7007	920.441	20.6914
11.703	911.578	20.7109
11.7037	917.174	20.7305
11.7058	919.325	20.75
11.7061	916.809	20.7695
11.70907	916.939	20.7891
11.7104	924.994	20.8086
11.7109	918.764	20.8281
11.7128	917.255	20.8477
11.7147	920.663	20.8672
11.71676	923.803	20.8867
11.7201	920.224	20.90625
11.7199	922.376	20.9258
11.7225	923.47	20.9453
11.72367	921.702	20.9648
11.725	924.38	20.9844
11.72652	928.847	21.0039
11.72831	925.1322	21.0234
11.7297	924.278	21.043
11.7309	930.247	21.0625
11.7332	926.78	21.082
11.7348	925.7514	21.1016
11.7367	931.197	21.1211
11.7377	932.8042	21.1406
11.7395	926.204	21.1602
11.7417	932.72	21.1797
11.7433	934.044	21.1992
11.74544	928.8269	21.21875
11.7459	933.705	21.2383
11.7475	939.406	21.2578
11.7493	929.406	21.2773
11.7512	934.849	21.2969
11.7531	937.713	21.3164
11.7546	934.179	21.3359
11.7559	934.986	21.3555
11.7581	943.3385	21.375
11.7595	934.555	21.3945
11.761	936.372	21.4141
11.7623	941.065	21.4336
11.7648	941.131	21.4531
11.7654	937.213	21.4727
11.7674	945.111	21.4922
11.768	942.234	21.5117
11.7706	938.911	21.53125
11.7721	941.023	21.5508
11.7741	945.844	21.5703
11.7748	941.116	21.5898
11.7772	945.123	21.6094
11.7806	946.183	21.6289
11.7797	943.557	21.6484
11.7824	943.258	21.668
11.7835	950.52	21.6875
11.7847	949.268	21.707
11.7873	943.766	21.7266
11.7881	949.328	21.7461
11.7903	949.81	21.7656
11.7916	946.507	21.7852
11.7925	950.837	21.8047
11.7946	954.552	21.8242
11.7973	946.064	21.84375
11.7989	953.0108	21.8633
11.7997	955.498	21.8828
11.8016	948.505	21.9023
11.8029	952.067	21.9219
11.8061	961.02	21.9414
11.8059	951.5907	21.9609
11.8078	953.166	21.9805
11.80889	957.709	22
11.8113	956.067	22.0195
11.814	953.957	22.0391
11.8148	962.354	22.0586
11.8171	954.716	22.0781
11.818	954.523	22.0977
11.8192	958.507	22.1172
11.8204	962.997	22.1367
11.8225	957.8	22.15625
11.8238	962.786	22.1758
11.8258	962.172	22.1953
11.82822	960.482	22.2148
11.8287	959.061	22.2344
11.8315	965.48	22.2539
11.8329	962.216	22.2734
11.83336	963.29	22.293
11.836	965.813	22.3125
11.8376	964.706	22.332
11.8392	959.3479	22.3516
11.841	967.172	22.3711
11.8418	968.528	22.3906
11.8449	962.607	22.4102
11.8458	965.22	22.4297
11.8477	968.553	22.4492
11.8487	963.038	22.46875
11.85143	967.986	22.4883
11.8519	973.1554	22.5078
11.8529	964.107	22.5273
11.856	967.726	22.5469
11.8565	973.699	22.5664
11.8575	969.25	22.5859
11.8613	967.668	22.6055
11.8617	975.349	22.625
11.8631	969.344	22.6445
11.8644	968.846	22.6641
11.8671	973.133	22.6836
11.8676	972.349	22.7031
11.86959	968.831	22.7227
11.872	977.951	22.7422
11.8739	972.987	22.7617
11.875	970.113	22.78125
11.8771	973.011	22.8008
11.87905	978.748	22.8203
11.8803	975.124	22.8398
11.8814	976.617	22.8594
11.8833	976.969	22.8789
11.8838	977.582	22.8984
11.8855	972.279	22.918
11.8869	981.6485	22.9375
11.889	977.354	22.957
11.8915	974.866	22.9766
11.8918	977.362	22.9961
11.8945	980.387	23.0156
11.8953	974.0119	23.0352
11.89844	980.751	23.0547
11.8986	982.742	23.0742
11.9009	976.67	23.09375
11.9021	979.825	23.1133
11.90511	982.604	23.1328
11.9059	977.272	23.1523
11.908	980.43	23.1719
11.9094	987.3797	23.1914
11.9103	981.054	23.2109
11.9127	977.437	23.2305
11.9144	986.407	23.25
11.9159	983.429	23.2695
11.9174	979.41	23.2891
11.9192	987.138	23.3086
11.9209	982.914	23.3281
11.9223	981.822	23.3477
11.9234	986.171	23.3672
11.9244	986.791	23.3867
11.9268	980.858	23.40625
11.9285	988.032	23.4258
11.9308	985.802	23.4453
11.9319	985.2597	23.4648
11.9342	984.354	23.4844
11.9356	989.478	23.5039
11.9357	985.017	23.5234
11.9381	987.161	23.543
11.941	987.822	23.5625
11.9413	988.403	23.582
11.9428	983.937	23.6016
11.945	992.213	23.6211
11.947	990.432	23.6406
11.9477	985.609	23.6602
11.9495	987.88	23.6797
11.9514	992.752	23.6992
11.9531	985.507	23.71875
11.9538	989.596	23.7383
11.9554	991.392	23.7578
11.9568	985.952	23.7773
11.9592	986.776	23.7969
11.9604	993.22	23.8164
11.9622	984.686	23.8359
11.965	986.522	23.8555
11.9658	995.476	23.875
11.9669	989.606	23.8945
11.9687	987.037	23.9141
11.97072	992.7157	23.9336
11.9739	992.167	23.9531
11.9743	986.3291	23.9727
11.9762	994.465	23.9922
11.97725	991.796	24.0117
11.9801	986.295	24.03125
11.98	992.916	24.0508
11.9815	997.569	24.0703
11.9841	987.829	24.0898
11.986	991.762	24.1094
11.9878	993.825	24.1289
11.9883	991.952	24.1484
11.9909	988.777	24.168
11.9915	995.235	24.1875
11.9934	991.103	24.207
11.9954	991.172	24.2266
11.9966	992.524	24.2461
11.999	994.767	24.2656
12.0008	987.28	24.2852
12.0009	994.203	24.3047
12.0035	996.781	24.3242
12.0051	991.473	24.34375
12.0062	990.361	24.3633
12.0089	998.222	24.3828
12.0104	989.489	24.4023
12.0115	994.108	24.4219
12.0129	999.3587	24.4414
12.01563	991.581	24.4609
12.0168	988.094	24.4805
12.0184	998.5816	24.5
12.0183	992.2406	24.5195
12.0219	989.337	24.5391
12.02215	997.933	24.5586
12.0246	996.28	24.5781
12.0265	988.001	24.5977
12.028	996.866	24.6172
12.02924	993.788	24.6367
12.0317	987.937	24.65625
12.0334	996.431	24.6758
12.035	995.941	24.6953
12.0354	990.117	24.7148
12.0375	991.033	24.7344
12.04	997.6275	24.7539
12.042	991.874	24.7734
12.0428	994.2254	24.793
12.0438	995.382	24.8125
12.04555	992.994	24.832
12.0467	989.4552	24.8516
12.0497	997.468	24.8711
12.0508	993.255	24.8906
12.0516	991.776	24.9102
12.0536	993.701	24.9297
12.0552	997.333	24.9492
12.0565	988.041	24.96875
12.0596	994.389	24.9883
12.0598	996.312	25.0078
12.0609	993.045	25.0273
12.0633	991.809	25.0469
12.0645	999.817	25.0664
12.067	990.007	25.0859
12.0681	990.677	25.1055
12.0705	997.7276	25.125
12.0722	993.192	25.1445
12.0739	987.826	25.1641
12.0748	997.695	25.1836
12.0766	994.1012	25.2031
12.0785	990.744	25.2227
12.0801	996.1936	25.2422
12.0819	995.843	25.2617
12.0835	987.723	25.28125
12.0848	994.676	25.3008
12.0868	995.703	25.3203
12.0882	988.733	25.3398
12.0902	994.1001	25.3594
12.0916	997.54	25.3789
12.0927	990.054	25.3984
12.0945	990.2627	25.418
12.0962	995.2572	25.4375
12.0969	991.231	25.457
12.0995	991.606	25.4766
12.102	993.604	25.4961
12.1028	992.683	25.5156
12.1043	987.864	25.5352
12.1072	995.616	25.5547
12.1075	993.769	25.5742
12.1093	989	25.59375
12.1103	988.917	25.6133
12.1117	997.095	25.6328
12.1135	988.341	25.6523
12.1158	991.693	25.6719
12.117	994.3833	25.6914
12.1194	992.005	25.7109
12.121	986.515	25.7305
12.1218	996.853	25.75
12.1239	989.4574	25.7695
12.1251	988.273	25.7891
12.12626	996.253	25.8086
12.1293	993.164	25.8281
12.1306	985.412	25.8477
12.1324	992.255	25.8672
12.1337	992.249	25.8867
12.1349	987.976	25.90625
12.1366	991.527	25.9258
12.1386	993.064	25.9453
12.1406	983.8584	25.9648
12.1423	988.9649	25.9844
12.14367	992.294	26.0039
12.14625	986.368	26.0234
12.1475	987.2998	26.043
12.1484	992.757	26.0625
12.1506	987.512	26.082
12.1513	985.8645	26.1016
12.1526	990.138	26.1211
12.15482	986.651	26.1406
12.1552	987.509	26.1602
12.1591	990.611	26.1797
12.1595	991.678	26.1992
12.1615	984.265	26.21875
12.1643	987.6709	26.2383
12.16449	991.239	26.2578
12.166	987.543	26.2773
12.1676	984.513	26.2969
12.1686	993.088	26.3164
12.1715	984.078	26.3359
12.1729	985.7019	26.3555
12.1745	991.197	26.375
12.1757	988.336	26.3945
12.1772	979.645	26.4141
12.17872	991.466	26.4336
12.1813	986.925	26.4531
12.1817	982.338	26.4727
12.1838	987.74	26.4922
12.1863	990.754	26.5117
12.18791	981.649	26.53125
12.1881	987.994	26.5508
12.1906	986.45	26.5703
12.1933	980.953	26.5898
12.1936	985.931	26.6094
12.1954	990.306	26.6289
12.1972	980.823	26.6484
12.1987	982.406	26.668
12.2003	988.192	26.6875
12.2017	984.184	26.707
12.20365	983.423	26.7266
12.2047	986.72	26.7461
12.2068	983.114	26.7656
12.2092	979.776	26.7852
12.21	984.861	26.8047
12.2116	985.248	26.8242
12.2128	982.946	26.84375
12.2152	984.058	26.8633
12.2163	985.934	26.8828
12.2188	978.723	26.9023
12.2204	980.166	26.9219
12.2213	986.086	26.9414
12.2231	982.993	26.9609
12.2246	979.685	26.9805
12.2265	986.574	27
12.2277	980.128	27.0195
12.2305	980.119	27.0391
12.231	985.314	27.0586
12.2331	985.294	27.0781
12.2342	975.403	27.0977
12.2359	986.3288	27.1172
12.2382	982.669	27.1367
12.2399	979.134	27.15625
12.2416	982.981	27.1758
12.2422	986.552	27.1953
12.244	975.825	27.2148
12.24477	981.809	27.2344
12.2476	983.344	27.2539
12.2481	977.914	27.2734
12.2513	978.879	27.293
12.2515	984.959	27.3125
12.2534	977.865	27.332
12.256	977.698	27.3516
12.2575	980.038	27.3711
12.2585	980.376	27.3906
12.2614	978.585	27.4102
12.2629	981.002	27.4297
12.2629	978.859	27.4492
12.2658	976.048	27.46875
12.2671	978.718	27.4883
12.2691	981.003	27.5078
12.2703	976.463	27.5273
12.2717	976.5238	27.5469
12.27399	983.4	27.5664
12.2751	977.442	27.5859
12.2765	976.592	27.6055
12.2793	981.335	27.625
12.2791	979.53	27.6445
12.2815	973.2	27.6641
12.2832	981.939	27.6836
12.2846	979.0589	27.7031
12.2874	974.709	27.7227
12.2874	979.147	27.7422
12.29	983.5545	27.7617
12.2913	972.111	27.78125
12.29355	978.911	27.8008
12.2951	981.352	27.8203
12.29632	975.667	27.8398
12.2981	976.685	27.8594
12.3001	981.5755	27.8789
12.3019	971.6651	27.8984
12.3022	976.354	27.918
12.3049	978.7536	27.9375
12.3056	974.497	27.957
12.3085	974.115	27.9766
12.30888	980.406	27.9961
12.3118	975.5697	28.0156
12.3126	975.387	28.0352
12.31381	976.977	28.0547
12.316	977.453	28.0742
12.3176	972.162	28.09375
12.3194	977.1394	28.1133
12.3205	976.098	28.1328
12.3221	972.634	28.1523
12.3228	973.044	28.1719
12.3263	978.8797	28.1914
12.3269	975.125	28.2109
12.329	972.334	28.2305
12.3315	976.526	28.25
12.3327	974.026	28.2695
12.3339	970.334	28.2891
12.335	976.139	28.3086
12.3376	975.522	28.3281
12.3391	968.192	28.3477
12.3402	976.2019	28.3672
12.341	975.98	28.3867
12.3444	969.172	28.40625
12.3454	972.525	28.4258
12.3465	978.115	28.4453
12.3482	968.664	28.4648
12.3502	972.624	28.4844
12.3512	974.113	28.5039
12.3526	970.378	28.5234
12.3558	970.988	28.543
12.3562	978.563	28.5625
12.3587	968.44	28.582
12.3598	970.572	28.6016
12.3619	975.106	28.6211
12.3633	974.2417	28.6406
12.3647	969.939	28.6602
12.3666	975.058	28.6797
12.36762	970.896	28.6992
12.3687	969.208	28.71875
12.3707	970.676	28.7383
12.3727	974.056	28.7578
12.37463	967.783	28.7773
12.3762	970.9538	28.7969
12.3777	974.29	28.8164
12.3786	969.693	28.8359
12.3816	966.808	28.8555
12.3823	973.015	28.875
12.3845	972.007	28.8945
12.3854	966.499	28.9141
12.3872	971.361	28.9336
12.3898	970.466	28.9531
12.3892	965.5387	28.9727
12.3929	971.318	28.9922
12.3935	974.134	29.0117
12.396	965.357	29.03125
12.3964	969.004	29.0508
12.3992	972.923	29.0703
12.4005	966.741	29.0898
12.4019	967.4389	29.1094
12.4047	973.632	29.1289
12.40595	965.5473	29.1484
12.4075	967.796	29.168
12.409	970.464	29.1875
12.4106	967.706	29.207
12.4114	965.158	29.2266
12.4139	973.6908	29.2461
12.4146	968.738	29.2656
12.4165	967.106	29.2852
12.41777	968.526	29.3047
12.4199	970.419	29.3242
12.4215	965.427	29.34375
12.4227	970.179	29.3633
12.4251	968.512	29.3828
12.4258	965.888	29.4023
12.4285	965.658	29.4219
12.4283	971.218	29.4414
12.4313	966.976	29.4609
12.4333	966.433	29.4805
12.4343	969.093	29.5
12.4354	968.043	29.5195
12.4384	962.586	29.5391
12.4392	967.903	29.5586
12.4413	968.122	29.5781
12.44214	962.136	29.5977
12.44468	968.354	29.6172
12.446	969.527	29.6367
12.4475	961.557	29.65625
12.4498	966.614	29.6758
12.45102	972.642	29.6953
12.4535	962.705	29.7148
12.454	963.25	29.7344
12.4553	970.157	29.7539
12.4567	964.311	29.7734
12.4592	962.911	29.793
12.4612	971.548	29.8125
12.4617	963.716	29.832
12.4639	964.272	29.8516
12.4663	969.173	29.8711
12.4666	967.902	29.8906
12.4688	961.111	29.9102
12.4708	969.846	29.9297
12.473	966.967	29.9492
12.4746	964.847	29.96875
12.476	964.171	29.9883
12.4771	969.71	30.0078
12.4781	962.775	30.0273
12.4798	967.88	30.0469
12.4822	966.932	30.0664
12.4841	963.1991	30.0859
12.4849	961.851	30.1055
12.4874	969.923	30.125
12.4883	964.699	30.1445
12.4895	962.123	30.1641
12.4918	966.625	30.1836
12.4931	968.988	30.2031
12.4941	960.329	30.2227
12.4959	966.173	30.2422
12.4983	966.928	30.2617
12.4997	961.825	30.28125
12.5013	962.413	30.3008
12.503	969.155	30.3203
12.5039	960.839	30.3398
12.5057	963.514	30.3594
12.50772	969.901	30.3789
12.5088	962.636	30.3984
12.5119	959.821	30.418
12.5121	966.753	30.4375
12.5152	963.966	30.457
12.5154	960.959	30.4766
12.5176	970.9046	30.4961
12.5194	963.954	30.5156
12.52097	959.852	30.5352
12.5224	963.653	30.5547
12.52408	967.748	30.5742
12.5249	960.078	30.59375
12.5282	967.848	30.6133
12.5286	964.569	30.6328
12.5302	962.691	30.6523
12.5314	961.709	30.6719
12.5335	968.644	30.6914
12.536	962.185	30.7109
12.5374	963.033	30.7305
12.5386	964.578	30.75
12.5406	964.176	30.7695
12.5418	958.783	30.7891
12.5442	965.26	30.8086
12.5454	966	30.8281
12.547	962.623	30.8477
12.5489	962.819	30.8672
12.55168	966.842	30.8867
12.5527	958.514	30.90625
12.55399	963.889	30.9258
12.5552	968.061	30.9453
12.5579	961.309	30.9648
12.559	960.38	30.9844
12.5602	967.461	31.0039
12.5619	961.128	31.0234
12.564	959.571	31.043
12.56464	967.382	31.0625
12.5666	962.663	31.082
12.56806	958.12	31.1016
12.5699	966.289	31.1211
12.5711	961.463	31.1406
12.57346	956.698	31.1602
12.5744	967.112	31.1797
12.576	963.205	31.1992
12.57816	959.033	31.21875
12.5794	960.435	31.2383
12.5816	967.185	31.2578
12.5829	959.186	31.2773
12.584	961.856	31.2969
12.5857	965.387	31.3164
12.5883	960.132	31.3359
12.5895	957.482	31.3555
12.59157	965.965	31.375
12.5927	961.037	31.3945
12.5941	960.303	31.4141
12.5966	962.8078	31.4336
12.5972	964.396	31.4531
12.5993	955.795	31.4727
12.6011	962.204	31.4922
12.6031	963.506	31.5117
12.6042	959.118	31.53125
12.6051	958.818	31.5508
12.6071	964.887	31.5703
12.6089	956.203	31.5898
12.6105	961.598	31.6094
12.6121	965.825	31.6289
12.6129	958.075	31.6484
12.6143	956.381	31.668
12.61736	965.625	31.6875
12.6177	959.177	31.707
12.6189	956.777	31.7266
12.621	963.696	31.7461
12.6236	960.087	31.7656
12.6251	954.688	31.7852
12.6268	961.658	31.8047
12.628	962.5213	31.8242
12.6303	954.306	31.84375
12.6316	961.6626	31.8633
12.634	962.771	31.8828
12.6347	956.791	31.9023
12.6367	957.676	31.9219
12.639	962.602	31.9414
12.63918	957.971	31.9609
12.6422	960.667	31.9805
12.64236	961.809	32
12.64492	959.238	32.0195
12.6464	955.7157	32.0391
12.6476	964.462	32.0586
12.6494	961.524	32.0781
12.651	957.84	32.0977
12.652	958.894	32.1172
12.655	962.507	32.1367
12.65613	955.5163	32.15625
12.6571	959.647	32.1758
12.6598	964.0083	32.1953
12.6611	957.751	32.2148
12.6617	956.063	32.2344
12.6633	964.924	32.2539
12.6655	954.818	32.2734
12.6673	956.26	32.293
12.6685	963.551	32.3125
12.6699	961.351	32.332
12.6718	953.418	32.3516
12.6743	963.073	32.3711
12.6756	958.716	32.3906
12.6767	954.084	32.4102
12.6784	962.874	32.4297
12.681	960.565	32.4492
12.6824	951.476	32.46875
12.6835	959.703	32.4883
12.68584	962.024	32.5078
12.6865	954.868	32.5273
12.6876	958.174	32.5469
12.69058	962.129	32.5664
12.6917	956.079	32.5859
12.6934	956.509	32.6055
12.6943	963.208	32.625
12.697	955.141	32.6445
12.6981	956.7229	32.6641
12.6997	961.331	32.6836
12.7016	959.425	32.7031
12.7036	952.646	32.7227
12.7053	960.237	32.7422
12.70723	961.825	32.7617
12.7087	957.334	32.78125
12.71	956.897	32.8008
12.712	962.295	32.8203
12.7137	954.288	32.8398
12.7133	957.341	32.8594
12.7166	962.476	32.8789
12.7177	957.673	32.8984
12.7203	952.519	32.918
12.7215	963.644	32.9375
12.7222	956.135	32.957
12.7243	955.786	32.9766
12.7258	961.197	32.9961
12.7288	960.202	33.0156
12.7292	952.355	33.0352
12.7305	961.192	33.0547
12.732	957.938	33.0742
12.7343	954.313	33.09375
12.736	959.419	33.1133
12.7364	959.804	33.1328
12.739	951.628	33.1523
12.7408	956.96	33.1719
12.74321	961.577	33.1914
12.7441	956.318	33.2109
12.7454	956.779	33.2305
12.747	960.2663	33.25
12.7493	955.239	33.2695
12.7507	954.035	33.2891
12.7522	960.105	33.3086
12.7534	955.747	33.3281
12.756	953.893	33.3477
12.7572	957.062	33.3672
12.758	960.649	33.3867
12.76036	952.577	33.40625
12.763	958.39	33.4258
12.7635	960.636	33.4453
12.7653	956.494	33.4648
12.7667	954.34	33.4844
12.7685	961.28	33.5039
12.7701	952.586	33.5234
12.7716	957.35	33.543
12.7733	962.028	33.5625
12.7741	958.1192	33.582
12.7774	950.326	33.6016
12.77809	961.337	33.6211
12.7796	957.536	33.6406
12.7812	955.161	33.6602
12.7819	958.105	33.6797
12.7854	962.207	33.6992
12.78634	950.262	33.71875
12.7869	958.504	33.7383
12.7892	957.894	33.7578
12.7911	953.523	33.7773
12.7931	956.325	33.7969
12.7942	961.143	33.8164
12.79686	952.7251	33.8359
12.7975	953.169	33.8555
12.7997	958.618	33.875
12.8008	954.836	33.8945
12.80224	953.819	33.9141
12.804	959.411	33.9336
12.8063	955.293	33.9531
12.8076	952.272	33.9727
12.809	957.989	33.9922
12.8109	957.303	34.0117
12.8124	952.367	34.03125
12.8135	953.3598	34.0508
12.8158	959.323	34.0703
12.8169	952.715	34.0898
12.8186	955.4198	34.1094
12.8206	958.481	34.1289
12.8218	955.195	34.1484
12.8229	951.715	34.168
12.8258	960.527	34.1875
12.82619	953.73	34.207
12.82876	951.188	34.2266
12.8301	958.431	34.2461
12.8321	957.796	34.2656
12.8331	948.701	34.2852
12.83449	957.8	34.3047
12.8372	955.288	34.3242
12.8378	952.5213	34.34375
12.8391	955.3	34.3633
12.8413	959.537	34.3828
12.8435	948.329	34.4023
12.8449	955.253	34.4219
12.8458	958.126	34.4414
12.84827	951.688	34.4609
12.8504	951.857	34.4805
12.852	958.868	34.5
12.85264	952.884	34.5195
12.8544	953.097	34.5391
12.8555	955.735	34.5586
12.8579	953.317	34.5781
12.8584	950.412	34.5977
12.8611	956.323	34.6172
12.8632	955.832	34.6367
12.8642	948.882	34.65625
12.8665	954.8385	34.6758
12.868	957.497	34.6953
12.8697	953.641	34.7148
12.8707	951.293	34.7344
12.8723	956.688	34.7539
12.8733	951.762	34.7734
12.8763	951.272	34.793
12.8764	957.528	34.8125
12.87949	955.437	34.832
12.8817	949.354	34.8516
12.8824	956.98	34.8711
12.8835	953.419	34.8906
12.8856	950	34.9102
12.8873	953.705	34.9297
12.8888	958.599	34.9492
12.8894	948.3028	34.96875
12.8916	954.6441	34.9883
12.894	954.3219	35.0078
12.8947	950.748	35.0273
12.8967	953.302	35.0469
12.89737	957.881	35.0664
12.90018	947.672	35.0859
12.901	952.838	35.1055
12.9043	957.32	35.125
12.9051	953.391	35.1445
12.9059	949.9834	35.1641
12.9088	958.265	35.1836
12.9098	951.905	35.2031
12.9122	951.827	35.2227
12.91281	952.894	35.2422
12.915	955.726	35.2617
12.9166	949.6012	35.28125
12.9193	954.138	35.3008
12.9205	955.573	35.3203
12.9219	950.116	35.3398
12.9227	949.985	35.3594
12.9248	955.44	35.3789
12.9254	952.095	35.3984
12.9284	949.43	35.418
12.9292	954.3501	35.4375
12.9315	951.376	35.457
12.9327	949.089	35.4766
12.9343	954.083	35.4961
12.9367	956.485	35.5156
12.9375	945.23	35.5352
12.93861	954.383	35.5547
12.9414	954.22	35.5742
12.9432	948.029	35.59375
12.9441	949.6557	35.6133
12.9451	956.247	35.6328
12.9481	945.485	35.6523
12.94931	951.146	35.6719
12.95027	951.967	35.6914
12.952	948.432	35.7109
12.9546	947.031	35.7305
12.9556	956.349	35.75
12.9578	947.793	35.7695
12.9593	946.986	35.7891
12.9602	951.407	35.8086
12.9618	950.338	35.8281
12.9639	946.874	35.8477
12.9654	952.087	35.8672
12.9676	948.301	35.8867
12.9689	946.56	35.90625
12.96987	948.083	35.9258
12.97224	951.991	35.9453
12.97413	944.623	35.9648
12.9745	946.6814	35.9844
12.9769	949.017	36.0039
12.9793	945.776	36.0234
12.9796	942.095	36.043
12.9888	-56.9493	36.0625
12.9891	-40.2675	36.082
12.9879	-53.2599	36.1016
12.9888	-39.6564	36.1211
12.9884	-44.35553	36.1406
12.9902	-46.5651	36.1602
12.9928	-39.3562	36.1797
12.99446	-36.074	36.1992
12.99542	-46.2745	36.21875
12.9974	-40.8291	36.2383
12.99885	-39.31588	36.2578
13	-43.0724	36.2773
13.00094	-42.1109	36.2969
13.0041	-35.0614	36.3164
13.0044	-44.2821	36.3359
13.0065	-42.24947	36.3555
13.0079	-37.2424	36.375
13.0094	-41.7521	36.3945
13.0118	-45.1064	36.4141
13.0134	-35.648	36.4336
13.0145	-41.4351	36.4531
13.0161	-42.5959	36.4727
13.0175	-41.4841	36.4922
13.0195	-38.7328	36.5117
13.0212	-44.202	36.53125
13.0229	-36.5084	36.5508
13.0246	-40.5608	36.5703
13.0256	-43.2847	36.5898
13.0283	-43.3104	36.6094
13.0286	-35.7618	36.6289
13.0319	-40.7127	36.6484
13.0318	-43.101	36.668
13.0354	-39.1025	36.6875
13.0359	-38.9243	36.707
13.0371	-45.2906	36.7266
13.0386	-38.7488	36.7461
13.0401	-39.6681	36.7656
13.0425	-44.5539	36.7852
13.0436	-39.6854	36.8047
13.0462	-35.6636	36.8242
13.047	-45.7589	36.84375
13.0499	-40.6174	36.8633
13.05	-34.7739	36.8828
13.0517	-44.48436	36.9023
13.0529	-41.264	36.9219
13.056	-38.41201	36.9414
13.0577	-43.0329	36.9609
13.0579	-43.4622	36.9805
13.0606	-34.6057	37
13.0617	-44.5437	37.0195
13.06429	-42.5867	37.0391
13.065	-38.0297	37.0586
13.067	-39.2156	37.0781
13.06701	-45.373	37.0977
13.0706	-37.0518	37.1172
13.0729	-39.7875	37.1367
13.0719	-42.869	37.15625
13.0745	-42.7326	37.1758
13.0751	-35.956	37.1953
13.0778	-42.95158	37.2148
13.0805	-38.4655	37.2344
13.0817	-38.18396	37.2539
13.0831	-41.491	37.2734
13.08402	-45.7421	37.293
13.086	-36.4908	37.3125
13.0879	-40.735	37.332
13.08892	-43.8926	37.3516
13.0906	-40.5909	37.3711
13.0925	-38.6489	37.3906
13.0946	-44.2438	37.4102
13.0961	-39.6635	37.4297
13.0979	-37.8372	37.4492
13.0991	-45.2681	37.46875
13.1007	-43.0356	37.4883
13.1019	-37.0313	37.5078
13.1038	-44.1237	37.5273
13.1058	-43.4914	37.5469
13.1074	-37.2309	37.5664
13.1089	-43.9106	37.5859
13.1107	-44.1242	37.6055
13.1111	-38.1914	37.625
13.113	-41.67239	37.6445
13.1159	-45.0514	37.6641
13.1163	-34.8873	37.6836
13.1187	-42.3603	37.7031
13.12001	-44.0373	37.7227
13.121	-40.0919	37.7422
13.1235	-37.4227	37.7617
13.1249	-45.1576	37.78125
13.1266	-39.9265	37.8008
13.1285	-40.12159	37.8203
13.1303	-41.9743	37.8398
13.1317	-42.6522	37.8594
13.1331	-34.7911	37.8789
13.1342	-43.9432	37.8984
13.1361	-40.9251	37.918
13.138	-39.0801	37.9375
13.13946	-40.1176	37.957
13.142	-45.7635	37.9766
13.1428	-37.915	37.9961
13.144	-38.5387	38.0156
13.1465	-42.507	38.0352
13.1481	-41.6244	38.0547
13.14959	-36.5312	38.0742
13.1519	-46.4535	38.09375
13.1523	-40.238	38.1133
13.1547	-34.6444	38.1328
13.1563	-43.7245	38.1523
13.1583	-43.892	38.1719
13.1597	-36.2245	38.1914
13.1608	-42.7386	38.2109
13.1618	-44.39	38.2305
13.164	-36.5099	38.25
13.1659	-41.6093	38.2695
13.1673	-44.1812	38.2891
13.1686	-38.0552	38.3086
13.1702	-40.4711	38.3281
13.1727	-46.0015	38.3477
13.174	-37.9017	38.3672
13.17479	-38.7053	38.3867
13.1772	-45.79982	38.40625
13.17759	-42.43203	38.4258
13.1801	-37.849	38.4453
13.182	-43.30077	38.4648
13.184	-39.9147	38.4844
13.1851	-39.3699	38.5039
13.1876	-43.0246	38.5234
13.1889	-45.6309	38.543
13.1902	-36.4696	38.5625
13.19194	-40.8731	38.582
13.1939	-43.0503	38.6016
13.19572	-41.2633	38.6211
13.19642	-37.78138	38.6406
13.19984	-45.6517	38.6602
13.1996	-38.9172	38.6797
13.2024	-38.3589	38.6992
13.2039	-42.6893	38.71875
13.2036	-42.8266	38.7383
13.2062	-34.8386	38.7578
13.2081	-45.4411	38.7773
13.2089	-42.1784	38.7969
13.2113	-35.426	38.8164
13.2126	-42.4296	38.8359