File: data/processed_data_files/tensile/0.254_hd_uprint_typeiv_090_r(1).dat
MTS793|BTW|ENU|1|2|.|/|:|1|0|0|A

Data Header:			0.254_hd_uprint_typeiv_090_r0			Time:	20.01709	s	4/13/2019 10:55:52 PM
Data Acquisition:	Timed
Station Name:	ft40.cfg
Test File Name:	monotonic_0.2540_typeiv_solid_4545_uprint.tst
Displacement	Force	Running Time
mm	N	s
-40.04253	-129.017	0.0219727
-40.04314	-110.044	0.0415039
-40.0431	-128.306	0.0610352
-40.0406	-132.532	0.0805664
-40.0391	-109.837	0.100098
-40.0377	-126.478	0.119629
-40.0364	-130.8051	0.13916
-40.0358	-112.374	0.158691
-40.0342	-114.217	0.178223
-40.032	-131.391	0.197754
-40.0299	-109.795	0.217285
-40.0286	-109.077	0.236816
-40.0263	-127.154	0.256348
-40.0257	-115.5834	0.275879
-40.024	-101.575	0.29541
-40.0218	-118.741	0.314941
-40.0199	-118.11	0.334473
-40.0188	-98.6686	0.354004
-40.0165	-113.52	0.373535
-40.0166	-117.169	0.393066
-40.0138	-94.7725	0.412598
-40.0126	-105.31	0.432129
-40.0111	-120.234	0.45166
-40.0092	-94.235	0.471191
-40.0069	-99.0054	0.490723
-40.006	-115.124	0.510254
-40.0047	-97.9999	0.529785
-40.0021	-89.0835	0.549316
-40.0006	-113.907	0.568848
-39.9998	-99.5019	0.588379
-39.9973	-87.7354	0.60791
-39.9947	-105.146	0.627441
-39.9939	-100.006	0.646973
-39.9925	-80.5193	0.666504
-39.9914	-102.829	0.686035
-39.98922	-101.068	0.705566
-39.98793	-80.3656	0.725098
-39.9863	-89.1449	0.744629
-39.984	-102.68	0.76416
-39.9824	-80.9614	0.783691
-39.9808	-86.694	0.803223
-39.9794	-99.3107	0.822754
-39.9789	-83.7095	0.842285
-39.9778	-76.8921	0.861816
-39.97517	-95.8058	0.881348
-39.9737	-84.0512	0.900879
-39.9713	-73.4329	0.92041
-39.97028	-91.9663	0.939941
-39.9693	-87.96875	0.959473
-39.9671	-67.494	0.979004
-39.9655	-81.2548	0.998535
-39.9642	-90.0645	1.01807
-39.9625	-66.8566	1.0376
-39.961	-76.4225	1.05713
-39.9585	-87.2286	1.07666
-39.9572	-65.7968	1.09619
-39.9555	-67.2064	1.11572
-39.9538	-88.0392	1.13525
-39.9523	-67.2338	1.15479
-39.9506	-60.6242	1.17432
-39.9478	-80.9588	1.19385
-39.9478	-70.40358	1.21338
-39.9462	-53.8521	1.23291
-39.9439	-77.4102	1.25244
-39.9431	-70.3918	1.27197
-39.9408	-52.5975	1.2915
-39.9389	-67.83136	1.31104
-39.9375	-71.5851	1.33057
-39.9345	-50.179	1.3501
-39.9348	-65.6461	1.36963
-39.9332	-71.4106	1.38916
-39.9314	-50.8423	1.40869
-39.9296	-52.22821	1.42822
-39.928	-69.78714	1.44775
-39.9266	-53.3187	1.46729
-39.92556	-48.1168	1.48682
-39.923	-64.1481	1.50635
-39.9221	-54.0732	1.52588
-39.919	-41.3539	1.54541
-39.9186	-60.0226	1.56494
-39.9166	-57.2489	1.58447
-39.9146	-38.5839	1.604
-39.9135	-53.2237	1.62354
-39.9117	-59.0905	1.64307
-39.9094	-37.768	1.6626
-39.9089	-44.0216	1.68213
-39.9066	-60.2257	1.70166
-39.905	-36.6114	1.72119
-39.9026	-38.6283	1.74072
-39.9022	-53.3864	1.76025
-39.8995	-36.0115	1.77979
-39.89854	-30.6016	1.79932
-39.8977	-52.7277	1.81885
-39.89595	-37.5774	1.83838
-39.893	-25.3088	1.85791
-39.8929	-44.387	1.87744
-39.8909	-41.6566	1.89697
-39.8888	-21.4144	1.9165
-39.88773	-41.37059	1.93604
-39.8853	-42.4237	1.95557
-39.8842	-23.1916	1.9751
-39.8831	-29.6852	1.99463
-39.8816	-40.6386	2.01416
-39.8801	-21.0614	2.03369
-39.8776	-26.0213	2.05322
-39.8766	-39.4973	2.07275
-39.8739	-25.1457	2.09229
-39.8728	-16.0877	2.11182
-39.8708	-34.1851	2.13135
-39.8697	-27.4302	2.15088
-39.86734	-13.6885	2.17041
-39.8666	-29.7085	2.18994
-39.8643	-27.028	2.20947
-39.8613	-7.7176	2.229
-39.8616	-22.48074	2.24854
-39.8589	-29.079	2.26807
-39.8575	-5.97459	2.2876
-39.8562	-15.0173	2.30713
-39.8543	-28.332	2.32666
-39.8526	-7.77418	2.34619
-39.8522	-6.34078	2.36572
-39.8498	-28.06052	2.38525
-39.8493	-7.44776	2.40479
-39.8462	-2.58015	2.42432
-39.8438	-19.4562	2.44385
-39.8429	-8.14225	2.46338
-39.8411	6.4506	2.48291
-39.8406	-18.8103	2.50244
-39.8395	-11.3057	2.52197
-39.8357	8.202342	2.5415
-39.8338	-6.84517	2.56104
-39.834	-13.95492	2.58057
-39.8313	9.75797	2.6001
-39.83	-3.335448	2.61963
-39.8288	-11.6803	2.63916
-39.82711	6.35836	2.65869
-39.8255	6.67662	2.67822
-39.8237	-8.4211	2.69775
-39.82193	6.87609	2.71729
-39.821	11.9872	2.73682
-39.818	-5.325201	2.75635
-39.8171	3.20113	2.77588
-39.815	18.8973	2.79541
-39.8148	2.03511	2.81494
-39.8125	-0.682662	2.83447
-39.8109	18.8607	2.854
-39.8079	7.54707	2.87354
-39.8071	2.9347	2.89307
-39.807	24.1273	2.9126
-39.8046	15.6785	2.93213
-39.8028	0.155744	2.95166
-39.8009	22.9715	2.97119
-39.7994	22.0003	2.99072
-39.7987	5.81698	3.01025
-39.7961	20.5765	3.02979
-39.7956	30.0643	3.04932
-39.7939	5.838346	3.06885
-39.7909	18.8445	3.08838
-39.7892	32.5389	3.10791
-39.7877	15.4297	3.12744
-39.7857	19.0215	3.14697
-39.7848	38.0363	3.1665
-39.78434	18.0441	3.18604
-39.7818	16.9048	3.20557
-39.7799	36.6174	3.2251
-39.778	31.3531	3.24463
-39.77663	16.3447	3.26416
-39.77491	37.3821	3.28369
-39.7733	33.1914	3.30322
-39.7726	21.4914	3.32275
-39.7705	34.8361	3.34229
-39.7682	42.9101	3.36182
-39.7665	23.2434	3.38135
-39.7651	32.9444	3.40088
-39.763	47	3.42041
-39.7638	29.1623	3.43994
-39.7603	31.17131	3.45947
-39.7589	51.5376	3.479
-39.7572	38.1577	3.49854
-39.7549	27.90757	3.51807
-39.7529	51.2015	3.5376
-39.7527	43.1661	3.55713
-39.751	33.6004	3.57666
-39.7499	51.9	3.59619
-39.7475	52.2414	3.61572
-39.7468	31.6138	3.63525
-39.745	52.04092	3.65479
-39.7422	59.09185	3.67432
-39.7401	38.719	3.69385
-39.7383	47.081	3.71338
-39.7382	64.7504	3.73291
-39.7363	42.137	3.75244
-39.734	49.0542	3.77197
-39.7319	65.0189	3.7915
-39.7318	52.3588	3.81104
-39.7306	47.9543	3.83057
-39.7281	70.1392	3.8501
-39.7266	55.3712	3.86963
-39.7251	47.7352	3.88916
-39.7228	66.4669	3.90869
-39.7208	68.3147	3.92822
-39.7191	48.8761	3.94775
-39.7185	64.3682	3.96729
-39.7148	71.0551	3.98682
-39.7143	53.4049	4.00635
-39.7122	63.2675	4.02588
-39.7111	76.2764	4.04541
-39.70932	60.7091	4.06494
-39.7083	60.2551	4.08447
-39.7065	79.8242	4.104
-39.7056	65.40477	4.12354
-39.7029	62.1756	4.14307
-39.702	81.3786	4.1626
-39.6999	75.7596	4.18213
-39.6987	60.0761	4.20166
-39.6967	80.2441	4.22119
-39.695	80.5703	4.24072
-39.6953	65.2423	4.26025
-39.6918	81.4733	4.27979
-39.6894	89.0526	4.29932
-39.6889	65.57222	4.31885
-39.6882	80.1285	4.33838
-39.6844	91.5124	4.35791
-39.682	74.581	4.37744
-39.6825	75.3316	4.39697
-39.6804	97.0949	4.4165
-39.6787	78.0285	4.43604
-39.6766	76.6697	4.45557
-39.6758	96.3752	4.4751
-39.6744	88.3834	4.49463
-39.6727	77.91864	4.51416
-39.6703	97.92	4.53369
-39.66909	93.2548	4.55322
-39.66716	79.1066	4.57275
-39.66613	94.1736	4.59229
-39.6633	103.501	4.61182
-39.6634	85.2924	4.63135
-39.6603	91.8652	4.65088
-39.6603	105.692	4.67041
-39.657	90.6348	4.68994
-39.6551	92.134	4.70947
-39.6541	109.972	4.729
-39.6527	96.56	4.74854
-39.6516	88.19294	4.76807
-39.6506	110.849	4.7876
-39.6477	104.445	4.80713
-39.64616	89.7261	4.82666
-39.6444	110.722	4.84619
-39.6423	113.24	4.86572
-39.6411	91.6387	4.88525
-39.6403	110.563	4.90479
-39.6388	116.2297	4.92432
-39.63702	99.2285	4.94385
-39.6358	107.462	4.96338
-39.6325	122.882	4.98291
-39.6321	99.5089	5.00244
-39.63	107.108	5.02197
-39.6285	124.614	5.0415
-39.62624	112.921	5.06104
-39.6244	104.161	5.08057
-39.6247	125.207	5.1001
-39.6215	115.171	5.11963
-39.6194	107.583	5.13916
-39.6198	124.9814	5.15869
-39.6166	124.1487	5.17822
-39.6158	108.384	5.19775
-39.6136	124.843	5.21729
-39.6133	128.018	5.23682
-39.61	110.582	5.25635
-39.6088	122.288	5.27588
-39.6069	135.185	5.29541
-39.6052	119.495	5.31494
-39.6042	117.774	5.33447
-39.6019	136.3161	5.354
-39.5998	124.697	5.37354
-39.5994	119.503	5.39307
-39.5964	139.293	5.4126
-39.5958	132.703	5.43213
-39.5931	116.15	5.45166
-39.5911	139.882	5.47119
-39.5914	138.9809	5.49072
-39.5894	121.621	5.51025
-39.5878	138.361	5.52979
-39.5865	148.76	5.54932
-39.5847	124.592	5.56885
-39.5835	136.596	5.58838
-39.5817	149.953	5.60791
-39.5796	134.864	5.62744
-39.5783	135.365	5.64697
-39.5762	154.387	5.6665
-39.5746	135.969	5.68604
-39.5739	135.598	5.70557
-39.5714	154.274	5.7251
-39.5707	148.343	5.74463
-39.5676	133.747	5.76416
-39.5668	153.0627	5.78369
-39.5653	150.894	5.80322
-39.5629	137.119	5.82275
-39.562	153.597	5.84229
-39.559	158.797	5.86182
-39.5585	141.834	5.88135
-39.5564	149.7473	5.90088
-39.5553	162.983	5.92041
-39.5539	145.747	5.93994
-39.5517	147.662	5.95947
-39.5492	166.9319	5.979
-39.5491	154.265	5.99854
-39.5476	144.9296	6.01807
-39.54517	167.869	6.0376
-39.5441	160.969	6.05713
-39.5422	149.183	6.07666
-39.5405	166.813	6.09619
-39.5393	168.123	6.11572
-39.537	147.387	6.13525
-39.53598	166.763	6.15479
-39.5343	173.745	6.17432
-39.5336	157.112	6.19385
-39.531	164.358	6.21338
-39.5293	180.626	6.23291
-39.52747	158.945	6.25244
-39.5262	162.712	6.27197
-39.525	179.232	6.2915
-39.5231	169.274	6.31104
-39.5207	161.484	6.33057
-39.52	184.475	6.3501
-39.5179	171.075	6.36963
-39.5164	162.489	6.38916
-39.5141	181.996	6.40869
-39.5117	182.626	6.42822
-39.5114	166.7641	6.44775
-39.5102	178.084	6.46729
-39.5077	185.95	6.48682
-39.506	170.45	6.50635
-39.5052	178.914	6.52588
-39.50304	190.69	6.54541
-39.5015	177.453	6.56494
-39.5008	174.677	6.58447
-39.49876	194.13	6.604
-39.4968	180.294	6.62354
-39.4952	174.868	6.64307
-39.494	196.277	6.6626
-39.4919	190.87	6.68213
-39.4915	173.6394	6.70166
-39.4881	194.343	6.72119
-39.48666	193.715	6.74072
-39.4856	179.964	6.76025
-39.484	194.538	6.77979
-39.4821	203.1288	6.79932
-39.4796	179.443	6.81885
-39.4781	194.357	6.83838
-39.4769	206.65	6.85791
-39.4745	190.071	6.87744
-39.4745	189.665	6.89697
-39.4719	210.157	6.9165
-39.4704	193.479	6.93604
-39.46946	191.585	6.95557
-39.4678	208.172	6.9751
-39.4649	203.937	6.99463
-39.464	190.693	7.01416
-39.4627	210.142	7.03369
-39.4613	206.308	7.05322
-39.4594	193.784	7.07275
-39.4573	206.545	7.09229
-39.4558	217.737	7.11182
-39.4546	199.704	7.13135
-39.4526	203.461	7.15088
-39.4505	216.92	7.17041
-39.4493	204.48	7.18994
-39.4494	203.728	7.20947
-39.4466	218.848	7.229
-39.4453	211.515	7.24854
-39.4437	201.505	7.26807
-39.4414	223.251	7.2876
-39.4403	215.561	7.30713
-39.43771	204.709	7.32666
-39.4367	222.098	7.34619
-39.43465	226.243	7.36572
-39.43364	205.35	7.38525
-39.4313	220.007	7.40479
-39.4294	228.206	7.42432
-39.42823	213.494	7.44385
-39.4267	219.354	7.46338
-39.42511	234.5	7.48291
-39.4237	214.534	7.50244
-39.4222	217.439	7.52197
-39.4204	235.986	7.5415
-39.4192	226.24	7.56104
-39.4158	216.328	7.58057
-39.4151	235.534	7.6001
-39.4148	229.098	7.61963
-39.4126	218.835	7.63916
-39.41013	233.506	7.65869
-39.4085	237.129	7.67822
-39.4082	222.886	7.69775
-39.405	234.192	7.71729
-39.4041	241.435	7.73682
-39.4016	226.146	7.75635
-39.4007	231.474	7.77588
-39.3994	247.246	7.79541
-39.3979	233.168	7.81494
-39.3946	228.189	7.83447
-39.3951	248.161	7.854
-39.39246	238.7093	7.87354
-39.3908	231.174	7.89307
-39.3892	249.432	7.9126
-39.3876	244.907	7.93213
-39.3864	229.998	7.95166
-39.3847	249.341	7.97119
-39.3827	250.372	7.99072
-39.3811	234.846	8.01025
-39.3789	246.2655	8.02979
-39.3779	258.569	8.04932
-39.3761	236.347	8.06885
-39.3749	245.7509	8.08838
-39.3728	258.3782	8.10791
-39.3718	246.77	8.12744
-39.3698	245.623	8.14697
-39.3685	263.8172	8.1665
-39.3669	248.262	8.18604
-39.3639	243.651	8.20557
-39.3628	261.32	8.2251
-39.3624	259.9	8.24463
-39.3596	246.074	8.26416
-39.3579	262.108	8.28369
-39.3576	262.999	8.30322
-39.3548	250.497	8.32275
-39.3527	258.928	8.34229
-39.3519	268.032	8.36182
-39.3516	254.018	8.38135
-39.3485	257.269	8.40088
-39.3476	271.035	8.42041
-39.3446	258.9165	8.43994
-39.3444	256.077	8.45947
-39.3416	274.627	8.479
-39.341	267.087	8.49854
-39.3391	255.839	8.51807
-39.3364	272.689	8.5376
-39.3366	271.9895	8.55713
-39.3349	260.062	8.57666
-39.3324	273.491	8.59619
-39.3315	279.193	8.61572
-39.3303	259.474	8.63525
-39.3272	274.106	8.65479
-39.3259	282.296	8.67432
-39.3247	266.63	8.69385
-39.32262	270.158	8.71338
-39.3213	288.654	8.73291
-39.3189	269.991	8.75244
-39.3175	272.487	8.77197
-39.3162	287.285	8.7915
-39.3147	279.704	8.81104
-39.3142	272.035	8.83057
-39.3112	289.291	8.8501
-39.3096	281.952	8.86963
-39.3065	272.146	8.88916
-39.3061	287.161	8.90869
-39.3053	291.807	8.92822
-39.3024	276.097	8.94775
-39.3006	284.304	8.96729
-39.3009	293.288	8.98682
-39.2991	280.809	9.00635
-39.2969	285.686	9.02588
-39.2943	298.239	9.04541
-39.2925	286.741	9.06494
-39.2915	282.468	9.08447
-39.2902	300.33	9.104
-39.2886	290.988	9.12354
-39.2865	283.78	9.14307
-39.2852	301.02	9.1626
-39.2833	299.489	9.18213
-39.2834	282.452	9.20166
-39.28	299.5672	9.22119
-39.2786	302.832	9.24072
-39.276	289.7012	9.26025
-39.2747	299.327	9.27979
-39.27343	310.79	9.29932
-39.2725	289.403	9.31885
-39.2704	299.872	9.33838
-39.2691	312.748	9.35791
-39.2667	300.025	9.37744
-39.266	295.501	9.39697
-39.2641	314.691	9.4165
-39.2617	302.059	9.43604
-39.2605	296.801	9.45557
-39.2593	312.257	9.4751
-39.25761	311.548	9.49463
-39.2559	297.824	9.51416
-39.2544	313.789	9.53369
-39.2524	313.257	9.55322
-39.2518	301.88	9.57275
-39.2486	311.7059	9.59229
-39.2471	321.925	9.61182
-39.2458	306.673	9.63135
-39.2442	307.403	9.65088
-39.2434	322.594	9.67041
-39.2413	312.433	9.68994
-39.2397	309.2525	9.70947
-39.23764	324.1	9.729
-39.237	318.603	9.74854
-39.2348	306.779	9.76807
-39.2332	325.805	9.7876
-39.2319	323.026	9.80713
-39.2292	310.311	9.82666
-39.2289	323.24	9.84619
-39.228	331.99	9.86572
-39.22538	311.52	9.88525
-39.223	322.481	9.90479
-39.222	333.457	9.92432
-39.2206	320.513	9.94385
-39.219	323.101	9.96338
-39.2169	337.449	9.98291
-39.216	319.542	10.0024
-39.2139	321.379	10.022
-39.212	336.187	10.0415
-39.21035	330.576	10.061
-39.2087	319.559	10.0806
-39.2069	338.5535	10.1001
-39.2051	334.363	10.1196
-39.2036	324.644	10.13916
-39.20208	335.513	10.1587
-39.1994	340.991	10.1782
-39.1983	326.234	10.1978
-39.1972	333.788	10.2173
-39.1957	342.832	10.2368
-39.19426	329.422	10.2563
-39.1933	331.995	10.2759
-39.19101	347.9512	10.29541
-39.19	336.7048	10.3149
-39.1879	329.849	10.3345
-39.1863	347.15	10.354
-39.1842	341.501	10.3735
-39.1833	333.487	10.3931
-39.1801	350.113	10.4126
-39.1796	347.72	10.4321
-39.1773	331.697	10.45166
-39.17688	350.57	10.4712
-39.17432	353.154	10.4907
-39.1725	336.635	10.5103
-39.1706	347.4342	10.5298
-39.1701	358.737	10.5493
-39.1687	339.216	10.5688
-39.1665	345.404	10.5884
-39.1642	359.206	10.60791
-39.1632	347.427	10.6274
-39.1618	344.734	10.647
-39.1599	362.724	10.6665
-39.1585	349.692	10.686
-39.156	345.512	10.7056
-39.156	361.758	10.7251
-39.1527	361.004	10.7446
-39.1523	345.7	10.76416
-39.1508	359.524	10.7837
-39.14917	362.789	10.8032
-39.1465	350.826	10.8228
-39.14616	357.879	10.8423
-39.1434	366.483	10.8618
-39.1416	353.884	10.8813
-39.1408	355.472	10.9009
-39.1392	371.141	10.92041
-39.1366	358.011	10.9399
-39.1356	354.447	10.9595
-39.13414	373.293	10.979
-39.1329	366.1214	10.9985
-39.1307	352.644	11.0181
-39.1282	371.707	11.0376
-39.1277	371.001	11.0571
-39.126	357.834	11.07666
-39.1249	370.493	11.0962
-39.1218	377.066	11.1157
-39.1199	356.398	11.1353
-39.1202	371.352	11.1548
-39.1172	379.083	11.1743
-39.116	363.132	11.1938
-39.115	367.67	11.2134
-39.113	383.8757	11.23291
-39.1113	366.99	11.2524
-39.1103	367.822	11.272
-39.1079	382.159	11.2915
-39.1069	376.445	11.311
-39.1053	367.698	11.3306
-39.1023	384.073	11.3501
-39.1026	379.37	11.3696
-39.1	367.42	11.38916
-39.0989	380.062	11.4087
-39.0978	386.246	11.4282
-39.0948	370.404	11.4478
-39.0922	379.007	11.4673
-39.0921	389.423	11.4868
-39.0908	375.066	11.5063
-39.0889	377.077	11.5259
-39.087	391.9971	11.54541
-39.0844	382.096	11.5649
-39.0832	374.939	11.5845
-39.0818	392.938	11.604
-39.0802	383.641	11.6235
-39.0789	375.454	11.6431
-39.0774	392.5365	11.6626
-39.07473	393.438	11.6821
-39.0734	372.741	11.70166
-39.072	392.034	11.7212
-39.0712	396.144	11.7407
-39.0688	381.361	11.7603
-39.0671	389.547	11.7798
-39.0651	400.188	11.7993
-39.0644	380.612	11.8188
-39.0619	388.144	11.8384
-39.0606	402.22	11.85791
-39.0587	389.296	11.8774
-39.0575	383.5145	11.897
-39.0552	404.339	11.9165
-39.0542	392.354	11.936
-39.052	385.007	11.9556
-39.051	399.1745	11.9751
-39.0489	400.727	11.9946
-39.04702	387.283	12.01416
-39.04715	400.524	12.0337
-39.0445	401.827	12.0532
-39.044	388.332	12.0728
-39.0411	398.214	12.0923
-39.0383	410.315	12.1118
-39.0369	392.929	12.1313
-39.0367	393.917	12.1509
-39.0355	409.01	12.17041
-39.0334	397.207	12.1899
-39.031	394.357	12.2095
-39.029	409.304	12.229
-39.0284	404.101	12.2485
-39.0268	389.318	12.2681
-39.025	411.695	12.2876
-39.02319	407.971	12.3071
-39.0223	394.56	12.32666
-39.019	408.162	12.3462
-39.0172	415.827	12.3657
-39.0172	394.114	12.3853
-39.0155	406.184	12.4048
-39.0128	416.273	12.4243
-39.0113	401.0708	12.4438
-39.0096	403.911	12.4634
-39.0087	418.975	12.48291
-39.0066	400.918	12.5024
-39.005	403.3605	12.522
-39.00351	417.992	12.5415
-39.00248	410.588	12.561
-39.0005	400.161	12.5806
-38.9984	418.276	12.6001
-38.9967	413.219	12.6196
-38.9952	402.411	12.63916
-38.993	414.543	12.6587
-38.9927	420.328	12.6782
-38.98959	404.53	12.6978
-38.9895	412.4819	12.7173
-38.987	421.736	12.7368
-38.98671	406.633	12.7563
-38.9838	411.389	12.7759
-38.9826	425.455	12.79541
-38.981	413.398	12.8149
-38.9799	406.596	12.8345
-38.9779	425.321	12.854
-38.976	416.9462	12.8735
-38.97641	407.866	12.8931
-38.9728	423.981	12.9126
-38.9706	423.036	12.9321
-38.9694	406.432	12.95166
-38.9688	423.444	12.9712
-38.9668	425.483	12.9907
-38.9653	410.995	13.0103
-38.9627	420.068	13.0298
-38.9609	432.411	13.0493
-38.9583	411.7569	13.0688
-38.958	417.921	13.0884
-38.9563	430.087	13.10791
-38.9541	417.1987	13.1274
-38.954	415.5676	13.147
-38.9516	432.087	13.1665
-38.95	419.696	13.186
-38.9484	415.35	13.2056
-38.9464	431.618	13.2251
-38.9453	429.486	13.2446
-38.9431	415.096	13.26416
-38.9418	427.232	13.2837
-38.9397	430.097	13.3032
-38.9383	417.2742	13.3228
-38.9368	424.192	13.3423
-38.9361	434.438	13.3618
-38.9338	420.7319	13.3813
-38.9312	420.374	13.4009
-38.9302	435.714	13.42041
-38.9292	422.768	13.4399
-38.9274	419.446	13.4595
-38.92598	436.859	13.479
-38.9245	428.897	13.4985
-38.9224	415.061	13.5181
-38.922	436.413	13.5376
-38.9195	433.059	13.5571
-38.9187	421.894	13.57666
-38.9152	432.976	13.5962
-38.915	437.864	13.6157
-38.9129	417.52	13.6353
-38.9117	430.499	13.6548
-38.9093	439.483	13.6743
-38.9073	423.372	13.6938
-38.9062	425.88	13.7134
-38.9049	442.784	13.73291
-38.9034	424.851	13.7524
-38.9016	423.723	13.772
-38.9001	439.5264	13.7915
-38.8973	432.446	13.811
-38.8965	421.903	13.8306
-38.89431	439.463	13.8501
-38.8923	432.588	13.8696
-38.8916	423.087	13.88916
-38.8898	436.9577	13.9087
-38.8889	439.538	13.9282
-38.8868	422.955	13.9478
-38.8843	430.741	13.9673
-38.8827	440.4426	13.9868
-38.8809	426.786	14.0063
-38.8801	429.336	14.0259
-38.8791	442.8302	14.04541
-38.8769	432.027	14.0649
-38.8759	425.173	14.0845
-38.8741	445.765	14.104
-38.8725	433.868	14.1235
-38.8708	425.359	14.1431
-38.8673	443.454	14.1626
-38.8669	442.135	14.1821
-38.8651	422.015	14.20166
-38.864	439.687	14.2212
-38.8629	441.931	14.2407
-38.86132	427.305	14.2603
-38.85836	436.425	14.2798
-38.85796	444.8396	14.2993
-38.8565	425.185	14.3188
-38.8547	434.64	14.3384
-38.8529	446.302	14.35791
-38.8502	432.762	14.3774
-38.8485	427.662	14.397
-38.8474	445.8544	14.4165
-38.8466	434.108	14.436
-38.844	427.21	14.4556
-38.84201	442.06	14.4751
-38.841	440.67	14.4946
-38.8401	426.444	14.51416
-38.8375	440.13	14.5337
-38.8364	441.2973	14.5532
-38.8341	427.857	14.5728
-38.83189	438.532	14.5923
-38.8312	445.995	14.6118
-38.8304	429.536	14.6313
-38.8272	431.446	14.6509
-38.8267	446.508	14.67041
-38.8239	433.813	14.6899
-38.8238	431.688	14.7095
-38.8206	445.0921	14.729
-38.819	438.443	14.7485
-38.8181	425.605	14.7681
-38.8171	448.246	14.7876
-38.8151	441.566	14.8071
-38.8136	427.151	14.82666
-38.8121	443.69	14.8462
-38.81	447.918	14.8657
-38.8075	426.026	14.8853
-38.8072	438.34	14.9048
-38.8052	446.17	14.9243
-38.8046	432.37	14.9438
-38.8029	435.7966	14.9634
-38.7996	448.328	14.98291
-38.7977	430.715	15.0024
-38.797	431.989	15.022
-38.7955	447.21	15.0415
-38.7937	438.695	15.061
-38.791	428.547	15.0806
-38.7909	444.825	15.1001
-38.7889	439.752	15.1196
-38.7877	428.379	15.13916
-38.7851	441.267	15.1587
-38.784	444.535	15.1782
-38.78228	429.671	15.1978
-38.7813	437.572	15.2173
-38.7787	444.846	15.2368
-38.7774	429.531	15.2563
-38.7765	434.553	15.2759
-38.7749	449.452	15.29541
-38.7713	435.4	15.3149
-38.7706	427.481	15.3345
-38.7694	447.479	15.354
-38.768	438.671	15.3735
-38.7661	430.616	15.3931
-38.7635	447.7807	15.4126
-38.76223	442.505	15.4321
-38.7605	425.718	15.45166
-38.7605	444.69	15.4712
-38.7583	444.465	15.4907
-38.7552	428.853	15.5103
-38.7552	438.475	15.5298
-38.7534	448.918	15.5493
-38.7521	427.585	15.5688
-38.75	434.868	15.5884
-38.7488	448.227	15.60791
-38.747	434.346	15.6274
-38.7453	432.131	15.647
-38.74305	448.472	15.6665
-38.742	433.707	15.686
-38.7399	429.849	15.7056
-38.7384	446.565	15.7251
-38.7368	442.569	15.7446
-38.7357	426.621	15.76416
-38.7344	442.576	15.7837
-38.7319	441.504	15.8032
-38.7311	428.784	15.8228
-38.729	437.218	15.8423
-38.7281	445.031	15.8618
-38.725	430.692	15.8813
-38.7239	431.734	15.9009
-38.7227	446.601	15.92041
-38.7213	432.146	15.9399
-38.7186	430.31	15.9595
-38.7169	448.158	15.979
-38.7163	439.2077	15.9985
-38.7146	423.731	16.0181
-38.7134	445.887	16.0376
-38.7102	441.067	16.0571
-38.7092	426.725	16.07666
-38.7072	442.206	16.0962
-38.7063	444.456	16.1157
-38.7045	423.228	16.1353
-38.70245	438.429	16.1548
-38.7011	445.023	16.1743
-38.699	428.823	16.1938
-38.6981	433.994	16.2134
-38.6964	448.053	16.23291
-38.695	430.49	16.2524
-38.6938	429.913	16.272
-38.6903	444.048	16.2915
-38.6894	436.499	16.311
-38.68782	427.32	16.3306
-38.6867	443.092	16.3501
-38.6852	436.646	16.3696
-38.6836	425.52	16.38916
-38.6828	440.9837	16.4087
-38.6795	443.046	16.4282
-38.6782	424.933	16.4478
-38.6758	433.737	16.4673
-38.6743	443.455	16.4868
-38.6744	427.789	16.5063
-38.6718	430.988	16.5259
-38.6709	444.33	16.54541
-38.66906	432.636	16.5649
-38.6672	427.411	16.5845
-38.6654	443.635	16.604
-38.6639	432.2309	16.6235
-38.6611	425.735	16.6431
-38.6607	442.954	16.6626
-38.6588	438.961	16.6821
-38.6577	419.439	16.70166
-38.6557	440.734	16.7212
-38.6534	438.9534	16.7407
-38.6525	425.463	16.7603
-38.6515	434.1297	16.7798
-38.6497	442.7981	16.7993
-38.6477	421.328	16.8188
-38.64613	430.767	16.8384
-38.6433	442.333	16.85791
-38.6426	428.816	16.8774
-38.6401	425.05	16.897
-38.6393	443.319	16.9165
-38.638	428.66	16.936
-38.6347	425.14	16.9556
-38.6339	439.714	16.9751
-38.6326	434.881	16.9946
-38.6309	422.287	17.01416
-38.6296	437.642	17.0337
-38.6287	435.249	17.0532
-38.6268	420.901	17.0728
-38.6253	432.3089	17.0923
-38.6227	440.795	17.1118
-38.6214	424.515	17.1313
-38.62	424.304	17.1509
-38.6179	441.75	17.17041
-38.6158	426.397	17.1899
-38.6141	424.228	17.2095
-38.613	439.871	17.229
-38.6114	431.453	17.2485
-38.6091	419.057	17.2681
-38.6079	439.154	17.2876
-38.6067	431.623	17.3071
-38.60601	419.919	17.32666
-38.6036	435.284	17.3462
-38.6026	439.109	17.3657
-38.5996	415.506	17.3853
-38.5976	430.927	17.4048
-38.5983	437.519	17.4243
-38.5958	421.67	17.4438
-38.5936	425.262	17.4634
-38.5915	438.084	17.48291
-38.5896	421.597	17.5024
-38.5887	424.7399	17.522
-38.5872	439.766	17.5415
-38.5841	428.209	17.561
-38.5841	419.487	17.5806
-38.5824	436.196	17.6001
-38.5808	430.457	17.6196
-38.5797	419.939	17.63916
-38.5772	432.696	17.6587
-38.5748	435.414	17.6782
-38.5747	420.413	17.6978
-38.5725	427.565	17.7173
-38.5712	436.13	17.7368
-38.56847	419.239	17.7563
-38.5693	425.251	17.7759
-38.56488	439.4	17.79541
-38.5639	424.317	17.8149
-38.5631	416.511	17.8345
-38.5605	438.16	17.854
-38.5596	425.635	17.8735
-38.558	419.208	17.8931
-38.5569	435.5976	17.9126
-38.5546	433.077	17.9321
-38.55267	414.798	17.95166
-38.5514	433.736	17.9712
-38.5493	433.855	17.9907
-38.5481	417.351	18.0103
-38.546	428.887	18.0298
-38.5446	438.567	18.0493
-38.5429	416.3472	18.0688
-38.5423	424.148	18.0884
-38.54	436.55	18.10791
-38.5384	423.8082	18.1274
-38.5377	421.319	18.147
-38.5343	435.258	18.1665
-38.5323	421.04	18.186
-38.53196	417.94	18.2056
-38.5305	435.597	18.2251
-38.5293	429.23	18.2446
-38.526	415.988	18.26416
-38.5254	429.278	18.2837
-38.5237	431.916	18.3032
-38.5229	416.319	18.3228
-38.5198	427.962	18.3423
-38.5185	435.165	18.3618
-38.5167	420.0365	18.3813
-38.5151	421.638	18.4009
-38.5138	436.2637	18.42041
-38.5116	419.785	18.4399
-38.51	421.585	18.4595
-38.51	435.642	18.479
-38.5077	426.052	18.4985
-38.5052	412.304	18.5181
-38.5035	434.627	18.5376
-38.5026	426.34	18.5571
-38.5015	416.631	18.57666
-38.4995	430.658	18.5962
-38.4974	431.76	18.6157
-38.4949	412.029	18.6353
-38.49411	428.62	18.6548
-38.4933	432.696	18.6743
-38.4918	415.503	18.6938
-38.4895	421.418	18.7134
-38.4873	435.364	18.73291
-38.4868	417.239	18.7524
-38.4844	418.3782	18.772
-38.4822	434.787	18.7915
-38.4819	424.579	18.811
-38.4791	417.606	18.8306
-38.4771	429.908	18.8501
-38.4773	424.087	18.8696
-38.4757	414.893	18.88916
-38.4738	431.48	18.9087
-38.4713	430.259	18.9282
-38.47023	413.747	18.9478
-38.46809	423.028	18.9673
-38.4664	432.781	18.9868
-38.4655	416.762	19.0063
-38.4636	422.392	19.0259
-38.4615	435.282	19.04541
-38.4601	420.575	19.0649
-38.45816	414.602	19.0845
-38.4568	434.6445	19.104
-38.4551	421.84	19.1235
-38.4545	415.711	19.1431
-38.4525	432.627	19.1626
-38.4505	428.313	19.1821
-38.4497	408.635	19.20166
-38.4475	430	19.2212
-38.4451	428.33	19.2407
-38.444	414.5658	19.2603
-38.4434	426.852	19.2798
-38.4402	432.673	19.2993
-38.439	413.495	19.3188
-38.4379	422.089	19.3384
-38.4359	433.444	19.35791
-38.4338	418.34	19.3774
-38.43335	417.223	19.397
-38.4308	433.804	19.4165
-38.4304	418.869	19.436
-38.4285	412.791	19.4556
-38.4262	429.964	19.4751
-38.424	424.5011	19.4946
-38.4224	414.783	19.51416
-38.4227	425.882	19.5337
-38.4206	426.227	19.5532
-38.4177	412.158	19.5728
-38.4162	424.694	19.5923
-38.4149	432.225	19.6118
-38.413	414.399	19.6313
-38.4109	418.002	19.6509
-38.4096	433.487	19.67041
-38.40889	416.786	19.6899
-38.4072	416.222	19.7095
-38.4051	431.53	19.729
-38.4036	421.303	19.7485
-38.4032	410.389	19.7681
-38.4003	432.417	19.7876
-38.3983	423.757	19.8071
-38.39711	413.332	19.82666
-38.3943	428.982	19.8462
-38.3933	430.401	19.8657
-38.3915	408.474	19.8853
-38.3894	424.115	19.9048
-38.3879	428.9245	19.9243
-38.38652	415.034	19.9438
-38.3863	419.336	19.9634
-38.3849	432.41	19.98291
-38.3821	413.142	20.0024
-38.3805	411.625	20.0122

Data Header:			0.254_hd_uprint_typeiv_090_r0			Time:	34.2183	s	4/13/2019 10:56:06 PM
Data Acquisition:	Timed
Station Name:	ft40.cfg
Test File Name:	monotonic_0.2540_typeiv_solid_4545_uprint.tst
Displacement	Force	Running Time
mm	N	s
-38.37957	418.705	20.022
-38.37989	425.383	20.0317
-38.37849	432.497	20.0415
-38.3779	426.445	20.05127
-38.3769	418.548	20.061
-38.3763	414.044	20.0708
-38.37534	412.7142	20.0806
-38.3759	419.84	20.0903
-38.37426	429.622	20.1001
-38.3729	431.475	20.1099
-38.3728	423.324	20.1196
-38.3711	415.035	20.1294
-38.36998	410.688	20.13916
-38.3694	419.0668	20.1489
-38.3685	426.418	20.1587
-38.3681	428.644	20.1685
-38.3684	425.744	20.1782
-38.3666	418.632	20.188
-38.3661	413.172	20.1978
-38.3649	412.973	20.20752
-38.3647	421.2699	20.2173
-38.3623	433.059	20.2271
-38.3625	429.294	20.2368
-38.3616	421.9476	20.2466
-38.3613	411.153	20.2563
-38.3601	413.035	20.2661
-38.359	420.577	20.2759
-38.3575	424.369	20.2856
-38.3584	431.22	20.29541
-38.3569	427.256	20.3052
-38.3559	416.3364	20.3149
-38.3558	411.478	20.3247
-38.3556	411.666	20.3345
-38.3532	425.944	20.3442
-38.3526	432.198	20.354
-38.3509	428.557	20.36377
-38.3509	417.826	20.3735
-38.34959	410.993	20.3833
-38.3492	413.611	20.3931
-38.34874	418.393	20.4028
-38.3469	427.802	20.4126
-38.3474	431.137	20.4224
-38.3461	424.773	20.4321
-38.345	414.0412	20.4419
-38.345	407.789	20.45166
-38.3436	416.028	20.4614
-38.34428	429.9646	20.4712
-38.3419	432.851	20.481
-38.3412	425.471	20.4907
-38.34053	414.9783	20.5005
-38.3404	410.2	20.5103
-38.3393	411.879	20.52002
-38.3382	423.7	20.5298
-38.3374	430.6748	20.5396
-38.3368	432.201	20.5493
-38.3346	420.662	20.5591
-38.3356	409.333	20.5688
-38.3338	412.768	20.5786
-38.3327	419.408	20.5884
-38.3321	430.473	20.5981
-38.3318	430.469	20.60791
-38.3305	422.033	20.6177
-38.3305	415.661	20.6274
-38.3278	410.467	20.6372
-38.3281	415.495	20.647
-38.3278	425.565	20.6567
-38.3268	428.659	20.6665
-38.3259	429.856	20.67627
-38.3259	417.389	20.686
-38.3236	411.519	20.6958
-38.32428	414.077	20.7056
-38.32259	420.678	20.7153
-38.3218	430.323	20.7251
-38.3204	428.0282	20.7349
-38.3198	421.8775	20.7446
-38.3197	415.476	20.7544
-38.3193	410.81	20.76416
-38.3181	416.555	20.7739
-38.3161	425.718	20.7837
-38.3179	431.89	20.7935
-38.3155	426.822	20.8032
-38.3155	416.656	20.813
-38.3145	411.06	20.8228
-38.31311	414.057	20.83252
-38.3112	422.555	20.8423
-38.3101	426.757	20.8521
-38.3106	429.2915	20.8618
-38.3104	421.286	20.8716
-38.3085	414.711	20.8813
-38.3079	409.648	20.8911
-38.3072	416.8118	20.9009
-38.3059	428.474	20.9106
-38.306	430.1604	20.92041
-38.3043	426.212	20.9302
-38.3036	413.31	20.9399
-38.3034	410.7233	20.9497
-38.3035	415.648	20.9595
-38.3012	421.273	20.9692
-38.3012	432.2514	20.979
-38.30032	428.902	20.98877
-38.2995	419.539	20.9985
-38.298	411.969	21.0083
-38.297	409.643	21.0181
-38.2965	421.453	21.0278
-38.2949	430.528	21.0376
-38.2949	431.9668	21.0474
-38.2945	423.554	21.0571
-38.2931	411.73	21.0669
-38.2921	411.791	21.07666
-38.29113	413.459	21.0864
-38.2907	426.225	21.0962
-38.2902	432.974	21.106
-38.289	427.883	21.1157
-38.2886	416.864	21.1255
-38.28857	407.758	21.1353
-38.28669	411.046	21.14502
-38.286	425.348	21.1548
-38.2861	430.627	21.1646
-38.2842	428.351	21.1743
-38.2826	418.008	21.1841
-38.2823	410.993	21.1938
-38.2809	410.01	21.2036
-38.2815	418.992	21.2134
-38.2812	428.188	21.2231
-38.2799	431.571	21.23291
-38.2778	425.049	21.2427
-38.2773	411.296	21.2524
-38.2774	410.163	21.2622
-38.27607	415.407	21.272
-38.2755	427.405	21.2817
-38.275	429.883	21.2915
-38.2735	423.936	21.30127
-38.2738	418.28	21.311
-38.2717	411.244	21.3208
-38.2715	413.656	21.3306
-38.2708	420.418	21.3403
-38.269	428.685	21.3501
-38.2701	432.082	21.3599
-38.2689	418.927	21.3696
-38.2673	415.031	21.3794
-38.267	411.517	21.38916
-38.2658	415.83	21.3989
-38.2653	427.457	21.4087
-38.2643	428.114	21.4185
-38.2628	425.951	21.4282
-38.262	418.142	21.438
-38.2617	409.52	21.4478
-38.2603	413.1803	21.45752
-38.2601	420.589	21.4673
-38.2588	431.23	21.4771
-38.2587	427.701	21.4868
-38.2571	419.848	21.4966
-38.25708	410.959	21.5063
-38.257	411.833	21.5161
-38.2549	418.807	21.5259
-38.25449	425.055	21.5356
-38.2529	429.679	21.54541
-38.2526	425.789	21.5552
-38.2517	416.261	21.5649
-38.2504	408.89	21.5747
-38.2501	412.666	21.5845
-38.2493	424.866	21.5942
-38.2493	430.903	21.604
-38.2481	428.824	21.61377
-38.2466	416.26	21.6235
-38.2463	410.044	21.6333
-38.2443	412.493	21.6431
-38.2456	417.1235	21.6528
-38.2431	429.759	21.6626
-38.2432	430.507	21.6724
-38.2421	423.249	21.6821
-38.2409	413.036	21.6919
-38.241	406.8082	21.70166
-38.2394	418.093	21.7114
-38.2398	426.932	21.7212
-38.2372	431.62	21.731
-38.238	425.246	21.7407
-38.2359	412.5939	21.7505
-38.2343	411.096	21.7603
-38.2344	411.936	21.77002
-38.2337	421.523	21.7798
-38.2338	430.895	21.7896
-38.2332	428.251	21.7993
-38.2312	419.93	21.8091
-38.2313	407.693	21.8188
-38.2302	409.214	21.8286
-38.229	420.242	21.8384
-38.22797	429.764	21.8481
-38.22757	430.41	21.85791
-38.2265	421.362	21.8677
-38.2256	413.453	21.8774
-38.2258	410.388	21.8872
-38.22356	414.86	21.897
-38.2235	423.602	21.9067
-38.222	431.26	21.9165
-38.2212	426.476	21.92627
-38.2205	414.671	21.936
-38.2216	410.211	21.9458
-38.2197	410.262	21.9556
-38.2189	421.763	21.9653
-38.2183	428.351	21.9751
-38.2163	427.111	21.9849
-38.2157	421.513	21.9946
-38.2148	412.886	22.0044
-38.2148	410.7243	22.01416
-38.2143	416.254	22.0239
-38.2123	424.35	22.0337
-38.2122	432.102	22.0435
-38.2117	423.641	22.0532
-38.21051	417.425	22.063
-38.2105	409.992	22.0728
-38.2086	412.009	22.08252
-38.208	423.214	22.0923
-38.2073	426.954	22.1021
-38.2063	428.283	22.1118
-38.2046	420.871	22.1216
-38.2053	412.279	22.1313
-38.2033	410.77	22.1411
-38.2024	415.708	22.1509
-38.2021	427.618	22.1606
-38.2006	429.221	22.17041
-38.2008	424.284	22.1802
-38.1996	413.991	22.1899
-38.2001	409.052	22.1997
-38.1974	415.798	22.2095
-38.1969	421.8877	22.2192
-38.1965	430.5549	22.229
-38.1954	428.892	22.23877
-38.195	419.412	22.2485
-38.1936	410.508	22.2583
-38.1925	410.505	22.2681
-38.1928	420.301	22.2778
-38.1916	430.572	22.2876
-38.1909	430.987	22.2974
-38.1907	418.748	22.3071
-38.1898	411.155	22.3169
-38.18869	410.005	22.32666
-38.18647	413.921	22.3364
-38.1872	427.653	22.3462
-38.1858	429.865	22.356
-38.1849	425.838	22.3657
-38.1844	415.18	22.3755
-38.1844	405.58	22.3853
-38.1833	413.343	22.39502
-38.1811	422.803	22.4048
-38.1812	430.7496	22.4146
-38.1795	427.204	22.4243
-38.1787	415.742	22.4341
-38.1786	410.755	22.4438
-38.1778	409.128	22.4536
-38.1773	418.238	22.4634
-38.17667	427.183	22.4731
-38.1758	429.117	22.48291
-38.1754	425.226	22.4927
-38.1735	409.806	22.5024
-38.173	409.715	22.5122
-38.172	416.027	22.522
-38.1703	424.469	22.5317
-38.1694	431.115	22.5415
-38.168	423.914	22.55127
-38.1682	416.922	22.561
-38.1684	411.773	22.5708
-38.16671	409.917	22.5806
-38.1659	418.939	22.5903
-38.1654	427.138	22.6001
-38.1642	429.314	22.6099
-38.1632	419.096	22.6196
-38.1638	412.552	22.6294
-38.1629	408.587	22.63916
-38.1611	417.0549	22.6489
-38.1599	425.317	22.6587
-38.16029	427.6925	22.6685
-38.1587	424.298	22.6782
-38.1596	416.161	22.688
-38.1572	411.232	22.6978
-38.1574	409.94	22.70752
-38.1558	420.404	22.7173
-38.1539	428.24	22.7271
-38.15369	425.625	22.7368
-38.1527	419.648	22.7466
-38.1524	408.381	22.7563
-38.1524	409.031	22.7661
-38.1495	419.161	22.7759
-38.14922	423.835	22.7856
-38.1493	431.339	22.79541
-38.1484	423.337	22.8052
-38.1469	413.512	22.8149
-38.1466	408.123	22.8247
-38.1474	409.832	22.8345
-38.1459	425.341	22.8442
-38.144	430.804	22.854
-38.1441	425.491	22.86377
-38.1428	416.258	22.8735
-38.1424	407.638	22.8833
-38.1399	411.165	22.8931
-38.14006	417.694	22.9028
-38.1389	426.581	22.9126
-38.139	430.145	22.9224
-38.1385	421.9064	22.9321
-38.137	410.189	22.9419
-38.1374	406.461	22.95166
-38.1355	414.766	22.9614
-38.1355	427.6564	22.9712
-38.1338	429.96	22.981
-38.1333	421.344	22.9907
-38.1318	412.734	23.0005
-38.1322	408.366	23.0103
-38.1316	411.2923	23.02002
-38.1301	422.6308	23.0298
-38.1287	427.877	23.0396
-38.1276	427.207	23.0493
-38.1267	418.83	23.0591
-38.1272	407.073	23.0688
-38.12524	409.483	23.0786
-38.1249	418.022	23.0884
-38.125	427.6524	23.0981
-38.1227	427.939	23.10791
-38.12286	417.659	23.1177
-38.1212	412.619	23.1274
-38.12088	408.446	23.1372
-38.1199	414.912	23.147
-38.1191	422.977	23.1567
-38.1185	429.03	23.1665
-38.1177	428.1619	23.17627
-38.1161	412.4632	23.186
-38.1163	408.287	23.1958
-38.11573	411.248	23.2056
-38.1149	420.022	23.2153
-38.1133	429.654	23.2251
-38.1122	425.703	23.2349
-38.1115	419.957	23.2446
-38.11161	412.136	23.2544
-38.10936	409.098	23.26416
-38.1098	414.265	23.2739
-38.11	423.947	23.2837
-38.1079	429.024	23.2935
-38.1063	423.143	23.3032
-38.1065	414.701	23.313
-38.10482	406.299	23.3228
-38.1039	411.349	23.33252
-38.1035	420.577	23.3423
-38.1028	426.027	23.3521
-38.1027	426.001	23.3618
-38.1014	417.894	23.3716
-38.09996	410.962	23.3813
-38.1012	407.894	23.3911
-38.0989	414.81	23.4009
-38.099	425.859	23.4106
-38.0979	429.049	23.42041
-38.0965	424.171	23.4302
-38.095	410.8606	23.4399
-38.095	407.528	23.4497
-38.0937	414.455	23.4595
-38.094	419.947	23.4692
-38.0919	429.472	23.479
-38.0926	424.2652	23.48877
-38.09066	416.213	23.4985
-38.0904	408.226	23.5083
-38.0874	406.003	23.5181
-38.0893	419.175	23.5278
-38.08754	428.2713	23.5376
-38.087	427.596	23.5474
-38.0866	418.407	23.5571
-38.0844	408.917	23.5669
-38.0835	409.9104	23.57666
-38.0834	414.54	23.5864
-38.083	423.952	23.5962
-38.0816	429.101	23.606
-38.0799	424.5629	23.6157
-38.0805	412.545	23.6255
-38.0787	404.7121	23.6353
-38.0794	409.43	23.64502
-38.0785	423.522	23.6548
-38.07756	430.04	23.6646
-38.0749	426.392	23.6743
-38.0762	416	23.6841
-38.0739	407.798	23.6938
-38.0743	409.787	23.7036
-38.0733	418.415	23.7134
-38.0723	424.668	23.7231
-38.0708	428.798	23.73291
-38.0708	421.231	23.7427
-38.0695	409.01	23.7524
-38.0689	408.683	23.7622
-38.0675	413.866	23.772
-38.0672	426.2005	23.7817
-38.0663	428.685	23.7915
-38.0666	421.473	23.80127
-38.0639	415.656	23.811
-38.0649	408.118	23.8208
-38.063	412.812	23.8306
-38.0634	418.25	23.8403
-38.06168	425.945	23.8501
-38.0595	429.215	23.8599
-38.059	417.279	23.8696
-38.0589	410.3381	23.8794
-38.0586	408.359	23.88916
-38.058	415.062	23.8989
-38.0569	426.001	23.9087
-38.0552	424.982	23.9185
-38.0564	423.471	23.9282
-38.0534	414.885	23.938
-38.0535	407.94	23.9478
-38.0529	411.149	23.95752
-38.051	418.897	23.9673
-38.0512	428.415	23.9771
-38.0496	426.33	23.9868
-38.0495	417.767	23.9966
-38.0482	408.339	24.0063
-38.0475	407.629	24.0161
-38.0467	416.961	24.0259
-38.0458	424.78	24.0356
-38.0452	426.698	24.04541
-38.0444	421.978	24.0552
-38.043	412.914	24.0649
-38.043	406.365	24.0747
-38.0413	411.378	24.0845
-38.0408	422.819	24.0942
-38.0402	429.003	24.104
-38.0396	426.122	24.11377
-38.0389	413.214	24.1235
-38.0393	407.609	24.1333
-38.0372	409.4	24.1431
-38.0368	415.7377	24.1528
-38.0354	428.632	24.1626
-38.0347	426.402	24.1724
-38.0335	418.495	24.1821
-38.0324	411.44	24.1919
-38.0321	403.591	24.20166
-38.0318	415.478	24.2114
-38.0315	425.239	24.2212
-38.0299	429.609	24.231
-38.0293	421.213	24.2407
-38.0277	409.696	24.2505
-38.0268	408.129	24.2603
-38.0268	409.23	24.27002
-38.0251	421.112	24.2798
-38.0246	429.153	24.2896
-38.0247	425.803	24.2993
-38.0226	415.575	24.3091
-38.0218	405.836	24.3188
-38.0216	406.854	24.3286
-38.0204	417.712	24.3384
-38.0197	427.1109	24.3481
-38.0192	426.914	24.35791
-38.0194	417.535	24.3677
-38.0191	408.539	24.3774
-38.0159	407.884	24.3872
-38.0171	414.027	24.397
-38.0144	422.139	24.4067
-38.0144	429.21	24.4165
-38.013	424.853	24.42627
-38.01265	411.478	24.436
-38.0121	407.954	24.4458
-38.0105	409.552	24.4556
-38.0107	421.028	24.4653
-38.0087	426.839	24.4751
-38.0084	422.645	24.4849
-38.0074	417.844	24.4946
-38.0067	409.38	24.5044
-38.0058	409.411	24.51416
-38.0048	414.086	24.5239
-38.003	422.516	24.5337
-38.0033	429.382	24.5435
-38.0043	419.66	24.5532
-38.0014	412.992	24.563
-38.0018	406.821	24.5728
-38.0006	411.795	24.58252
-37.9993	421.881	24.5923
-37.9985	425.062	24.6021
-37.9978	425.6626	24.6118
-37.99773	416.56	24.6216
-37.997	407.632	24.6313
-37.9958	408.016	24.6411
-37.9952	413.161	24.6509
-37.9941	425.929	24.6606
-37.9929	428.716	24.67041
-37.992	419.883	24.6802
-37.99062	410.174	24.6899
-37.9905	405.892	24.6997
-37.99025	413.101	24.7095
-37.98822	421.125	24.7192
-37.9886	427.076	24.729
-37.9879	423.98	24.73877
-37.9866	415.826	24.7485
-37.9861	406.478	24.7583
-37.9848	406.828	24.7681
-37.9841	417.448	24.7778
-37.9837	427.726	24.7876
-37.98267	428.229	24.7974
-37.9811	414.842	24.8071
-37.9801	406.164	24.8169
-37.9797	406.385	24.82666
-37.9798	411.623	24.8364
-37.9789	425.587	24.8462
-37.9778	426.146	24.856
-37.9777	422.631	24.8657
-37.9762	412.393	24.8755
-37.9753	402.738	24.8853
-37.9734	410.707	24.89502
-37.97361	420.784	24.9048
-37.9728	429.443	24.9146
-37.9715	424.537	24.9243
-37.9711	410.908	24.9341
-37.97	407.965	24.9438
-37.9692	409.5527	24.9536
-37.9683	416.549	24.9634
-37.968	426.39	24.9731
-37.9669	426.105	24.98291
-37.9672	420.782	24.9927
-37.966	406.004	25.0024
-37.9649	405.151	25.0122
-37.9646	413.757	25.022
-37.9629	423.61	25.0317
-37.9619	428.16	25.0415
-37.962	420.197	25.05127
-37.961	411.141	25.061
-37.95937	409.139	25.0708
-37.9586	409.781	25.0806
-37.9586	418.3949	25.0903
-37.9573	426.724	25.1001
-37.9571	425.059	25.1099
-37.9561	415.317	25.1196
-37.9547	408.46	25.1294
-37.9539	407.154	25.13916
-37.953	416.879	25.1489
-37.9523	423.628	25.1587
-37.9518	424.627	25.1685
-37.9507	420.916	25.1782
-37.9504	413.067	25.188
-37.949	409.1615	25.1978
-37.9492	410.069	25.20752
-37.9466	419.501	25.2173
-37.94664	429.823	25.2271
-37.9451	423.718	25.2368
-37.9442	416.134	25.2466
-37.9434	405.858	25.2563
-37.9433	407.818	25.2661
-37.9425	417.895	25.2759
-37.9426	422.447	25.2856
-37.9412	427.707	25.29541
-37.9403	419.4024	25.3052
-37.9398	410.391	25.3149
-37.9386	407.1702	25.3247
-37.9372	409.191	25.3345
-37.9363	421.956	25.3442
-37.9364	427.966	25.354
-37.9357	423.763	25.36377
-37.93465	413.389	25.3735
-37.933	405.099	25.3833
-37.9333	409.059	25.3931
[...]
-37.8385	415.206	26.5259
-37.838	422.62	26.5356
-37.8366	426.471	26.54541
-37.8369	417.516	26.5552
-37.8361	409.683	26.5649
-37.8344	405.198	26.5747
-37.8343	407.443	26.5845
-37.834	421.103	26.5942
-37.8316	426.391	26.604
-37.8311	423.35	26.61377
-37.8302	409.434	26.6235
-37.8299	402.895	26.6333
-37.8294	409.508	26.6431
-37.8283	415.495	26.6528
-37.8272	427.6889	26.6626
-37.8269	424.1796	26.6724
-37.8251	416.1597	26.6821
-37.82449	407.551	26.6919
-37.8235	401.882	26.70166
-37.8236	415.05	26.7114
-37.8225	424.222	26.7212
-37.8213	426.577	26.731
-37.8214	419.758	26.7407
-37.8205	407.703	26.7505
-37.8191	405.676	26.7603
-37.8179	410.129	26.77002
-37.8171	418.383	26.7798
-37.8159	424.572	26.7896
-37.8161	422.812	26.7993
-37.8144	414.157	26.8091
-37.8142	401.899	26.8188
-37.8136	405.835	26.8286
-37.8123	417.579	26.8384
-37.8121	424.939	26.8481
-37.8119	424.178	26.85791
-37.8102	413.898	26.8677
-37.8089	406.483	26.8774
-37.808	406.015	26.8872
-37.808	411.311	26.897
-37.8061	419.618	26.9067
-37.8054	425.996	26.9165
-37.8055	420.614	26.92627
-37.805	409.796	26.936
-37.80418	404.718	26.9458
-37.80286	407.7493	26.9556
-37.8016	419.432	26.9653
-37.8007	425.855	26.9751
-37.8001	420.929	26.9849
-37.7991	414.215	26.9946
-37.7994	406.265	27.0044
-37.7965	407.806	27.01416
-37.7977	412.394	27.0239
-37.79641	420.397	27.0337
-37.7951	427.163	27.0435
-37.7954	418.158	27.0532
-37.7934	410.102	27.063
-37.7919	405.03	27.0728
-37.7925	409.414	27.08252
-37.7906	420.046	27.0923
-37.7901	422.14	27.1021
-37.7905	421.8909	27.1118
-37.7893	414.996	27.1216
-37.7885	405.765	27.1313
-37.7858	405.7879	27.1411
-37.78595	412.991	27.1509
-37.7865	423.798	27.1606
-37.7841	425.313	27.17041
-37.785	417.14	27.1802
-37.7836	406.882	27.1899
-37.7832	404.633	27.1997
-37.7828	411.42	27.2095
-37.7815	420.293	27.2192
-37.7801	425.685	27.229
-37.7789	421.233	27.23877
-37.7786	411.926	27.2485
-37.77713	405.152	27.2583
-37.7777	405.158	27.2681
-37.7756	416.855	27.2778
-37.775	426.324	27.2876
-37.77317	425.247	27.2974
-37.7741	413.076	27.3071
-37.7722	405.7092	27.3169
-37.7723	405.135	27.32666
-37.771	411.653	27.3364
-37.7702	423.972	27.3462
-37.7691	424.0592	27.356
-37.76981	420.922	27.3657
-37.7675	411.197	27.3755
-37.767	402.141	27.3853
-37.76569	409.816	27.39502
-37.7646	420.271	27.4048
-37.7645	427.168	27.4146
-37.7633	421.714	27.4243
-37.7619	408.538	27.4341
-37.7632	406.734	27.4438
-37.7616	407.305	27.4536
-37.7598	415.035	27.4634
-37.7598	424.342	27.4731
-37.7589	423.397	27.48291
-37.7576	418.018	27.4927
-37.7589	403.476	27.5024
-37.7564	403.631	27.5122
-37.7555	412.255	27.522
-37.75462	421.081	27.5317
-37.7534	426.335	27.5415
-37.7525	416.821	27.55127
-37.75201	408.004	27.561
-37.7517	405.231	27.5708
-37.7506	408.504	27.5806
-37.7502	416.892	27.5903
-37.7495	423.034	27.6001
-37.7484	422.617	27.6099
-37.7469	412.4162	27.6196
-37.7461	405.739	27.6294
-37.7449	403.45	27.63916
-37.7446	414.146	27.6489
-37.7454	421.835	27.6587
-37.7431	421.857	27.6685
-37.7423	417.998	27.6782
-37.7417	407.955	27.688
-37.74152	406.228	27.6978
-37.7397	406.93	27.70752
-37.7402	416.873	27.7173
-37.739	425.682	27.7271
-37.7379	420.554	27.7368
-37.7374	412.122	27.7466
-37.7361	403.674	27.7563
-37.7357	405.329	27.7661
-37.7342	417.366	27.7759
-37.7323	420.534	27.7856
-37.7336	424.732	27.79541
-37.7325	415.345	27.8052
-37.7317	406.759	27.8149
-37.731	403.938	27.8247
-37.7306	407.1456	27.8345
-37.7275	420.217	27.8442
-37.7281	425.5795	27.854
-37.7266	418.07	27.86377
-37.7252	408.078	27.8735
-37.7251	402.464	27.8833
-37.7249	406.589	27.8931
-37.72364	415.338	27.9028
-37.7238	422.931	27.9126
-37.7227	424.259	27.9224
-37.7223	413.531	27.9321
-37.7209	404.983	27.9419
-37.7208	401.987	27.95166
-37.7191	411.358	27.9614
-37.71701	424.112	27.9712
-37.71693	424.5892	27.981
-37.7165	417.006	27.9907
-37.71553	406.282	28.0005
-37.7146	402.803	28.0103
-37.7139	409.034	28.02002
-37.7136	420.428	28.0298
-37.7119	423.181	28.0396
-37.7118	421.951	28.0493
-37.7107	413.296	28.0591
-37.7112	402.194	28.0688
-37.7104	407.1123	28.0786
-37.7082	414.626	28.0884
-37.707	425.556	28.0981
-37.7066	423.527	28.10791
-37.7049	410.949	28.1177
-37.70499	407.2171	28.1274
-37.7044	404.045	28.1372
-37.7038	411.026	28.147
-37.7033	420.908	28.1567
-37.70216	422.748	28.1665
-37.70089	421.777	28.17627
-37.6999	407.831	28.186
-37.6974	404.429	28.1958
-37.6988	408.414	28.2056
-37.6977	418.793	28.2153
-37.6967	424.67	28.2251
-37.6963	419.116	28.2349
-37.6943	410.58	28.2446
-37.6944	406.8605	28.2544
-37.6933	405.637	28.26416
-37.6937	411.258	28.2739
-37.6923	419.279	28.2837
-37.6907	422.799	28.2935
-37.6898	417.108	28.3032
-37.6897	407.43	28.313
-37.6883	403.678	28.3228
-37.6879	410.256	28.33252
-37.6874	419.912	28.3423
-37.6863	422.252	28.3521
-37.6855	421.648	28.3618
-37.6858	411.5715	28.3716
-37.6836	407.916	28.3813
-37.6833	405.528	28.3911
-37.6823	412.654	28.4009
-37.682	423.4823	28.4106
-37.6819	423.393	28.42041
-37.6793	416.627	28.4302
-37.6793	405.589	28.4399
-37.679	401.573	28.4497
-37.6779	411.646	28.4595
-37.6771	417.336	28.4692
-37.6759	426.604	28.479
-37.6751	419.503	28.48877
-37.6734	411.004	28.4985
-37.6738	404.434	28.5083
-37.6729	403.4	28.5181
-37.6713	416.826	28.5278
-37.6697	424.567	28.5376
-37.6697	422.496	28.5474
-37.6694	411.913	28.5571
-37.6703	401.644	28.5669
-37.6667	405.347	28.57666
-37.668	412.448	28.5864
-37.6662	421.44	28.5962
-37.6652	424.124	28.606
-37.6652	415.804	28.6157
-37.6636	406.689	28.6255
-37.663	401.103	28.6353
-37.66153	407.948	28.64502
-37.6615	421.253	28.6548
-37.6608	425.671	28.6646
-37.66032	418.789	28.6743
-37.6591	407.638	28.6841
-37.6574	401.46	28.6938
-37.6573	407.703	28.7036
-37.6562	416.593	28.7134
-37.6558	419.655	28.7231
-37.65435	423.444	28.73291
-37.6539	415.005	28.7427
-37.6536	402.824	28.7524
-37.6521	403.8175	28.7622
-37.65086	410.237	28.772
-37.651	422.92	28.7817
-37.6506	423.488	28.7915
-37.6489	414.915	28.80127
-37.6481	409.479	28.811
-37.6476	402.721	28.8208
-37.647	408.35	28.8306
-37.6466	415.576	28.8403
-37.6449	421.388	28.8501
-37.6437	423.246	28.8599
-37.6428	410.215	28.8696
-37.6427	402.747	28.8794
-37.6412	403.3714	28.88916
-37.6396	411.37	28.8989
-37.6401	422.755	28.9087
-37.6389	419.756	28.9185
-37.6379	415.9252	28.9282
-37.63784	408.963	28.938
-37.6373	403.928	28.9478
-37.6362	406.6394	28.95752
-37.6356	415.356	28.9673
-37.6347	422.522	28.9771
-37.6325	420.698	28.9868
-37.6326	410.115	28.9966
-37.6316	401.736	29.0063
-37.6304	404.525	29.0161
-37.6305	414.292	29.0259
-37.6293	420.944	29.0356
-37.6277	422.602	29.04541
-37.6277	414.612	29.0552
-37.6282	406.2074	29.0649
-37.6266	401.279	29.0747
-37.6254	406.606	29.0845
-37.6244	419.228	29.0942
-37.6238	422.904	29.104
-37.6225	419.382	29.11377
-37.6221	405.82	29.1235
-37.6207	401.621	29.1333
-37.6198	406.903	29.1431
-37.6194	413.875	29.1528
-37.6184	424.47	29.1626
-37.6178	421.138	29.1724
-37.6169	413.108	29.1821
-37.6165	404.775	29.1919
-37.6153	398.93	29.20166
-37.6149	413.003	29.2114
-37.6136	422.359	29.2212
-37.6126	424.312	29.231
-37.6119	415.471	29.2407
-37.6121	401.979	29.2505
-37.6113	403.7507	29.2603
-37.6098	406.943	29.27002
-37.609	417.189	29.2798
-37.6089	423.524	29.2896
-37.6071	420.091	29.2993
-37.607	409.853	29.3091
-37.60487	401.045	29.3188
-37.6045	402.143	29.3286
-37.6034	413.682	29.3384
-37.6041	423.399	29.3481
-37.6023	420.689	29.35791
-37.6015	410.522	29.3677
-37.6008	402.334	29.3774
-37.6009	403.931	29.3872
-37.5994	410.671	29.397
-37.5991	417.108	29.4067
-37.5972	421.997	29.4165
-37.5966	416.735	29.42627
-37.5974	405.294	29.436
-37.5949	402.567	29.4458
-37.5939	406.273	29.4556
-37.5939	416.805	29.4653
-37.5928	423.223	29.4751
-37.5928	417.189	29.4849
-37.59063	411.485	29.4946
-37.59	402.92	29.5044
-37.5897	403.088	29.51416
-37.58897	410.204	29.5239
-37.5885	417.275	29.5337
-37.5875	423.91	29.5435
-37.5857	413.497	29.5532
-37.5853	406.661	29.563
-37.585	401.703	29.5728
-37.5841	406.977	29.58252
-37.5822	419.15	29.5923
-37.5818	419.092	29.6021
-37.5805	419.667	29.6118
-37.5796	409.723	29.6216
-37.5794	402.896	29.6313
-37.5784	404.392	29.6411
-37.5795	409.594	29.6509
-37.5767	421.344	29.6606
-37.577	423.631	29.67041
-37.5758	413.076	29.6802
-37.5751	403.566	29.6899
-37.5739	401.545	29.6997
-37.5727	408.793	29.7095
-37.5729	417.681	29.7192
-37.5719	423.3187	29.729
-37.5707	416.956	29.73877
-37.571	408.234	29.7485
-37.56926	399.7413	29.7583
-37.5682	402.062	29.7681
-37.5669	413.2468	29.7778
-37.5668	423.975	29.7876
-37.5657	421.735	29.7974
-37.565	408.251	29.8071
-37.5631	400.244	29.8169
-37.5648	402.548	29.82666
-37.5623	408.788	29.8364
-37.5616	421.629	29.8462
-37.5597	421.894	29.856
-37.5595	415.845	29.8657
-37.5592	405.55	29.8755
-37.5595	396.531	29.8853
-37.5572	406.576	29.89502
-37.5576	418.249	29.9048
-37.557	422.749	29.9146
-37.5554	416.929	29.9243
-37.5544	405.265	29.9341
-37.5547	402.311	29.9438
-37.5526	403.076	29.9536
-37.5524	413.87	29.9634
-37.5511	420.018	29.9731
-37.5508	418.517	29.98291
-37.5489	414.101	29.9927
-37.5483	401.108	30.0024
-37.5476	401.188	30.0122
-37.5472	409.52	30.022
-37.5468	418.661	30.0317
-37.54549	420.884	30.0415
-37.5453	413.18	30.05127
-37.54401	406.184	30.061
-37.5425	402.506	30.0708
-37.5423	404.877	30.0806
-37.5415	410.594	30.0903
-37.5416	419.754	30.1001
-37.5396	418.765	30.1099
-37.5381	410.424	30.1196
-37.5369	401.026	30.1294
-37.5368	400.242	30.13916
-37.5365	410.671	30.1489
-37.5352	418.66	30.1587
-37.5355	417.463	30.1685
-37.5346	413.548	30.1782
-37.5336	405.3053	30.188
-37.5325	401.8848	30.1978
-37.5324	404.319	30.20752
-37.5303	412.392	30.2173
-37.5293	421.03	30.2271
-37.5285	417.5697	30.2368
-37.52776	409.525	30.2466
-37.5275	398.996	30.2563
-37.5271	400.2529	30.2661
-37.52541	410.907	30.2759
-37.5254	417.633	30.2856
-37.5248	421.059	30.29541
-37.5233	412.47	30.3052
-37.522	402.658	30.3149
-37.5221	399.757	30.3247
-37.521	403.9556	30.3345
-37.5194	418.498	30.3442
-37.5191	420.897	30.354
-37.5187	413.734	30.36377
-37.518	404.196	30.3735
-37.5166	397.426	30.3833
-37.517	402.44	30.3931
-37.5159	410.428	30.4028
-37.5145	419.83	30.4126
-37.5144	418.04	30.4224
-37.5134	410.477	30.4321
-37.51252	400.657	30.4419
-37.5119	396.46	30.45166
-37.5108	407.2955	30.4614
-37.50967	419.713	30.4712
-37.5096	422.062	30.481
-37.509	409.987	30.4907
-37.5068	400.834	30.5005
-37.5068	399.603	30.5103
-37.5065	404.756	30.52002
-37.5054	415.883	30.5298
-37.5036	417.579	30.5396
-37.5037	416.998	30.5493
-37.5027	407.8078	30.5591
-37.5015	396.517	30.5688
-37.5002	402.71	30.5786
-37.4999	411.137	30.5884
-37.4987	421.124	30.5981
-37.4985	417.532	30.60791
-37.4972	407.233	30.6177
-37.49715	401.604	30.6274
-37.4953	400.392	30.6372
-37.4942	407.749	30.647
-37.4938	416.3262	30.6567
-37.4933	417.75	30.6665
-37.493	416.099	30.67627
-37.4921	402.3389	30.686
-37.4922	398.82	30.6958
-37.4895	402.2421	30.7056
-37.4896	413.435	30.7153
-37.4888	420.439	30.7251
-37.4877	414.139	30.7349
-37.4875	408.005	30.7446
-37.4853	402.524	30.7544
-37.4854	400.9	30.76416
-37.4837	406.576	30.7739
-37.48436	414.137	30.7837
-37.4832	417.9545	30.7935
-37.48214	411.943	30.8032
-37.4813	403.253	30.813
-37.4798	397.388	30.8228
-37.4797	404.459	30.83252
-37.4797	413.533	30.8423
-37.4792	417.02	30.8521
-37.4767	414.073	30.8618
-37.476	405.191	30.8716
-37.4764	400.807	30.8813
-37.4737	397.68	30.8911
-37.4739	406.735	30.9009
-37.4732	416.907	30.9106
-37.4714	417.742	30.92041
-37.4713	410.879	30.9302
-37.4707	397.689	30.9399
-37.4699	395.133	30.9497
-37.47	405.387	30.9595
-37.4693	412.2529	30.9692
-37.4672	420.177	30.979
-37.4661	412.573	30.98877
-37.4661	402.798	30.9985
-37.4643	398.866	31.0083
-37.4647	398.121	31.0181
-37.4625	410.29	31.0278
-37.4631	419.777	31.0376
-37.46254	416.242	31.0474
-37.4604	407.5451	31.0571
-37.4609	395.964	31.0669
-37.4586	398.766	31.07666
-37.4589	405.517	31.0864
-37.4568	415.81	31.0962
-37.4564	417.943	31.106
-37.4557	411.415	31.1157
-37.4569	400.275	31.1255
-37.4538	393.158	31.1353
-37.4545	402.535	31.14502
-37.45417	413.741	31.1548
-37.4514	419.569	31.1646
-37.4514	412.261	31.1743
-37.4489	402.406	31.1841
-37.4509	395.462	31.1938
-37.449	398.571	31.2036
-37.4475	409.703	31.2134
-37.4467	416.785	31.2231
-37.4453	416.0954	31.23291
-37.44561	408.72	31.2427
-37.4449	397.917	31.2524
-37.4431	397.689	31.2622
-37.4431	402.764	31.272
-37.44202	416.148	31.2817
-37.4414	417.909	31.2915
-37.4405	408.567	31.30127
-37.44	401.467	31.311
-37.439	396.369	31.3208
-37.4378	400.6405	31.3306
-37.4375	406.97	31.3403
-37.4367	412.443	31.3501
-37.43494	414.578	31.3599
-37.4341	402.43	31.3696
-37.4345	396.197	31.3794
-37.433	394.97	31.38916
-37.433	403.4465	31.3989
-37.4318	414.391	31.4087
-37.4311	412.102	31.4185
-37.4303	405.8909	31.4282
-37.4287	398.708	31.438
-37.4285	394.031	31.4478
-37.4276	397.129	31.45752
-37.42712	404.998	31.4673
-37.4264	408.1062	31.4771
-37.4254	397.355	31.4868
-37.4224	-98.98748	31.4966
-37.4205	-16.18	31.5063
-37.4205	-50.9065	31.5161
-37.41951	-34.6963	31.5259
-37.4197	-36.5169	31.5356
-37.4188	-30.71866	31.54541
-37.4181	-41.1882	31.5552
-37.4177	-46.6718	31.5649
-37.4165	-51.5808	31.5747
-37.4168	-45.7861	31.5845
-37.4155	-34.0805	31.5942
-37.4143	-28.8585	31.604
-37.4144	-35.5138	31.61377
-37.4125	-47.3134	31.6235
-37.4132	-51.6076	31.6333
-37.4124	-44.1661	31.6431
-37.4111	-40.6002	31.6528
-37.411	-29.3203	31.6626
-37.4089	-35.10294	31.6724
-37.4081	-43.3268	31.6821
-37.40852	-48.3507	31.6919
-37.4071	-51.8464	31.70166
-37.4059	-40.3215	31.7114
-37.4046	-31.2571	31.7212
-37.4044	-31.205	31.731
-37.4031	-40.39502	31.7407
-37.4027	-50.22691	31.7505
-37.4022	-48.9516	31.7603
-37.40163	-43.3855	31.77002
-37.3997	-33.7331	31.7798
-37.3994	-31.5444	31.7896
-37.3988	-36.8558	31.7993
-37.3986	-43.4864	31.8091
-37.3967	-50.4033	31.8188
-37.3963	-48.2973	31.8286
-37.3957	-35.7171	31.8384
-37.395	-29.9483	31.8481
-37.39365	-32.7744	31.85791
-37.3933	-43.1757	31.8677
-37.3921	-51.1632	31.8774
-37.392	-47.1553	31.8872
-37.3915	-38.9491	31.897
-37.3898	-35.45063	31.9067
-37.38887	-30.4183	31.9165
-37.3883	-38.0064	31.92627
-37.3874	-48.5938	31.936
-37.387	-48.6179	31.9458
-37.3857	-46.3251	31.9556
-37.3846	-33.9174	31.9653
-37.384	-29.7068	31.9751
-37.3832	-37.4523	31.9849
-37.38269	-42.4567	31.9946
-37.3816	-48.4738	32.0044
-37.3812	-45.0755	32.01416
-37.3801	-39.3717	32.0239
-37.3797	-33.9461	32.0337
-37.3786	-31.1397	32.0435
-37.37801	-38.8377	32.0532
-37.3769	-47.066	32.063
-37.3761	-49.562	32.0728
-37.3758	-42.2556	32.08252
-37.374	-31.5846	32.0923
-37.3734	-33.269	32.1021
-37.3728	-35.5045	32.1118
-37.3726	-44.46006	32.1216
-37.3712	-48.5918	32.1313
-37.37	-46.8689	32.1411
-37.36853	-39.8702	32.1509
-37.3688	-31.4103	32.1606
-37.3684	-31.8965	32.17041
-37.3674	-41.7567	32.1802
-37.3667	-49.7048	32.1899
-37.3651	-49.8939	32.1997
-37.3637	-39.9642	32.2095
-37.364	-35.2054	32.2192
-37.3613	-29.9722	32.229
-37.3628	-38.0437	32.23877
-37.3614	-45.6574	32.2485
-37.3605	-51.0712	32.2583
-37.3604	-46.2838	32.2681
-37.359	-37.2035	32.2778
-37.3587	-30.5695	32.2876
-37.357	-33.049	32.2974
-37.3562	-47.0304	32.3071
-37.35429	-52.516	32.3169
-37.3558	-47.7857	32.32666
-37.354	-40.4705	32.3364
-37.3524	-30.9517	32.3462
-37.3519	-33.149	32.356
-37.3513	-40.1845	32.3657
-37.3501	-46.1809	32.3755
-37.35017	-53.8881	32.3853
-37.3497	-41.6584	32.39502
-37.3479	-33.3439	32.4048
-37.34763	-29.8328	32.4146
-37.3464	-36.7915	32.4243
-37.3466	-49.3323	32.4341
-37.34457	-49.361	32.4438
-37.3444	-45.9405	32.4536
-37.3435	-36.4608	32.4634
-37.3423	-31.9916	32.4731
-37.3419	-34.4	32.48291
-37.3419	-40.826	32.4927
-37.3397	-51.6262	32.5024
-37.3396	-49.4963	32.5122
-37.34	-41.77924	32.522
-37.3388	-32.4189	32.5317
-37.33762	-31.5594	32.5415
-37.3361	-41.3749	32.55127
-37.33572	-49.9712	32.561
-37.3338	-48.8796	32.5708
-37.3333	-44.0405	32.5806
-37.3321	-37.16888	32.5903
-37.3323	-31.8324	32.6001
-37.331	-35.1257	32.6099
-37.3308	-44.9211	32.6196
-37.3305	-50.6629	32.6294
-37.32896	-49.9857	32.63916
-37.3285	-38.633	32.6489
-37.328	-33.22876	32.6587
-37.3267	-35.7486	32.6685
-37.32513	-41.0573	32.6782
-37.325	-48.9275	32.688
-37.3244	-48.7804	32.6978
-37.32375	-44.6447	32.70752
-37.3228	-36.067	32.7173
-37.3224	-31.10095	32.7271
-37.3192	-35.303	32.7368
-37.32	-44.2212	32.7466
-37.3199	-50.7257	32.7563
-37.3187	-47.69577	32.7661
-37.3179	-36.149	32.7759
-37.3158	-33.8969	32.7856
-37.31638	-33.3057	32.79541
-37.3146	-42.4136	32.8052
-37.315	-49.5155	32.8149
-37.314	-49.10178	32.8247
-37.3126	-43.6487	32.8345
-37.3113	-33.733	32.8442
-37.3108	-30.7772	32.854
-37.3102	-38.7794	32.86377
-37.31	-48.4769	32.8735
-37.3082	-52.1713	32.8833
-37.3075	-45.3806	32.8931
-37.3068	-37.0336	32.9028
-37.3052	-32.1836	32.9126
-37.3055	-35.3802	32.9224
-37.3043	-44.1256	32.9321
-37.3036	-51.9394	32.9419
-37.3036	-50.8297	32.95166
-37.3025	-40.0712	32.9614
-37.3006	-30.7405	32.9712
-37.3007	-30.664	32.981
-37.30019	-43.5949	32.9907
-37.2992	-49.7448	33.0005
-37.2974	-49.8904	33.0103
-37.297	-43.9963	33.02002
-37.2966	-34.0574	33.0298
-37.295	-33.2716	33.0396
-37.2935	-37.8116	33.0493
-37.2938	-45.1252	33.0591
-37.2932	-53.4736	33.0688
-37.2919	-46.5518	33.0786
-37.2911	-37.65276	33.0884
-37.2911	-29.78521	33.0981
-37.2892	-34.6676	33.10791
-37.2894	-46.1354	33.1177
-37.289	-50.06	33.1274
-37.2866	-47.0893	33.1372
-37.2857	-40.6257	33.147
-37.2858	-33.5785	33.1567
-37.2841	-31.7656	33.1665
-37.2838	-38.1205	33.17627
-37.2841	-50.6197	33.186
-37.2835	-49.5533	33.1958
-37.2816	-44.2308	33.2056
-37.2815	-35.973	33.2153
-37.28	-30.32567	33.2251
-37.2792	-38.6912	33.2349
-37.2795	-46.5157	33.2446
-37.2769	-47.5356	33.2544
-37.2765	-45.4261	33.26416
-37.2762	-41.9804	33.2739
-37.2755	-33.9925	33.2837
-37.274	-33.4864	33.2935
-37.2739	-41.7805	33.3032
-37.2733	-49.4632	33.313
-37.2719	-51.5406	33.3228
-37.2718	-43.9292	33.33252
-37.2702	-34.93251	33.3423
-37.2705	-33.768	33.3521
-37.2684	-37.6902	33.3618
-37.2676	-45.2499	33.3716
-37.2669	-49.3543	33.3813
-37.2681	-47.47747	33.3911
-37.2657	-40.5734	33.4009
-37.2651	-31.2847	33.4106
-37.2635	-34.3853	33.42041
-37.2632	-40.9414	33.4302
-37.2615	-50.6211	33.4399
-37.2611	-49.6324	33.4497
-37.2603	-38.5724	33.4595
-37.25893	-35.5417	33.4692
-37.2595	-31.4084	33.479
-37.2586	-39.3597	33.48877
-37.2573	-47.2739	33.4985
-37.2566	-49.9362	33.5083
-37.2567	-48.4138	33.5181
-37.2536	-36.49926	33.5278
-37.2532	-29.3271	33.5376
-37.253	-34.361	33.5474
-37.25338	-44.4558	33.5571
-37.25222	-53.4296	33.5669
-37.251	-48.241	33.57666
-37.2499	-38.7665	33.5864
-37.2494	-32.9963	33.5962
-37.2489	-32.0275	33.606
-37.248	-39.6142	33.6157
-37.24654	-48.4626	33.6255
-37.2457	-51.2412	33.6353
-37.2456	-45.63	33.64502
-37.2452	-32.7426	33.6548
-37.2439	-29.6363	33.6646
-37.2422	-38.0897	33.6743
-37.2423	-48.9451	33.6841
-37.24041	-50.7652	33.6938
-37.2399	-46.0969	33.7036
-37.2407	-36.8021	33.7134
-37.2395	-31.766	33.7231
-37.2377	-34.9932	33.73291
-37.2378	-42.4097	33.7427
-37.2358	-52.5891	33.7524
-37.235	-46.9456	33.7622
-37.2344	-41.0094	33.772
-37.2334	-31.0676	33.7817
-37.2332	-32.0033	33.7915
-37.2316	-43.0315	33.80127
-37.2321	-48.3479	33.811
-37.2312	-50.0868	33.8208
-37.2287	-43.74279	33.8306
-37.2297	-36.1608	33.8403
-37.2267	-32.9961	33.8501
-37.2266	-34.8719	33.8599
-37.2265	-45.4988	33.8696
-37.2258	-49.6523	33.8794
-37.2249	-48.6139	33.88916
-37.2234	-39.569	33.8989
-37.2229	-31.0261	33.9087
-37.2216	-35.9447	33.9185
-37.2214	-42.7848	33.9282
-37.2207	-48.2965	33.938
-37.2204	-48.7231	33.9478
-37.2192	-44.5131	33.95752
-37.2167	-37.05	33.9673
-37.2181	-32.8026	33.9771
-37.217	-35.9301	33.9868
-37.2162	-45.2751	33.9966
-37.2147	-51.9637	34.0063
-37.21452	-46.0224	34.0161
-37.2135	-38.2078	34.0259
-37.21244	-33.0807	34.0356
-37.211	-33.7245	34.04541
-37.21146	-43.0632	34.0552
-37.2101	-48.0537	34.0649
-37.2085	-50.5399	34.0747
-37.2082	-42.5454	34.0845
-37.2076	-32.5231	34.0942
-37.2067	-31.7743	34.104
-37.2057	-36.9608	34.11377
-37.2049	-50.3977	34.1235
-37.20533	-51.9735	34.1333
-37.20359	-43.435	34.1431
-37.2025	-37.6675	34.1528
-37.201	-28.2009	34.1626
-37.2017	-36.9124	34.1724
-37.2	-44.5338	34.1821
-37.1995	-48.9498	34.1919
-37.19875	-51.4876	34.20166
-37.1992	-40.5825	34.2114