File: data/processed_data_files/tensile/0.254_solid_dimension_typeiv_090_r(3).dat
MTS793|BTW|ENU|1|2|.|/|:|1|0|0|A

Data Header:			0.254_solid_dimension_typeiv_090_r0			Time:	20.0173	s	4/14/2019 1:41:41 AM
Data Acquisition:	Timed
Station Name:	ft40.cfg
Test File Name:	monotonic_0.2540_typeiv_solid_090_dimension.tst
Displacement	Force	Running Time
mm	N	s
-40.0416	-126.1864	0.0224609
-40.0409	-117.699	0.0419922
-40.0417	-119.4463	0.0615234
-40.0398	-124.436	0.0810547
-40.0402	-119.741	0.100586
-40.0376	-116.799	0.120117
-40.0363	-119.839	0.139648
-40.0352	-118.3804	0.15918
-40.0319	-113.58	0.178711
-40.0321	-117.295	0.198242
-40.0312	-114.809	0.217773
-40.0286	-111.692	0.237305
-40.027	-112.914	0.256836
-40.0257	-114.414	0.276367
-40.0243	-105.569	0.295898
-40.0224	-105.448	0.31543
-40.0209	-108.996	0.334961
-40.0182	-108.575	0.354492
-40.0167	-103.6729	0.374023
-40.0156	-106.93	0.393555
-40.0144	-102.623	0.413086
-40.0113	-100.687	0.432617
-40.0108	-103.593	0.452148
-40.00946	-105.1912	0.47168
-40.00729	-94.201	0.491211
-40.0059	-101.706	0.510742
-40.0044	-102.393	0.530273
-40.0024	-93.3706	0.549805
-40.0013	-95.49044	0.569336
-39.9994	-97.544	0.588867
-39.9975	-91.7902	0.608398
-39.9957	-92.1627	0.62793
-39.9942	-94.2861	0.647461
-39.9917	-86.1045	0.666992
-39.9914	-88.0521	0.686523
-39.9894	-92.2273	0.706055
-39.9876	-86.92	0.725586
-39.9855	-82.0362	0.745117
-39.9837	-88.4204	0.764648
-39.9817	-84.4085	0.78418
-39.9828	-81.669	0.803711
-39.9806	-80.3647	0.823242
-39.9778	-81.34803	0.842773
-39.9757	-76.7559	0.862305
-39.9744	-78.0626	0.881836
-39.9733	-77.5308	0.901367
-39.9707	-75.5373	0.920898
-39.9702	-73.3983	0.94043
-39.969	-79.4391	0.959961
-39.9655	-70.902	0.979492
-39.9649	-69.6972	0.999023
-39.9622	-73.0766	1.01855
-39.9629	-73.5111	1.03809
-39.9597	-65.1926	1.05762
-39.959	-71.3445	1.07715
-39.9564	-66.9454	1.09668
-39.9556	-63.91164	1.11621
-39.9521	-66.2495	1.13574
-39.9529	-68.8881	1.15527
-39.9502	-58.3578	1.1748
-39.9485	-61.6389	1.19434
-39.9473	-66.63501	1.21387
-39.9451	-56.8895	1.2334
-39.9439	-58.223	1.25293
-39.9431	-62.9033	1.27246
-39.9403	-56.1867	1.29199
-39.9383	-54.6724	1.31152
-39.9357	-58.7903	1.33105
-39.9359	-53.2204	1.35059
-39.9341	-53.36314	1.37012
-39.9326	-55.461	1.38965
-39.93082	-52.7316	1.40918
-39.9287	-46.2474	1.42871
-39.9272	-51.13295	1.44824
-39.9252	-49.1304	1.46777
-39.9236	-47.5727	1.4873
-39.9235	-44.5891	1.50684
-39.9219	-49.9696	1.52637
-39.9196	-41.3239	1.5459
-39.9183	-42.8656	1.56543
-39.9152	-43.4025	1.58496
-39.9151	-42.9293	1.60449
-39.9125	-35.0979	1.62402
-39.9122	-43.1547	1.64355
-39.9094	-38.6668	1.66309
-39.9094	-33.4709	1.68262
-39.9062	-37.271	1.70215
-39.9036	-39.6211	1.72168
-39.9032	-29.273	1.74121
-39.901	-35.0646	1.76074
-39.9012	-34.2094	1.78027
-39.8978	-28.3837	1.7998
-39.8963	-31.8167	1.81934
-39.8948	-34.6142	1.83887
-39.8932	-24.3246	1.8584
-39.8905	-26.6729	1.87793
-39.8894	-30.98333	1.89746
-39.8873	-23.5924	1.91699
-39.8866	-22.8632	1.93652
-39.8839	-26.62986	1.95605
-39.88274	-23.38	1.97559
-39.8823	-18.7324	1.99512
-39.8807	-23.0142	2.01465
-39.87904	-18.3509	2.03418
-39.8766	-17.72559	2.05371
-39.8758	-16.8712	2.07324
-39.874	-20.8473	2.09277
-39.873	-12.70626	2.1123
-39.8706	-14.3885	2.13184
-39.8694	-17.0528	2.15137
-39.8676	-13.4767	2.1709
-39.8657	-7.53248	2.19043
-39.8628	-15.0664	2.20996
-39.8623	-8.25444	2.22949
-39.8605	-6.87936	2.24902
-39.8597	-9.12998	2.26855
-39.8579	-9.13805	2.28809
-39.8566	-0.604675	2.30762
-39.854	-7.98109	2.32715
-39.8524	-4.27724	2.34668
-39.8501	1.9983	2.36621
-39.8497	-2.30583	2.38574
-39.8475	-5.57542	2.40527
-39.8459	2.7447	2.4248
-39.8448	2.49367	2.44434
-39.8422	0.00467918	2.46387
-39.84045	7.06498	2.4834
-39.8394	2.96785	2.50293
-39.8381	0.602858	2.52246
-39.8365	8.67269	2.54199
-39.8349	11.8766	2.56152
-39.8324	3.96801	2.58105
-39.8318	11.34916	2.60059
-39.8299	12.48	2.62012
-39.8292	9.83856	2.63965
-39.8258	10.4086	2.65918
-39.82394	16.9948	2.67871
-39.8236	14.4733	2.69824
-39.8218	15.7817	2.71777
-39.8202	18.5059	2.7373
-39.819	18.6053	2.75684
-39.816	14.5733	2.77637
-39.8154	24.7781	2.7959
-39.814	23.1699	2.81543
-39.8113	21.05748	2.83496
-39.8108	20.6011	2.85449
-39.8093	28.0282	2.87402
-39.8065	21.9532	2.89355
-39.8064	26.3222	2.91309
-39.8035	28.9689	2.93262
-39.80275	26.6511	2.95215
-39.80064	26.7684	2.97168
-39.7998	35.5922	2.99121
-39.7966	30.0969	3.01074
-39.7959	27.2588	3.03027
-39.7944	37.9107	3.0498
-39.791	34.0648	3.06934
-39.7903	30.9553	3.08887
-39.789	37.263	3.1084
-39.7874	38.3123	3.12793
-39.7855	33.6405	3.14746
-39.7845	42.05547	3.16699
-39.7832	38.495	3.18652
-39.7818	37.4569	3.20605
-39.7791	43.84383	3.22559
-39.77837	45.4159	3.24512
-39.776	41.866	3.26465
-39.7742	45.5237	3.28418
-39.7728	46.2357	3.30371
-39.7708	48.0847	3.32324
-39.76981	44.4719	3.34277
-39.7683	51.3702	3.3623
-39.7661	50.4634	3.38184
-39.7647	49.68465	3.40137
-39.7632	51.7246	3.4209
-39.7625	55.3585	3.44043
-39.7604	48.149	3.45996
-39.7573	58.1778	3.47949
-39.7563	59.86293	3.49902
-39.7553	53.2701	3.51855
-39.754	54.6937	3.53809
-39.7522	63.7147	3.55762
-39.7504	57.9117	3.57715
-39.74929	59.5087	3.59668
-39.7473	65.9012	3.61621
-39.745	60.0949	3.63574
-39.7439	60.16	3.65527
-39.7422	68.2197	3.6748
-39.7405	66.0739	3.69434
-39.7389	61.6962	3.71387
-39.7371	72.6524	3.7334
-39.73484	70.3717	3.75293
-39.7345	67.2011	3.77246
-39.7324	70.1128	3.79199
-39.7307	74.4867	3.81152
-39.7285	68.6866	3.83105
-39.728	75.8795	3.85059
-39.7256	75.108	3.87012
-39.72366	74.1668	3.88965
-39.72213	75.4585	3.90918
-39.7223	82.0082	3.92871
-39.7196	78.3136	3.94824
-39.7176	77.6297	3.96777
-39.7163	81.2263	3.9873
-39.7144	85.12249	4.00684
-39.7133	79.81971	4.02637
-39.7109	85.9311	4.0459
-39.7095	85.7151	4.06543
-39.7079	83.6108	4.08496
-39.7054	85.6669	4.10449
-39.7035	90.15863	4.12402
-39.7033	83.4395	4.14355
-39.7025	91.3769	4.16309
-39.7004	95.122	4.18262
-39.6983	89.91983	4.20215
-39.6971	90.0648	4.22168
-39.69492	99.0403	4.24121
-39.6937	94.458	4.26074
-39.6913	94.0297	4.28027
-39.6897	100.146	4.2998
-39.6886	97.9999	4.31934
-39.6866	95.2032	4.33887
-39.6838	102.868	4.3584
-39.6841	102.337	4.37793
-39.6819	96.9206	4.39746
-39.6802	105.937	4.41699
-39.6788	103.921	4.43652
-39.6762	102.119	4.45605
-39.675	104.55	4.47559
-39.674	110.838	4.49512
-39.67205	106.553	4.51465
-39.6701	110.516	4.53418
-39.669	110.165	4.55371
-39.6683	111.532	4.57324
-39.6661	110.224	4.59277
-39.6645	118.898	4.6123
-39.6632	115.608	4.63184
-39.6601	112.995	4.65137
-39.6593	115.333	4.6709
-39.6577	121.173	4.69043
-39.6558	114.237	4.70996
-39.65411	119.705	4.72949
-39.6524	122.765	4.74902
-39.6501	120.098	4.76855
-39.6493	119.831	4.78809
-39.6477	126.4976	4.80762
-39.6454	121.367	4.82715
-39.6451	122.685	4.84668
-39.6437	131.878	4.86621
-39.6422	124.357	4.88574
-39.6386	123.339	4.90527
-39.63681	132.114	4.9248
-39.6365	130.948	4.94434
-39.635	127.549	4.96387
-39.6319	135.242	4.9834
-39.6311	132.674	5.00293
-39.6299	131.8474	5.02246
-39.628	135.908	5.04199
-39.6248	139.546	5.06152
-39.6249	134.5006	5.08105
-39.6238	139.529	5.10059
-39.6227	139.6881	5.12012
-39.6198	138.838	5.13965
-39.6183	138.206	5.15918
-39.6164	145.157	5.17871
-39.6143	142.986	5.19824
-39.6129	143.012	5.21777
-39.6114	144.958	5.2373
-39.6097	147.168	5.25684
-39.6091	143.993	5.27637
-39.60828	151.181	5.2959
-39.6043	150.13	5.31543
-39.6041	145.977	5.33496
-39.6025	149.897	5.35449
-39.6011	154.7896	5.37402
-39.599	148.928	5.39355
-39.5989	152.928	5.41309
-39.5959	157.874	5.43262
-39.5937	151.747	5.45215
-39.5926	152.841	5.47168
-39.5913	159.921	5.49121
-39.5887	156.656	5.51074
-39.5876	156.168	5.53027
-39.5862	164.616	5.5498
-39.5847	158.423	5.56934
-39.5825	158.001	5.58887
-39.58176	163.557	5.6084
-39.579	165.33	5.62793
-39.5778	161.322	5.64746
-39.5766	168.855	5.66699
-39.5731	165.9207	5.68652
-39.5722	165.089	5.70605
-39.5717	166.81	5.72559
-39.5699	172.528	5.74512
-39.5672	168.295	5.76465
-39.5663	171.154	5.78418
-39.56432	173.566	5.80371
-39.5638	174.959	5.82324
-39.5609	170.568	5.84277
-39.5604	177.273	5.8623
-39.5584	178.624	5.88184
-39.5563	177.311	5.90137
-39.5554	176.812	5.9209
-39.5533	182.193	5.94043
-39.5519	177.159	5.95996
-39.5503	182.0802	5.97949
-39.5489	184.2731	5.99902
-39.5458	179.384	6.01855
-39.5451	182.316	6.03809
-39.5439	189.369	6.05762
-39.5421	184.196	6.07715
-39.54118	184.771	6.09668
-39.5387	193.857	6.11621
-39.5367	186.85	6.13574
-39.5351	186.279	6.15527
-39.5352	194.821	6.1748
-39.5317	191.858	6.19434
-39.5314	189.429	6.21387
-39.5293	196.906	6.2334
-39.5275	193.184	6.25293
-39.5256	192.827	6.27246
-39.5249	195.225	6.29199
-39.5222	202.433	6.31152
-39.5208	197.312	6.33105
-39.5195	200.011	6.35059
-39.5169	200.083	6.37012
-39.516	200.03	6.38965
-39.51453	201.214	6.40918
-39.512	207.228	6.42871
-39.5108	202.591	6.44824
-39.5096	204.236	6.46777
-39.5077	206.325	6.4873
-39.5059	209.583	6.50684
-39.50507	202.783	6.52637
-39.5025	210.691	6.5459
-39.5022	211.713	6.56543
-39.5001	208.809	6.58496
-39.4982	210.551	6.60449
-39.496	215.117	6.62402
-39.4954	209.623	6.64355
-39.493	214.1	6.66309
-39.4926	220.532	6.68262
-39.4906	213.232	6.70215
-39.4878	215.671	6.72168
-39.48653	222.577	6.74121
-39.4858	218.304	6.76074
-39.4834	216.616	6.78027
-39.48196	223.155	6.7998
-39.4809	219.362	6.81934
-39.4786	220.557	6.83887
-39.47681	224.097	6.8584
-39.4753	227.103	6.87793
-39.4751	221.6987	6.89746
-39.4733	230.055	6.91699
-39.4701	229.519	6.93652
-39.4678	226.776	6.95605
-39.4672	226.9648	6.97559
-39.4664	234.046	6.99512
-39.4635	231.047	7.01465
-39.4619	232.553	7.03418
-39.4613	232.738	7.05371
-39.45879	235.461	7.07324
-39.4576	232.623	7.09277
-39.4562	239.533	7.1123
-39.4542	237.672	7.13184
-39.4529	234.123	7.15137
-39.4511	238.652	7.1709
-39.4504	242.427	7.19043
-39.4473	236.993	7.20996
-39.4463	242.458	7.22949
-39.4449	245.951	7.24902
-39.4433	240.735	7.26855
-39.441	242.355	7.28809
-39.4377	247.694	7.30762
-39.4378	242.753	7.32715
-39.4374	244.355	7.34668
-39.435	254.391	7.36621
-39.4326	244.797	7.38574
-39.4309	246.616	7.40527
-39.4298	253.7133	7.4248
-39.4282	252.601	7.44434
-39.4276	247.778	7.46387
-39.425	257.421	7.4834
-39.42234	254.427	7.50293
-39.42104	254.217	7.52246
-39.4207	255.348	7.54199
-39.4183	260.236	7.56152
-39.4177	257.214	7.58105
-39.415	260.212	7.60059
-39.4137	261.606	7.62012
-39.4108	261.2135	7.63965
-39.4101	259.539	7.65918
-39.4098	266.659	7.67871
-39.4078	264.318	7.69824
-39.4051	262.9071	7.71777
-39.4043	266.018	7.7373
-39.4026	268.139	7.75684
-39.4007	265.187	7.77637
-39.3997	272.113	7.7959
-39.3972	272.362	7.81543
-39.39547	266.5928	7.83496
-39.3949	270.616	7.85449
-39.3921	276.9353	7.87402
-39.3903	268.257	7.89355
-39.3895	274.166	7.91309
-39.3876	280.246	7.93262
-39.386	272.98	7.95215
-39.3853	275.558	7.97168
-39.3834	280.846	7.99121
-39.3809	277.379	8.01074
-39.3793	276.565	8.03027
-39.3774	284.194	8.0498
-39.3762	279.4458	8.06934
-39.3752	279.504	8.08887
-39.3724	284.266	8.1084
-39.3707	285.844	8.12793
-39.3693	281.841	8.14746
-39.3676	288.285	8.16699
-39.3671	288.373	8.18652
-39.3657	288.192	8.20605
-39.3635	288.151	8.22559
-39.36026	292.761	8.24512
-39.3596	288.888	8.26465
-39.3594	291.367	8.28418
-39.3557	294.546	8.30371
-39.3543	292.412	8.32324
-39.3539	289.376	8.34277
-39.3516	299.025	8.3623
-39.3507	298.526	8.38184
-39.3489	294.663	8.40137
-39.3459	297.735	8.4209
-39.346	299.264	8.44043
-39.3435	296.244	8.45996
-39.3431	301.728	8.47949
-39.3389	302.79	8.49902
-39.3392	296.255	8.51855
-39.3379	303.177	8.53809
-39.3358	308.373	8.55762
-39.3342	302.788	8.57715
-39.3326	303.886	8.59668
-39.3308	312.291	8.61621
-39.3287	303.128	8.63574
-39.3278	306.974	8.65527
-39.3256	310.127	8.6748
-39.3239	310.414	8.69434
-39.3224	308.664	8.71387
-39.3213	316.523	8.7334
-39.3194	310.967	8.75293
-39.3174	311.977	8.77246
-39.3156	313.264	8.79199
-39.3152	317.827	8.81152
-39.3124	313.434	8.83105
-39.3108	315.361	8.85059
-39.3098	318.889	8.87012
-39.3075	318.243	8.88965
-39.3065	316.8132	8.90918
-39.30407	322.378	8.92871
-39.3021	319.364	8.94824
-39.30106	320.916	8.96777
-39.299	323.441	8.9873
-39.2985	324.388	9.00684
-39.2967	319.778	9.02637
-39.2954	327.463	9.0459
-39.2928	329.637	9.06543
-39.2909	322.474	9.08496
-39.2879	327.54	9.10449
-39.2887	331.209	9.12402
-39.2865	326.411	9.14355
-39.2847	330.187	9.16309
-39.2842	335.375	9.18262
-39.2817	326.354	9.20215
-39.2797	330.907	9.22168
-39.279	337.7468	9.24121
-39.27536	333.932	9.26074
-39.2759	331.123	9.28027
-39.2745	340.986	9.2998
-39.2721	334.523	9.31934
-39.2702	335.226	9.33887
-39.26807	339.24	9.3584
-39.2662	341.925	9.37793
-39.2648	338.501	9.39746
-39.2652	344.381	9.41699
-39.26236	341.39	9.43652
-39.26046	341.789	9.45605
-39.2587	341.076	9.47559
-39.2578	349.7796	9.49512
-39.25581	344.014	9.51465
-39.2535	344.5856	9.53418
-39.252	347.4361	9.55371
-39.2515	348.994	9.57324
-39.2493	347.651	9.59277
-39.2468	350.949	9.6123
-39.2467	352.29	9.63184
-39.2444	347.585	9.65137
-39.2438	352.845	9.6709
-39.2413	354.756	9.69043
-39.24	348.612	9.70996
-39.23819	354.028	9.72949
-39.2365	359.326	9.74902
-39.2346	351.301	9.76855
-39.23349	357.058	9.78809
-39.2321	358.947	9.80762
-39.22963	356.938	9.82715
-39.2278	358.003	9.84668
-39.227	363.591	9.86621
-39.2245	357.243	9.88574
-39.22345	359.8002	9.90527
-39.2213	364.314	9.9248
-39.2198	363.83	9.94434
-39.2179	361.59	9.96387
-39.2168	368.087	9.9834
-39.2157	364.461	10.00293
-39.2141	364.477	10.0225
-39.2109	367.853	10.042
-39.2107	370.216	10.0615
-39.2095	366.744	10.0811
-39.2081	370.743	10.1006
-39.2067	370.054	10.1201
-39.203	369.1723	10.1396
-39.2026	369.254	10.15918
-39.2006	376.7431	10.1787
-39.1991	372.5903	10.1982
-39.1977	369.778	10.2178
-39.19545	375.736	10.2373
-39.1937	376.0853	10.2568
-39.1924	372.549	10.2764
-39.1908	377.92	10.2959
-39.1892	380.644	10.31543
-39.1868	373.96	10.335
-39.1857	381.003	10.3545
-39.1838	383.2999	10.374
-39.1812	376.771	10.3936
-39.18084	381.499	10.4131
-39.1791	388.472	10.4326
-39.178	379.401	10.4521
-39.1764	384.425	10.47168
-39.1744	387.508	10.4912
-39.1725	386.91	10.5107
-39.1707	385.744	10.5303
-39.1693	391.943	10.5498
-39.168	385.45	10.5693
-39.16642	387.417	10.5889
-39.165	392.649	10.6084
-39.1611	393.823	10.62793
-39.1606	388.253	10.6475
-39.1591	394.6936	10.667
-39.1596	392.905	10.6865
-39.1562	392.859	10.7061
-39.1544	393.756	10.7256
-39.1528	398.266	10.7451
-39.1519	393.173	10.7646
-39.1507	396.531	10.78418
-39.1485	399.9	10.8037
-39.146	396.759	10.8232
-39.1447	396.113	10.8428
-39.1428	402.46	10.8623
-39.1417	401.086	10.8818
-39.1401	395.419	10.9014
-39.139	403.45	10.9209
-39.1374	402.42	10.94043
-39.1353	399.883	10.96
-39.13382	403.925	10.9795
-39.1326	407.2782	10.999
-39.1307	399.337	11.0186
-39.1281	406.136	11.0381
-39.1266	408.882	11.0576
-39.1245	402.678	11.0771
-39.1245	406.715	11.09668
-39.122	414.967	11.1162
-39.1206	405.967	11.1357
-39.1193	406.197	11.1553
-39.1179	411.2146	11.1748
-39.117	410.871	11.1943
-39.11375	407.877	11.2139
-39.1133	415.041	11.2334
-39.1116	410.265	11.25293
-39.1095	410.544	11.2725
-39.1081	415.785	11.292
-39.1063	416.86	11.3115
-39.1034	411.9765	11.3311
-39.1024	414.983	11.3506
-39.1013	416.786	11.3701
-39.101	415.533	11.3896
-39.0978	416.442	11.40918
-39.0967	419.131	11.4287
-39.0943	418.223	11.4482
-39.0925	417.201	11.4678
-39.0915	421.295	11.4873
-39.0901	419.7356	11.5068
-39.0882	417.877	11.5264
-39.0861	422.847	11.5459
-39.0845	425.2594	11.56543
-39.0828	418.8313	11.585
-39.0812	426.009	11.6045
-39.0809	427.777	11.624
-39.0777	422.036	11.6436
-39.0762	425.398	11.6631
-39.0752	429.52	11.6826
-39.0733	422.12	11.7021
-39.0721	428.587	11.72168
-39.0703	430.3483	11.7412
-39.0684	428.574	11.7607
-39.06749	427.601	11.7803
-39.066	434.855	11.7998
-39.06424	428.814	11.8193
-39.0619	428.402	11.8389
-39.0599	431.64	11.8584
-39.0591	433.05	11.87793
-39.0571	431.407	11.8975
-39.0558	434.839	11.917
-39.0531	433.657	11.9365
-39.052	431.59	11.9561
-39.05	435.263	11.9756
-39.0484	437.459	11.9951
-39.04734	433.0361	12.0146
-39.0464	433.451	12.03418
-39.0436	440.11	12.0537
-39.0419	435.9299	12.0732
-39.04044	433.892	12.0928
-39.0389	441.1254	12.1123
-39.0383	440.991	12.1318
-39.0363	434.297	12.1514
-39.0341	443.479	12.1709
-39.032	440.1709	12.19043
-39.0301	438.633	12.21
-39.0294	442.624	12.2295
-39.0268	446.443	12.249
-39.0261	434.783	12.2686
-39.0244	443.011	12.2881
-39.023	444.601	12.3076
-39.0224	441.854	12.3271
-39.0215	442.781	12.34668
-39.0178	448.641	12.3662
-39.0173	440.853	12.3857
-39.0144	446.915	12.4053
-39.0123	447.7146	12.4248
-39.012	446.403	12.4443
-39.0106	443.337	12.4639
-39.0082	450.6727	12.4834
-39.0073	446.035	12.50293
-39.0049	445.019	12.5225
-39.0038	448.496	12.542
-39.0024	451.316	12.5615
-39	448.376	12.5811
-38.9988	449.17	12.6006
-38.997	451.961	12.6201
-38.9955	448.365	12.6396
-38.9925	450.441	12.65918
-38.9921	453.675	12.6787
-38.9903	450.838	12.6982
-38.9883	447.716	12.7178
-38.9865	455.894	12.7373
-38.9854	452.098	12.7568
-38.9845	449.681	12.7764
-38.9821	454.8815	12.7959
-38.9803	456.676	12.81543
-38.97974	447.872	12.835
-38.9782	456.389	12.8545
-38.97588	454.902	12.874
-38.9739	452.494	12.8936
-38.9733	455.112	12.9131
-38.9709	460.778	12.9326
-38.9697	450.1026	12.9521
-38.9676	456.243	12.97168
-38.9658	458.689	12.9912
-38.9632	455.279	13.0107
-38.9634	455.562	13.0303
-38.9599	459.155	13.0498
-38.959	454.215	13.0693
-38.9587	455.995	13.0889
-38.95602	460.021	13.1084
-38.9547	458.751	13.12793
-38.9528	455.881	13.1475
-38.9516	459.666	13.167
-38.9501	460.318	13.1865
-38.9479	455.022	13.2061
-38.946	458.64	13.2256
-38.9446	460.906	13.2451
-38.9425	459.637	13.2646
-38.9428	455.367	13.28418
-38.9399	463.279	13.3037
-38.9383	457.0119	13.3232
-38.93618	457.985	13.3428
-38.9348	463.044	13.3623
-38.9329	460.098	13.3818
-38.9318	455.573	13.4014
-38.9305	464.177	13.4209
-38.9286	461.487	13.44043
-38.9274	458.836	13.46
-38.9239	460.802	13.4795
-38.924	463.444	13.499
-38.9225	454.905	13.5186
-38.9202	462.706	13.5381
-38.9184	464.414	13.5576
-38.9166	457.805	13.5771
-38.9162	460.764	13.59668
-38.9139	466.2933	13.6162
-38.9132	457.148	13.6357
-38.9108	460.126	13.6553
-38.9089	464.463	13.6748
-38.9079	461.103	13.6943
-38.90538	459.15	13.7139
-38.9047	464.279	13.7334
-38.9019	460.5773	13.75293
-38.9017	459.285	13.7725
-38.8987	463.346	13.792
-38.8966	463.521	13.8115
-38.89587	458.997	13.8311
-38.8952	462.876	13.8506
-38.8936	466.71	13.8701
-38.89072	459.964	13.8896
-38.889	461.042	13.90918
-38.887	465.569	13.9287
-38.8871	463.021	13.9482
-38.8855	457.303	13.9678
-38.8822	467.555	13.9873
-38.8809	462.369	14.0068
-38.8802	460.434	14.0264
-38.8783	466.93	14.0459
-38.8766	466.301	14.06543
-38.8762	456.13	14.085
-38.8733	464.941	14.1045
-38.8722	463.425	14.124
-38.8698	460.2757	14.1436
-38.8677	464.524	14.1631
-38.8657	467.368	14.1826
-38.864	459.484	14.2021
-38.8636	464.236	14.22168
-38.862	464.8844	14.2412
-38.8596	460.7395	14.2607
-38.8582	463.468	14.2803
-38.85783	467.913	14.2998
-38.8545	461.171	14.3193
-38.8538	459.262	14.3389
-38.8515	466.479	14.3584
-38.8511	464.9212	14.37793
-38.8487	461.902	14.3975
-38.84708	462.613	14.417
-38.8454	464.364	14.4365
-38.84428	458.999	14.4561
-38.8427	463.371	14.4756
-38.8405	464.646	14.4951
-38.8398	461.818	14.5146
-38.83812	458.142	14.53418
-38.8361	468.1315	14.5537
-38.8345	460.437	14.5732
-38.833	459.289	14.5928
-38.8314	466.133	14.6123
-38.8301	463.202	14.6318
-38.82795	458.082	14.6514
-38.826	465.628	14.6709
-38.8253	462.4332	14.69043
-38.823	460.134	14.71
-38.8204	464.612	14.7295
-38.8195	464.627	14.749
-38.8191	455.1839	14.7686
-38.8172	463.073	14.7881
-38.8149	465.342	14.8076
-38.8122	458.6705	14.8271
-38.812	460.668	14.84668
-38.8095	465.371	14.8662
-38.8091	459.415	14.8857
-38.8065	459.78	14.9053
-38.8043	463.824	14.9248
-38.8031	461.054	14.9443
-38.802	458.138	14.9639
-38.7994	463.5	14.9834
-38.7979	460.884	15.00293
-38.7976	456.908	15.0225
-38.79575	461.619	15.042
-38.7928	461.105	15.0615
-38.7915	459.186	15.0811
-38.7893	456.7041	15.1006
-38.7883	463.425	15.1201
-38.7872	457.484	15.1396
-38.7859	459.139	15.15918
-38.784	464.096	15.1787
-38.7815	458.833	15.1982
-38.7801	453.716	15.2178
-38.77951	462.9639	15.2373
-38.778	457.334	15.2568
-38.77552	456.022	15.2764
-38.7741	461.9075	15.2959
-38.7728	461.492	15.31543
-38.771	452.293	15.335
-38.7697	458.979	15.3545
-38.7676	460.453	15.374
-38.7658	455.1048	15.3936
-38.7637	459.03	15.4131
-38.7619	461.755	15.4326
-38.7609	452.547	15.4521
-38.7592	456.512	15.47168
-38.7578	461.396	15.4912
-38.7556	454.509	15.5107
-38.75383	456.966	15.5303
-38.7528	460.7016	15.5498
-38.7518	456.829	15.5693
-38.74929	454.883	15.5889
-38.7477	458.324	15.6084
-38.7463	456.355	15.62793
-38.745	455.228	15.6475
-38.7422	457.083	15.667
-38.7407	460.622	15.6865
-38.7396	450.311	15.7061
-38.7394	455.368	15.7256
-38.7361	458.315	15.7451
-38.7348	454.363	15.7646
-38.73341	450.795	15.78418
-38.7314	459.9	15.8037
-38.73	452.936	15.8232
-38.7282	454.047	15.8428
-38.7271	459.001	15.8623
-38.7245	455.74	15.8818
-38.7247	448.19	15.9014
-38.72131	458.972	15.9209
-38.7201	455.597	15.94043
-38.7187	449.801	15.96
-38.717	456.036	15.9795
-38.715	457.2681	15.999
-38.7145	447.685	16.0186
-38.7117	454.558	16.0381
-38.7119	456.47	16.0576
-38.7088	450.6153	16.0771
-38.7085	452.536	16.09668
-38.7062	456.35	16.1162
-38.7044	449.016	16.1357
-38.7019	450.9837	16.1553
-38.7007	456.786	16.1748
-38.6991	451.856	16.1943
-38.6985	449.957	16.2139
-38.6974	452.8764	16.2334
-38.69453	455.2088	16.25293
-38.6929	450.354	16.2725
-38.6903	453.086	16.292
-38.6897	453.341	16.3115
-38.6878	451.832	16.3311
-38.6853	448.613	16.3506
-38.6845	455.632	16.3701
-38.6826	448.305	16.3896
-38.6812	451.023	16.40918
-38.6797	455.97	16.4287
-38.6787	452.23	16.4482
-38.6762	447.075	16.4678
-38.6751	455.793	16.4873
-38.6723	451.358	16.5068
-38.6719	449.689	16.5264
-38.67	454.349	16.5459
-38.6678	452.363	16.56543
-38.6668	443.7861	16.585
-38.6654	454.004	16.6045
-38.6634	452.838	16.624
-38.6618	448.279	16.6436
-38.6601	452.326	16.6631
-38.6588	454.057	16.6826
-38.6566	445.376	16.7021
-38.6558	449.709	16.72168
-38.6544	453.394	16.7412
-38.6526	449.071	16.7607
-38.6505	450.189	16.7803
-38.6482	451.896	16.7998
-38.6476	449.316	16.8193
-38.6453	446.608	16.8389
-38.6423	452.836	16.8584
-38.6421	450.304	16.87793
-38.6403	446.67	16.8975
-38.63866	446.724	16.917
-38.63792	452.727	16.9365
-38.6357	445.436	16.9561
-38.6344	450.604	16.9756
-38.632	452.342	16.9951
-38.6311	447.213	17.0146
-38.6283	445.771	17.03418
-38.6274	454.783	17.0537
-38.626	445.776	17.0732
-38.6242	445.207	17.0928
-38.6236	453.164	17.1123
-38.6211	451.107	17.1318
-38.6196	443.025	17.1514
-38.61734	451.89	17.1709
-38.6161	449.353	17.19043
-38.6145	445.26	17.21
-38.6129	450.914	17.2295
-38.6111	449.536	17.249
-38.6098	442.928	17.2686
-38.60833	450.092	17.2881
-38.6071	449.986	17.3076
-38.6043	444.7691	17.3271
-38.60339	447.741	17.34668
-38.6018	451.753	17.3662
-38.5986	447.331	17.3857
-38.59874	444.683	17.4053
-38.5969	451.568	17.4248
-38.5951	447.852	17.4443
-38.5935	446.335	17.4639
-38.5928	446.855	17.4834
-38.5892	448.639	17.50293
-38.5884	442.814	17.5225
-38.588	448.597	17.542
-38.5853	450.026	17.5615
-38.5836	444.357	17.5811
-38.5829	443.467	17.6006
-38.5802	453.153	17.6201
-38.5796	444.6915	17.6396
-38.5781	445.211	17.65918
-38.5748	449.82	17.6787
-38.5734	446.899	17.6982
-38.5734	442.538	17.7178
-38.5708	452.268	17.7373
-38.5695	446.072	17.7568
-38.56842	444.322	17.7764
-38.5653	451.013	17.7959
-38.5642	449.668	17.81543
-38.5622	439.726	17.835
-38.5606	448.353	17.8545
-38.5596	449.371	17.874
-38.5589	443.156	17.8936
-38.55603	447.689	17.9131
-38.5545	446.851	17.9326
-38.5533	443.578	17.9521
-38.5516	445.496	17.97168
-38.5495	450.172	17.9912
-38.5484	444.3801	18.0107
-38.5467	444.408	18.0303
-38.5444	448.594	18.0498
-38.543	447.807	18.0693
-38.542	440.715	18.0889
-38.5389	447.028	18.1084
-38.5382	447.4801	18.12793
-38.5357	446.072	18.1475
-38.5349	444.941	18.167
-38.5328	448.161	18.1865
-38.5304	441.517	18.2061
-38.5288	446.521	18.2256
-38.5288	450.4783	18.2451
-38.5262	444.029	18.2646
-38.5252	439.947	18.28418
-38.5239	450.117	18.3037
-38.5208	444.406	18.3232
-38.51825	442.536	18.3428
-38.5188	448.303	18.3623
-38.5167	445.694	18.3818
-38.5145	441.1149	18.4014
-38.514	450.377	18.4209
-38.5118	446.3259	18.44043
-38.5103	441.103	18.46
-38.50811	448.012	18.4795
-38.5072	447.766	18.499
-38.5066	439.742	18.5186
-38.5043	444.72	18.5381
-38.5019	449.28	18.5576
-38.5	442.827	18.5771
-38.4988	443.621	18.59668
-38.4988	446.0946	18.6162
-38.4954	443.138	18.6357
-38.4935	441.279	18.6553
-38.493	448.987	18.6748
-38.4905	443.711	18.6943
-38.4897	442.3222	18.7139
-38.4875	445.385	18.7334
-38.4853	447.625	18.75293
-38.48489	439.707	18.7725
-38.4831	447.043	18.792
-38.4807	448.371	18.8115
-38.47929	443.103	18.8311
-38.4781	441.6138	18.8506
-38.4763	448.174	18.8701
-38.4741	441.307	18.8896
-38.473	444.0473	18.90918
-38.471	448.699	18.9287
-38.4693	442.175	18.9482
-38.4671	438.007	18.9678
-38.4668	448.9783	18.9873
-38.4645	444.031	19.0068
-38.4631	441.35	19.0264
-38.4617	447.4704	19.0459
-38.4592	445.584	19.06543
-38.459	440.56	19.085
-38.45726	446.236	19.1045
-38.4551	446.419	19.124
-38.4537	439.758	19.1436
-38.4519	444.845	19.1631
-38.4511	445.303	19.1826
-38.4487	440.088	19.2021
-38.4471	441.289	19.22168
-38.4448	448.6459	19.2412
-38.4431	442.085	19.2607
-38.4421	443.967	19.2803
-38.4407	444.159	19.2998
-38.4387	444.566	19.3193
-38.4367	440.0701	19.3389
-38.4357	447.134	19.3584
-38.4332	444.457	19.37793
-38.4325	442.24	19.3975
-38.4306	441.098	19.417
-38.4305	448.439	19.4365
-38.4271	437.913	19.4561
-38.4266	443.68	19.4756
-38.4242	447.283	19.4951
-38.4231	442.584	19.5146
-38.42234	440.715	19.53418
-38.41851	447.808	19.5537
-38.4183	440.108	19.5732
-38.4168	441.46	19.5928
-38.4142	448.3313	19.6123
-38.412	443.353	19.6318
-38.4104	437.697	19.6514
-38.4091	447.866	19.6709
-38.4074	445.006	19.69043
-38.4064	439.402	19.71
-38.40427	444.555	19.7295
-38.4031	443.938	19.749
-38.4015	439.992	19.7686
-38.39851	443.684	19.7881
-38.3976	445.873	19.8076
-38.39698	440.552	19.8271
-38.3959	443.074	19.84668
-38.393	445.7811	19.8662
-38.3918	443.43	19.8857
-38.3895	439.132	19.9053
-38.3878	446.872	19.9248
-38.3863	443.892	19.9443
-38.3848	442.43	19.9639
-38.383	442.315	19.9834
-38.3824	444.603	20.00293
-38.3817	442.186	20.0127

Data Header:			0.254_solid_dimension_typeiv_090_r0			Time:	30.874	s	4/14/2019 1:41:51 AM
Data Acquisition:	Timed
Station Name:	ft40.cfg
Test File Name:	monotonic_0.2540_typeiv_solid_090_dimension.tst
Displacement	Force	Running Time
mm	N	s
-38.3798	438.674	20.0225
-38.3796	438.1333	20.0322
-38.3773	444.847	20.042
-38.3771	445.753	20.0518
-38.3763	446.804	20.0615
-38.3762	441.9101	20.0713
-38.3755	441.122	20.0811
-38.3749	440.675	20.09082
-38.3751	442.192	20.1006
-38.3728	444.958	20.1104
-38.37112	449.528	20.1201
-38.3704	444.786	20.1299
-38.3696	441.014	20.1396
-38.37	438.654	20.1494
-38.3685	440.794	20.15918
-38.3682	447.0968	20.1689
-38.3672	446.6842	20.1787
-38.3656	444.85	20.1885
-38.3654	443.331	20.1982
-38.3654	439.68	20.208
-38.3629	437.975	20.2178
-38.3626	444.166	20.2275
-38.3626	446.785	20.2373
-38.3622	448.4921	20.24707
-38.3604	443.15	20.2568
-38.3599	436.421	20.2666
-38.3596	439.036	20.2764
-38.3592	441.967	20.2861
-38.3577	447.5015	20.2959
-38.3561	445.585	20.3057
-38.3562	441.963	20.31543
-38.3551	442.824	20.3252
-38.3546	437.704	20.335
-38.3541	441.318	20.3447
-38.3526	444.699	20.3545
-38.3514	447.233	20.3643
-38.3512	446.196	20.374
-38.3491	439.446	20.3838
-38.3479	438.434	20.3936
-38.3484	442.676	20.40332
-38.3479	443.488	20.4131
-38.3468	445.3306	20.4229
-38.347	441.814	20.4326
-38.3445	443.619	20.4424
-38.3435	440.103	20.4521
-38.3447	438.5647	20.4619
-38.34272	439.418	20.47168
-38.3418	445.538	20.4814
-38.3409	445.663	20.4912
-38.3414	444.1875	20.501
-38.3398	440.551	20.5107
-38.3384	440.501	20.5205
-38.3371	442.293	20.5303
-38.3365	443.851	20.54
-38.3354	442.7579	20.5498
-38.3355	443.954	20.55957
-38.3347	445.692	20.5693
-38.3322	441.231	20.5791
-38.3326	437.723	20.5889
-38.3334	441.258	20.5986
-38.3302	446.682	20.6084
-38.3305	444.891	20.6182
-38.3292	443.799	20.62793
-38.32909	440.23	20.6377
-38.3286	438.138	20.6475
-38.3276	441.337	20.6572
-38.3271	441.723	20.667
-38.3248	446.427	20.6768
-38.3254	445.784	20.6865
-38.3237	444.813	20.6963
-38.32267	438.247	20.7061
-38.3217	436.212	20.71582
-38.3204	444.771	20.7256
-38.3206	445.565	20.7354
-38.3192	445.51	20.7451
-38.31979	441.596	20.7549
-38.3183	440.7937	20.7646
-38.31765	439.029	20.7744
-38.3164	438.866	20.78418
-38.3156	442.103	20.7939
-38.3144	446.5556	20.8037
-38.3139	446.237	20.8135
-38.3135	440.477	20.8232
-38.3119	436.796	20.833
-38.312	438.859	20.8428
-38.31094	445.416	20.8525
-38.3102	447.181	20.8623
-38.3086	443.94	20.87207
-38.3088	442.111	20.8818
-38.3088	439.4931	20.8916
-38.3073	436.936	20.9014
-38.3058	442.954	20.9111
-38.3057	445.334	20.9209
-38.3058	447.8175	20.9307
-38.3042	445.113	20.94043
-38.3034	437.472	20.9502
-38.3009	437.723	20.96
-38.3017	442.45	20.9697
-38.29977	445.1376	20.9795
-38.2992	444.126	20.9893
-38.2983	442.739	20.999
-38.2973	442.103	21.0088
-38.298	438.613	21.0186
-38.2961	438.511	21.02832
-38.2955	441.224	21.0381
-38.2946	444.907	21.0479
-38.2934	446.724	21.0576
-38.2928	439.926	21.0674
-38.2931	441.114	21.0771
-38.2919	438.471	21.0869
-38.291	442.024	21.09668
-38.2896	445.4527	21.1064
-38.2882	443.566	21.1162
-38.2895	442.214	21.126
-38.28717	443.294	21.1357
-38.2858	439.578	21.1455
-38.2862	439.961	21.1553
-38.2859	442.052	21.165
-38.2833	446.096	21.1748
-38.2839	444.016	21.18457
-38.2823	440.66	21.1943
-38.2818	438.13	21.2041
-38.2809	439.4704	21.2139
-38.2806	439.39	21.2236
-38.2797	443.258	21.2334
-38.2791	444.763	21.2432
-38.2775	444.169	21.25293
-38.2781	441.725	21.2627
-38.2755	436.788	21.2725
-38.276	436.577	21.2822
-38.2739	444.535	21.292
-38.2738	443.9913	21.3018
-38.2728	445.972	21.3115
-38.271	439.528	21.3213
-38.2706	439.511	21.3311
-38.2698	438.452	21.34082
-38.269	438.871	21.3506
-38.2681	445.181	21.3604
-38.268	445.611	21.3701
-38.2663	444.349	21.3799
-38.2656	439.705	21.3896
-38.265	434.7384	21.3994
-38.26405	439.352	21.40918
-38.2638	444.798	21.4189
-38.2633	446.234	21.4287
-38.2626	444.16	21.4385
-38.2616	438.936	21.4482
-38.26157	438.788	21.458
-38.2601	436.843	21.4678
-38.2593	442.233	21.4775
-38.2575	445.2681	21.4873
-38.2569	445.261	21.49707
-38.2552	441.056	21.5068
-38.2556	436.873	21.5166
-38.2552	436.043	21.5264
-38.2538	442.5993	21.5361
-38.2529	444.286	21.5459
-38.2519	442.905	21.5557
-38.25172	442.199	21.56543
-38.25	439.489	21.5752
-38.2486	438.171	21.585
-38.2492	439.727	21.5947
-38.2482	442.758	21.6045
-38.2475	447.227	21.6143
-38.2466	443.542	21.624
-38.2464	438.3573	21.6338
-38.2444	438.063	21.6436
-38.2446	440.332	21.65332
-38.2444	444.199	21.6631
-38.2433	443.684	21.6729
-38.2414	443.621	21.6826
-38.2408	442.319	21.6924
-38.24	441.144	21.7021
-38.2392	440.027	21.7119
-38.2391	439.294	21.72168
-38.2379	442.3504	21.7314
-38.2373	447.214	21.7412
-38.2364	441.2648	21.751
-38.2352	441.281	21.7607
-38.23489	437.312	21.7705
-38.2332	439.633	21.7803
-38.2328	444.171	21.79
-38.2315	441.9935	21.7998
-38.2307	443.444	21.80957
-38.2308	443.95	21.8193
-38.2299	438.931	21.8291
-38.2294	437.797	21.8389
-38.229	438.874	21.8486
-38.2275	443.797	21.8584
-38.2267	445.728	21.8682
-38.2261	443.549	21.87793
-38.2245	440.673	21.8877
-38.2234	438.7467	21.8975
-38.2241	438.9371	21.9072
-38.2219	440.098	21.917
-38.2209	444.121	21.9268
-38.2199	445.678	21.9365
-38.2196	442.209	21.9463
-38.2197	436.509	21.9561
-38.2181	435.691	21.96582
-38.2168	440.601	21.9756
-38.2175	444.634	21.9854
-38.2162	445.341	21.9951
-38.2154	440.756	22.0049
-38.2147	438.145	22.0146
-38.2129	436.8262	22.0244
-38.2129	438.66	22.03418
-38.2109	445.176	22.0439
-38.2123	445.683	22.0537
-38.21032	446.814	22.0635
-38.2096	440.37	22.0732
-38.2087	432.391	22.083
-38.2077	438.627	22.0928
-38.20583	442.607	22.1025
-38.2074	446.311	22.1123
-38.2046	444.389	22.12207
-38.2041	438.766	22.1318
-38.20269	440.113	22.1416
-38.203	437.742	22.1514
-38.20237	440.167	22.1611
-38.2016	444.314	22.1709
-38.2005	445.627	22.1807
-38.1994	443.484	22.19043
-38.198	437.294	22.2002
-38.1975	436.59	22.21
-38.19709	441.529	22.2197
-38.1975	441.666	22.2295
-38.1964	443.09	22.2393
-38.1944	442.236	22.249
-38.1941	439.379	22.2588
-38.1937	439.669	22.2686
-38.192	438.936	22.27832
-38.1904	440.0712	22.2881
-38.19	444.416	22.2979
-38.1885	444.726	22.3076
-38.1888	439.503	22.3174
-38.1879	438.566	22.3271
-38.1872	436.5553	22.3369
-38.1871	442.309	22.34668
-38.1864	442.63	22.3564
-38.1845	441.158	22.3662
-38.1845	442.247	22.376
-38.1836	441.414	22.3857
-38.1815	439.782	22.3955
-38.182	438.476	22.4053
-38.1801	440.186	22.415
-38.1791	445.445	22.4248
-38.17831	441.925	22.43457
-38.1785	443.043	22.4443
-38.17828	438.086	22.4541
-38.1776	438.086	22.4639
-38.175	440.833	22.4736
-38.1749	441.979	22.4834
-38.1739	444.268	22.4932
-38.1725	447.105	22.50293
-38.1734	439.633	22.5127
-38.1715	437.26	22.5225
-38.1715	437.603	22.5322
-38.1694	442.828	22.542
-38.1692	445.991	22.5518
-38.1686	444.162	22.5615
-38.1679	440.786	22.5713
-38.1665	437.935	22.5811
-38.1658	437.714	22.59082
-38.1663	440.1962	22.6006
-38.1645	443.304	22.6104
-38.1636	444.9519	22.6201
-38.16333	444.0723	22.6299
-38.1619	437.877	22.6396
-38.1613	436.511	22.6494
-38.1598	439.761	22.65918
-38.1596	445.012	22.6689
-38.1596	446.837	22.6787
-38.1577	442.54	22.6885
-38.1564	438.66	22.6982
-38.1564	438.863	22.708
-38.1553	438.32	22.7178
-38.15506	443.238	22.7275
-38.1538	444.59	22.7373
-38.1536	444.766	22.74707
-38.1528	441.414	22.7568
-38.1507	435.196	22.7666
-38.151	438.795	22.7764
-38.1492	441.48	22.7861
-38.1491	446.907	22.7959
-38.149	443.763	22.8057
-38.1477	440.387	22.81543
-38.1469	441.41	22.8252
-38.1455	438.125	22.835
-38.1448	439.5582	22.8447
-38.1445	442.59	22.8545
-38.1429	443.501	22.8643
-38.1428	444.64	22.874
-38.1418	438.96	22.8838
-38.1408	437.114	22.8936
-38.1385	439.026	22.90332
-38.1387	441.908	22.9131
-38.1383	442.591	22.9229
-38.1376	441.49	22.9326
-38.1363	439.8519	22.9424
-38.1367	440.5928	22.9521
-38.1344	438.673	22.9619
-38.1343	439.232	22.97168
-38.1327	441.718	22.9814
-38.1328	443.739	22.9912
-38.1321	443.761	23.001
-38.1316	440.5784	23.0107
-38.1307	437.359	23.0205
-38.12986	439.5177	23.0303
-38.1289	440.153	23.04
-38.1276	442.274	23.0498
-38.1266	442.865	23.05957
-38.1263	441.437	23.0693
-38.1261	439.711	23.0791
-38.1245	435.878	23.0889
-38.12294	437.534	23.0986
-38.1226	444.092	23.1084
-38.1229	444.577	23.1182
-38.1209	443.068	23.12793
-38.1211	438.485	23.1377
-38.12006	437.107	23.1475
-38.1191	438.048	23.1572
-38.1174	438.085	23.167
-38.117	444.814	23.1768
-38.1174	443.908	23.1865
-38.1155	440.605	23.1963
-38.1151	437.089	23.2061
-38.1143	433.871	23.21582
-38.1135	439.076	23.2256
-38.1135	444.909	23.2354
-38.1124	446.348	23.2451
-38.1104	440.353	23.2549
-38.1107	437.632	23.2646
-38.1084	436.975	23.2744
-38.1075	438.922	23.28418
-38.1081	441.943	23.2939
-38.107	444.054	23.3037
-38.106	444.9718	23.3135
-38.1042	438.312	23.3232
-38.1063	434.615	23.333
-38.1034	434.867	23.3428
-38.1025	442.463	23.3525
-38.1016	445.624	23.3623
-38.10091	443.442	23.37207
-38.1005	438.757	23.3818
-38.0985	438.433	23.3916
-38.0983	438.613	23.4014
-38.0982	441.347	23.4111
-38.09676	443.068	23.4209
-38.0955	445.18	23.4307
-38.0956	441.461	23.44043
-38.0942	437.147	23.4502
-38.0936	437.48	23.46
-38.0938	438.603	23.4697
-38.0924	443.546	23.4795
-38.0908	444.118	23.4893
-38.09	438.408	23.499
-38.08976	440.796	23.5088
-38.0898	438.452	23.5186
-38.0883	437.629	23.52832
-38.088	439.32	23.5381
-38.08596	441.727	23.5479
-38.0856	445.422	23.5576
-38.085	438.815	23.5674
-38.0834	438.144	23.5771
-38.0837	437.856	23.5869
-38.0835	440.038	23.59668
-38.0805	442.912	23.6064
-38.0814	441.309	23.6162
-38.0795	439.777	23.626
-38.0789	440.549	23.6357
-38.0774	437.809	23.6455
-38.0784	436.47	23.6553
-38.0771	439.378	23.665
-38.0759	443.201	23.6748
-38.0755	443.307	23.68457
-38.0742	441.393	23.6943
-38.074	436.082	23.7041
-38.0727	438.573	23.7139
-38.0716	438.437	23.7236
-38.0708	439.794	23.7334
-38.0691	442.126	23.7432
-38.0691	442.15	23.75293
-38.0687	439.17	23.7627
-38.0673	433.938	23.7725
-38.0666	434.526	23.7822
-38.0654	439.8588	23.792
-38.0655	444.3493	23.8018
-38.0652	444.953	23.8115
-38.0643	437.664	23.8213
-38.0636	435.407	23.8311
-38.0613	438.516	23.84082
-38.0616	438.716	23.8506
-38.0609	443.637	23.8604
-38.0595	443.805	23.8701
-38.058	441.571	23.8799
-38.0585	439.352	23.8896
-38.0563	432.759	23.8994
-38.0579	438.002	23.90918
-38.0564	443.704	23.9189
-38.0547	444.147	23.9287
-38.0539	441.321	23.9385
-38.0517	436.23	23.9482
-38.0522	435.9982	23.958
-38.0512	438.628	23.9678
-38.0508	440.22	23.9775
-38.0503	441.932	23.9873
-38.0484	443.513	23.99707
-38.0484	439.594	24.0068
-38.04776	435.27	24.0166
-38.0469	435.5498	24.0264
-38.0459	439.148	24.0361
-38.0445	445.12	24.0459
-38.0441	442.374	24.0557
-38.0428	439.0578	24.06543
-38.043	436.358	24.0752
-38.042	437.445	24.085
-38.0406	439.905	24.0947
-38.03989	440.716	24.1045
-38.03899	443.666	24.1143
-38.0374	443.205	24.124
-38.0377	435.846	24.1338
-38.0362	437.959	24.1436
-38.0363	436.9935	24.15332
-38.0359	441.725	24.1631
-38.0338	443.0885	24.1729
-38.0329	438.98	24.1826
-38.0331	440.2442	24.1924
-38.0331	438.406	24.2021
-38.03204	438.227	24.2119
-38.0291	437.221	24.22168
-38.0291	439.07	24.2314
-38.02914	443.777	24.2412
-38.0283	440.729	24.251
-38.028	438.076	24.2607
-38.02557	435.992	24.2705
-38.0255	436.549	24.2803
-38.0245	439.281	24.29
-38.0246	439.972	24.2998
-38.023	441.5383	24.30957
-38.0225	440.921	24.3193
-38.0208	437.369	24.3291
-38.0207	435.575	24.3389
-38.0205	436.442	24.3486
-38.0187	441.063	24.3584
-38.01791	444.977	24.3682
-38.018	441.509	24.37793
-38.0162	435.706	24.3877
-38.0159	437.372	24.3975
-38.0148	437.292	24.4072
-38.0147	439.038	24.417
-38.0144	442.336	24.4268
-38.0119	442.344	24.4365
-38.0111	441.983	24.4463
-38.011	435.198	24.4561
-38.0097	432.569	24.46582
-38.0091	438.933	24.4756
-38.0087	443.183	24.4854
-38.00713	445.677	24.4951
-38.0069	438.251	24.5049
-38.0054	436.251	24.5146
-38.0045	436.619	24.5244
-38.0039	436.712	24.53418
-38.0031	441.243	24.5439
-38.0033	443.045	24.5537
-38.0014	442.341	24.5635
-38.0012	439.305	24.5732
-38.0014	432.6467	24.583
-37.9991	435.449	24.5928
-37.999	441.256	24.6025
-37.9979	444.262	24.6123
-37.9973	441.242	24.62207
-37.9954	435.971	24.6318
-37.99448	434.964	24.6416
-37.994	437.811	24.6514
-37.9921	438.34	24.6611
-37.9928	440.074	24.6709
-37.9914	442.121	24.6807
-37.9908	442.466	24.69043
-37.9902	436.539	24.7002
-37.9902	434.978	24.71
-37.9893	437.801	24.7197
-37.98798	442.524	24.7295
-37.9867	442.333	24.7393
-37.9861	440.28	24.749
-37.9859	436.221	24.7588
-37.9843	437.133	24.7686
-37.9835	437.423	24.77832
-37.983	437.379	24.7881
-37.983	440.696	24.7979
-37.9803	443.098	24.8076
-37.9797	438.857	24.8174
-37.97945	437.6524	24.8271
-37.98	433.826	24.8369
-37.9786	438.709	24.84668
-37.9788	439.304	24.8564
-37.978	439.158	24.8662
-37.9761	442.31	24.876
-37.97562	437.426	24.8857
-37.9744	436.794	24.8955
-37.9735	434.9465	24.9053
-37.9714	435.943	24.915
-37.9708	441.847	24.9248
-37.9704	443.189	24.93457
-37.9691	438.348	24.9443
-37.9695	435.039	24.9541
-37.9683	436.1076	24.9639
-37.9681	439.341	24.9736
-37.9673	437.432	24.9834
-37.967	441.713	24.9932
-37.964	441.08	25.00293
-37.9639	437.835	25.0127
-37.96262	436.0065	25.0225
-37.9633	434.728	25.0322
-37.9613	438.638	25.042
-37.9613	443.796	25.0518
-37.9607	442.344	25.0615
-37.96	436.78	25.0713
-37.9587	434.967	25.0811
-37.95853	436.349	25.09082
-37.9582	437.732	25.1006
-37.9557	441.1713	25.1104
-37.956	441.4631	25.1201
-37.9538	441.429	25.1299
-37.9536	435.133	25.1396
-37.95306	432.405	25.1494
-37.9501	437.433	25.15918
-37.9527	440.35	25.1689
-37.9508	443.3028	25.1787
-37.9503	439.498	25.1885
-37.9488	433.11	25.1982
-37.9473	435.304	25.208
-37.9479	435.48	25.2178
-37.9469	439.015	25.2275
-37.9451	440.189	25.2373
-37.9455	442.023	25.24707
-37.9437	438.593	25.2568
-37.9429	431.784	25.2666
-37.9419	435.895	25.2764
-37.9413	435.494	25.2861
-37.9416	441.009	25.2959
-37.9411	442.868	25.3057
-37.9398	435.825	25.31543
-37.9386	434.384	25.3252
-37.9375	434.415	25.335
-37.9368	435.179	25.3447
-37.9361	438.066	25.3545
-37.9338	439.963	25.3643
-37.93441	439.549	25.374
-37.9337	436.01	25.3838
-37.9326	434.074	25.3936
-37.9321	434.309	25.40332
-37.9309	438.5636	25.4131
-37.9295	439.916	25.4229
-37.9298	438.419	25.4326
-37.9286	437.133	25.4424
-37.928	435.152	25.4521
-37.9273	434.252	25.4619
-37.9252	433.227	25.47168
-37.9255	437.538	25.4814
-37.9241	440.662	25.4912
-37.9223	440.173	25.501
-37.92313	436.972	25.5107
-37.922	431.982	25.5205
-37.9221	434.195	25.5303
-37.9196	438.43	25.54
-37.9192	437.927	25.5498
-37.91851	441.865	25.55957
-37.918	438.036	25.5693
-37.9174	436.118	25.5791
-37.916	435.36	25.5889
-37.9151	434.106	25.5986
-37.9144	438.82	25.6084
-37.9138	441.019	25.6182
-37.9129	441.244	25.62793
-37.91206	434.2579	25.6377
-37.9106	432.619	25.6475
-37.9112	436.388	25.6572
-37.9111	436.9798	25.667
-37.9088	441.257	25.6768
-37.9083	439.694	25.6865
-37.9081	437.362	25.6963
-37.9059	434.117	25.7061
-37.9051	432.765	25.71582
-37.9051	435.95	25.7256
-37.905	442.314	25.7354
-37.9029	442.359	25.7451
-37.90213	435.6687	25.7549
-37.9025	433.156	25.7646
-37.9007	431.914	25.7744
-37.9001	436.737	25.78418
-37.8993	439.263	25.7939
-37.8983	439.616	25.8037
-37.8972	438.315	25.8135
-37.8969	435.117	25.8232
-37.8964	430.99	25.833
-37.895	434.378	25.8428
-37.894	436.4881	25.8525
-37.8922	441.784	25.8623
-37.8933	437.199	25.87207
-37.8917	433.192	25.8818
-37.8908	432.672	25.8916
-37.8905	434.816	25.9014
-37.8895	437.837	25.9111
-37.8885	437.245	25.9209
-37.8879	439.045	25.9307
-37.8866	439.131	25.94043
-37.8855	432.502	25.9502
-37.8854	434.624	25.96
-37.88382	434.207	25.9697
-37.884	438.412	25.9795
-37.8831	440.016	25.9893
-37.8816	435.974	25.999
-37.8809	434.473	26.0088
-37.88	434.636	26.0186
-37.8801	433.635	26.02832
-37.8794	436.209	26.0381
-37.8787	437.515	26.0479
-37.8772	439.819	26.0576
-37.8766	437.9584	26.0674
-37.8757	432.939	26.0771
-37.8737	432.587	26.0869
-37.8739	434.849	26.09668
-37.8721	438.705	26.1064
-37.8725	438.042	26.1162
-37.8719	438.03	26.126
-37.8697	435.599	26.1357
-37.8706	435.5697	26.1455
-37.8694	432.522	26.1553
-37.8676	435.154	26.165
-37.86739	437.002	26.1748
-37.867	440.455	26.18457
-37.8654	437.279	26.1943
-37.8652	431.725	26.2041
-37.8639	431.894	26.2139
-37.8635	436.7869	26.2236
-37.8628	435.486	26.2334
-37.8618	443.046	26.2432
-37.8603	437.241	26.25293
-37.86068	435.603	26.2627
-37.8587	432.4339	26.2725
-37.8591	429.947	26.2822
-37.8574	436.743	26.292
-37.8571	440.2114	26.3018
-37.8562	439.317	26.3115
-37.855	435.085	26.3213
-37.8549	430.5979	26.3311
-37.8539	432.462	26.34082
-37.8523	436.557	26.3506
-37.8523	439.1893	26.3604
-37.8509	438.942	26.3701
-37.8509	436.426	26.3799
-37.8498	433.2554	26.3896
-37.8493	428.414	26.3994
-37.8477	433.393	26.40918
-37.8474	438.6	26.4189
-37.8454	439.8	26.4287
-37.8453	436.256	26.4385
-37.8437	431.69	26.4482
-37.8437	431.917	26.458
-37.8428	434.205	26.4678
-37.84145	436.734	26.4775
-37.8418	437.119	26.4873
-37.8408	437.877	26.49707
-37.8409	434.997	26.5068
-37.839	430.95	26.5166
-37.8376	430.33	26.5264
-37.8364	433.589	26.5361
-37.8363	438.822	26.5459
-37.8354	437.405	26.5557
-37.835	434.502	26.56543
-37.8338	430.537	26.5752
-37.8332	433.332	26.585
-37.8338	432.599	26.5947
-37.8319	433.781	26.6045
-37.8314	436.635	26.6143
-37.8301	436.5184	26.624
-37.8296	431.859	26.6338
-37.8281	431.529	26.6436
-37.8278	429.741	26.65332
-37.8272	433.7063	26.6631
-37.82608	437.057	26.6729
-37.8257	434.267	26.6826
-37.8246	433.627	26.6924
-37.8235	432.527	26.7021
-37.8225	431.406	26.7119
-37.8216	432.344	26.72168
-37.8211	432.557	26.7314
-37.8208	436.498	26.7412
-37.8198	437.935	26.751
-37.8184	432.067	26.7607
-37.8183	428.849	26.7705
-37.8165	430.219	26.7803
-37.8163	433.804	26.79
-37.8149	434.826	26.7998
-37.8148	438.222	26.80957
-37.8145	433.914	26.8193
-37.8136	432.346	26.8291
-37.8115	428.1936	26.8389
-37.8111	429.962	26.8486
-37.8107	434.045	26.8584
-37.8098	436.871	26.8682
-37.8082	436.171	26.87793
-37.80814	429.055	26.8877
-37.8076	427.48	26.8975
-37.80687	430.343	26.9072
-37.8067	434.171	26.917
-37.806	436.98	26.9268
-37.8036	434.209	26.9365
-37.802	433.563	26.9463
-37.8019	429.452	26.9561
-37.8021	426.075	26.96582
-37.8014	431.989	26.9756
-37.8001	436.81	26.9854
-37.7998	436.059	26.9951
-37.7979	432.641	27.0049
-37.7979	425.675	27.0146
-37.7965	427.299	27.0244
-37.7955	430.161	27.03418
-37.7954	434.358	27.0439
-37.79483	436.129	27.0537
-37.7938	431.86	27.0635
-37.793	431.781	27.0732
-37.79285	425.41	27.083
-37.7903	429.067	27.0928
-37.79	433.421	27.1025
-37.7883	434.848	27.1123
-37.78841	432.174	27.12207
-37.7877	427.639	27.1318
-37.7866	424.445	27.1416
-37.7853	429.796	27.1514
-37.785	430.029	27.1611
-37.7857	430.9808	27.1709
-37.78397	431.935	27.1807
-37.7837	430.793	27.19043
-37.7822	426.531	27.2002
-37.781	425.109	27.21
-37.7797	425.276	27.2197
-37.7787	431.288	27.2295
-37.7786	431.199	27.2393
-37.7762	428.7966	27.249
-37.7774	425.268	27.2588
-37.7759	424.8793	27.2686
-37.7751	427.3476	27.27832
-37.7746	426.048	27.2881
-37.7738	426.045	27.2979
-37.77459	429.903	27.3076
-37.7723	425.204	27.3174
-37.7709	421.562	27.3271
-37.7712	417.869	27.3369
-37.7691	419.114	27.34668
-37.76923	420.684	27.3564
-37.7676	416.9277	27.3662
-37.7685	414.42	27.376
-37.7636	-135.617	27.3857
-37.7627	-49.1466	27.3955
-37.7623	-41.6064	27.4053
-37.7607	-24.4531	27.415
-37.7626	-39.8091	27.4248
-37.7607	-38.1873	27.43457
-37.7598	-43.00869	27.4443
-37.7598	-42.00013	27.4541
-37.7596	-43.6363	27.4639
-37.7577	-41.7432	27.4736
-37.7581	-37.8011	27.4834
-37.7567	-36.6952	27.4932
-37.75634	-39.5719	27.50293
-37.7541	-41.60014	27.5127
-37.7552	-45.4083	27.5225
-37.7537	-45.2274	27.5322
-37.7536	-41.6336	27.542
-37.75211	-34.6091	27.5518
-37.7513	-36.4038	27.5615
-37.7509	-43.8561	27.5713
-37.7498	-46.0864	27.5811
-37.7492	-45.1674	27.59082
-37.74754	-40.571	27.6006
-37.7472	-36.1511	27.6104
-37.7472	-38.5131	27.6201
-37.7454	-38.2005	27.6299
-37.7448	-42.0806	27.6396
-37.7445	-46.2281	27.6494
-37.7433	-41.7888	27.65918
-37.7422	-39.1854	27.6689
-37.7419	-37.4087	27.6787
-37.7414	-37.2542	27.6885
-37.7386	-46.2934	27.6982
-37.7395	-43.7808	27.708
-37.7377	-43.2372	27.7178
-37.7383	-41.6136	27.7275
-37.7365	-38.7704	27.7373
-37.7364	-42.3353	27.74707
-37.7358	-39.9377	27.7568
-37.7353	-44.2027	27.7666
-37.7342	-43.5848	27.7764
-37.7326	-41.2171	27.7861
-37.7317	-38.5905	27.7959
-37.7316	-37.7663	27.8057
-37.7293	-41.2063	27.81543
-37.7304	-44.21656	27.8252
-37.7289	-43.5059	27.835
-37.7276	-41.797	27.8447
-37.7279	-41.4173	27.8545
-37.7275	-40.5516	27.8643
-37.7258	-37.9341	27.874
-37.7254	-39.87603	27.8838
-37.7239	-43.7799	27.8936
-37.7233	-45.0532	27.90332
-37.7224	-40.1223	27.9131
-37.721	-38.3799	27.9229
-37.7194	-39.0699	27.9326
-37.7197	-41.0661	27.9424
-37.7191	-42.8645	27.9521
-37.7184	-41.8972	27.9619
-37.7169	-42.6369	27.97168
-37.71677	-42.5204	27.9814
-37.7154	-37.4242	27.9912
-37.7156	-39.2094	28.001
-37.7141	-39.3257	28.0107
-37.7139	-46.25486	28.0205
-37.7133	-43.9372	28.0303
-37.7123	-40.8691	28.04
-37.7109	-39.993	28.0498
-37.7098	-37.1224	28.05957
-37.7093	-42.1959	28.0693
-37.7089	-42.4829	28.0791
-37.70647	-42.90855	28.0889
-37.7074	-46.3511	28.0986
-37.7053	-38.9163	28.1084
-37.70528	-36.0454	28.1182
-37.7051	-39.451	28.12793
-37.7039	-42.5587	28.1377
-37.7034	-47.7054	28.1475
-37.7019	-43.9469	28.1572
-37.70171	-38.5053	28.167
-37.7004	-37.1342	28.1768
-37.6992	-39.7774	28.1865
-37.6978	-41.8891	28.1963
-37.6971	-44.5966	28.2061
-37.6975	-45.5193	28.21582
-37.6953	-41.8177	28.2256
-37.6951	-38.3964	28.2354
-37.6951	-36.5637	28.2451
-37.6933	-40.207	28.2549
-37.6937	-45.30352	28.2646
-37.6915	-46.5326	28.2744
-37.6925	-41.2611	28.28418
-37.6905	-38.5145	28.2939
-37.689	-40.27113	28.3037
-37.6889	-37.30331	28.3135
-37.6878	-41.7538	28.3232
-37.6873	-44.5942	28.333
-37.6863	-42.4215	28.3428
-37.6855	-41.76297	28.3525
-37.685	-36.4577	28.3623
-37.6844	-38.5421	28.37207
-37.6836	-44.80658	28.3818
-37.6831	-45.89706	28.3916
-37.6812	-43.9857	28.4014
-37.6805	-41.0387	28.4111
-37.68	-39.7581	28.4209
-37.6796	-40.7585	28.4307
-37.6792	-38.4331	28.44043
-37.6772	-43.1487	28.4502
-37.67643	-44.4945	28.46
-37.6762	-42.916	28.4697
-37.6748	-40.5949	28.4795
-37.6741	-38.0421	28.4893
-37.6741	-39.8369	28.499
-37.6726	-41.7211	28.5088
-37.6716	-42.0624	28.5186
-37.6713	-43.2812	28.52832
-37.669	-42.42215	28.5381
-37.6692	-41.5158	28.5479
-37.6679	-39.2209	28.5576
-37.6671	-38.7855	28.5674
-37.6664	-43.1354	28.5771
-37.6658	-46.8918	28.5869
-37.6659	-42.426	28.59668
-37.6648	-40.072	28.6064
-37.6646	-38.7369	28.6162
-37.6632	-38.829	28.626
-37.662	-41.8333	28.6357
-37.6605	-43.16613	28.6455
-37.661	-44.2736	28.6553
-37.6587	-43.007	28.665
-37.6582	-38.4541	28.6748
-37.6584	-37.83	28.68457
-37.6568	-38.6178	28.6943
-37.6561	-45.6746	28.7041
-37.6559	-45.9805	28.7139
-37.6557	-41.8867	28.7236
-37.6535	-40.41362	28.7334
-37.6529	-37.4509	28.7432
-37.6523	-40.214	28.75293
-37.6518	-42.6891	28.7627
-37.6512	-42.7141	28.7725
-37.6489	-45.2115	28.7822
-37.6499	-39.509	28.792
-37.6479	-37.4348	28.8018
-37.6483	-38.11977	28.8115
-37.6459	-41.4396	28.8213
-37.6466	-46.5782	28.8311
-37.6456	-46.0023	28.84082
-37.6436	-39.8232	28.8506
-37.6441	-38.558	28.8604
-37.6425	-37.8473	28.8701
-37.64127	-40.9658	28.8799
-37.6409	-42.829	28.8896
-37.6407	-46.2178	28.8994
-37.639	-42.6147	28.90918
-37.639	-38.1196	28.9189
-37.6377	-36.923	28.9287
-37.6366	-39.5316	28.9385
-37.6371	-45.0612	28.9482
-37.6359	-45.12352	28.958
-37.635	-42.75	28.9678
-37.6332	-38.8972	28.9775
-37.6339	-39.8451	28.9873
-37.63203	-38.4538	28.99707
-37.6309	-40.3997	29.0068
-37.63055	-43.4611	29.0166
-37.6291	-42.9651	29.0264
-37.6287	-43.017	29.0361
-37.6283	-37.0737	29.0459
-37.6271	-37.0407	29.0557
-37.6274	-42.0485	29.06543
-37.6256	-40.81126	29.0752
-37.6252	-43.6566	29.085
-37.6236	-41.6402	29.0947
-37.6227	-40.3068	29.1045
-37.6228	-40.1235	29.1143
-37.6218	-38.4173	29.124
-37.6199	-39.4778	29.1338
-37.6199	-42.7177	29.1436
-37.618	-44.5587	29.15332
-37.61805	-43.0005	29.1631
-37.6168	-36.6684	29.1729
-37.6162	-39.6694	29.1826
-37.61578	-40.6744	29.1924
-37.6151	-41.24403	29.2021
-37.6136	-44.3907	29.2119
-37.6127	-43.4735	29.22168
-37.6118	-41.7783	29.2314
-37.6117	-38.6448	29.2412
-37.6105	-35.5625	29.251
-37.61018	-40.767	29.2607
-37.6086	-45.3846	29.2705
-37.60825	-44.7966	29.2803
-37.6091	-41.8569	29.29
-37.607	-37.0143	29.2998
-37.6071	-35.8382	29.30957
-37.60561	-43.20607	29.3193
-37.604	-41.9586	29.3291
-37.6034	-43.6599	29.3389
-37.6032	-43.6808	29.3486
-37.6015	-39.1572	29.3584
-37.5997	-37.0143	29.3682
-37.6007	-36.79879	29.37793
-37.599	-43.0918	29.3877
-37.5985	-46.3674	29.3975
-37.5978	-42.746	29.4072
-37.5983	-38.8335	29.417
-37.5957	-35.6277	29.4268
-37.5946	-39.46077	29.4365
-37.5947	-42.5967	29.4463
-37.594	-42.9859	29.4561
-37.5927	-46.1723	29.46582
-37.5909	-39.8719	29.4756
-37.5907	-38.4633	29.4854
-37.5902	-37.2443	29.4951
-37.58913	-39.8226	29.5049
-37.5881	-46.0061	29.5146
-37.5879	-44.1281	29.5244
-37.58757	-39.8928	29.53418
-37.5862	-38.1286	29.5439
-37.586	-38.4943	29.5537
-37.585	-40.5974	29.5635
-37.584	-41.1896	29.5732
-37.5839	-43.87867	29.583
-37.5824	-43.2525	29.5928
-37.5823	-40.4442	29.6025
-37.5803	-36.5412	29.6123
-37.5797	-38.0981	29.62207
-37.5786	-41.677	29.6318
-37.5781	-44.4246	29.6416
-37.5795	-41.9039	29.6514
-37.5765	-40.9388	29.6611
-37.5758	-38.1059	29.6709
-37.5751	-38.549	29.6807
-37.57526	-39.14703	29.69043
-37.5738	-42.1831	29.7002
-37.5719	-42.29826	29.71
-37.5717	-44.7241	29.7197
-37.572	-38.7647	29.7295
-37.5699	-36.3521	29.7393
-37.5691	-39.5005	29.749
-37.5691	-41.5722	29.7588
-37.56942	-44.3134	29.7686
-37.5668	-42.7225	29.77832
-37.5662	-42.2514	29.7881
-37.5659	-43.5597	29.7979
-37.5646	-37.7511	29.8076
-37.5628	-40.1111	29.8174
-37.5637	-41.92989	29.8271
-37.5622	-47.8893	29.8369
-37.5609	-44.6712	29.84668
-37.5598	-39.8043	29.8564
-37.5596	-39.4467	29.8662
-37.5581	-39.2137	29.876
-37.5579	-41.9357	29.8857
-37.5568	-44.2024	29.8955
-37.556	-42.7418	29.9053
-37.5569	-43.9809	29.915
-37.5548	-38.1153	29.9248
-37.5547	-35.9213	29.93457
-37.5532	-41.2001	29.9443
-37.55262	-45.2108	29.9541
-37.5513	-46.2914	29.9639
-37.551	-42.7454	29.9736
-37.5495	-36.5358	29.9834
-37.5497	-37.3676	29.9932
-37.54752	-41.9922	30.00293
-37.5469	-41.35696	30.0127
-37.546	-43.1922	30.0225
-37.5451	-44.8844	30.0322
-37.5457	-38.9374	30.042
-37.5445	-38.3878	30.0518
-37.5439	-36.7261	30.0615
-37.54166	-42.1553	30.0713
-37.5417	-44.6209	30.0811
-37.5413	-45.29414	30.09082
-37.539	-39.33651	30.1006
-37.5394	-36.3424	30.1104
-37.5392	-39.6968	30.1201
-37.53817	-40.6045	30.1299
-37.53738	-42.1279	30.1396
-37.5363	-46.232	30.1494
-37.53521	-41.4662	30.15918
-37.5344	-38.1679	30.1689
-37.534	-37.5462	30.1787
-37.5333	-37.9226	30.1885
-37.5303	-44.83358	30.1982
-37.53141	-45.9134	30.208
-37.5292	-41.0488	30.2178
-37.5304	-39.5971	30.2275
-37.5297	-37.3587	30.2373
-37.5277	-41.4711	30.24707
-37.5274	-41.429	30.2568
-37.5268	-43.4407	30.2666
-37.5252	-44.6869	30.2764
-37.5247	-43.9379	30.2861
-37.5247	-38.7744	30.2959
-37.5244	-37.924	30.3057
-37.5227	-41.5897	30.31543
-37.5201	-43.92131	30.3252
-37.5203	-42.352	30.335
-37.5199	-41.6396	30.3447
-37.5184	-39.8373	30.3545
-37.51897	-39.6137	30.3643
-37.5183	-38.9435	30.374
-37.5168	-39.6479	30.3838
-37.51601	-43.439	30.3936
-37.5145	-46.8616	30.40332
-37.5147	-42.1933	30.4131
-37.5142	-38.7843	30.4229
-37.5121	-40.1306	30.4326
-37.51173	-39.095	30.4424
-37.5098	-43.2633	30.4521
-37.5097	-45.1731	30.4619
-37.5093	-41.21677	30.47168
-37.5078	-42.3599	30.4814
-37.5073	-38.2121	30.4912
-37.507	-39.4774	30.501
-37.5059	-41.54496	30.5107
-37.5057	-45.7559	30.5205
-37.5038	-46.233	30.5303
-37.5032	-40.928	30.54
-37.5025	-36.9504	30.5498
-37.5022	-38.2376	30.55957
-37.50214	-41.0332	30.5693
-37.5005	-44.3698	30.5791
-37.4991	-43.7121	30.5889
-37.49876	-44.1848	30.5986
-37.4973	-39.6243	30.6084
-37.49596	-36.72242	30.6182
-37.497	-38.823	30.62793
-37.495	-44.3919	30.6377
-37.4953	-47.2917	30.6475
-37.4939	-46.27874	30.6572
-37.493	-37.3495	30.667
-37.4918	-37.1327	30.6768
-37.492	-40.4315	30.6865
-37.4898	-40.9639	30.6963
-37.48933	-43.6061	30.7061
-37.4896	-44.0898	30.71582
-37.4885	-41.5791	30.7256
-37.4872	-38.0267	30.7354
-37.4852	-35.46743	30.7451
-37.4859	-39.3387	30.7549
-37.4842	-45.6131	30.7646
-37.4829	-44.925	30.7744
-37.48233	-41.8141	30.78418
-37.48138	-37.2592	30.7939
-37.48225	-39.1993	30.8037
-37.4804	-40.7535	30.8135
-37.4791	-41.0855	30.8232
-37.4792	-44.2976	30.833
-37.4793	-41.9644	30.8428
-37.4781	-42.6533	30.8525
-37.4768	-37.7382	30.8623