File: data/processed_data_files/tensile/0.254_hd_uprint_typei_090_r(5).dat
MTS793|BTW|ENU|1|2|.|/|:|1|0|0|A

Data Header:			0.254_hd_uprint_typei_090_r0			Time:	20.0349	s	4/15/2019 3:57:44 PM
Data Acquisition:	Timed
Station Name:	ft40.cfg
Test File Name:	monotonic_0.2540_typei_hd_090_uprint.tst
Displacement	Force	Running Time
mm	N	s
9.97975	-158.958	0.0397949
9.98128	-161.904	0.0593262
9.97933	-167.4437	0.0788574
9.98054	-163.631	0.0983887
9.98206	-158.428	0.11792
9.98393	-164.299	0.137451
9.98563	-163.458	0.156982
9.98743	-157.009	0.176514
9.98863	-162.004	0.196045
9.99137	-161.127	0.215576
9.99076	-156.329	0.235107
9.99339	-155.627	0.254639
9.9944	-163.694	0.27417
9.996789	-151.907	0.293701
9.9993	-151.657	0.313232
10.0003	-157.393	0.332764
10.0012	-154.181	0.352295
10.003	-145.778	0.371826
10.0041	-156.563	0.391357
10.00514	-150.836	0.410889
10.0074	-147.117	0.43042
10.0097	-152.469	0.449951
10.0115	-155.583	0.469482
10.0129	-140.614	0.489014
10.01437	-149.31	0.508545
10.0164	-152.657	0.528076
10.0177	-142.623	0.547607
10.0193	-144.186	0.567139
10.021	-150.642	0.58667
10.0228	-139.655	0.606201
10.024	-143.978	0.625732
10.0259	-145.958	0.645264
10.0282	-139.7764	0.664795
10.0291	-136.324	0.684326
10.0319	-147.347	0.703857
10.0326	-141.733	0.723389
10.0339	-133.586	0.74292
10.0361	-140.777	0.762451
10.0374	-138.868	0.781982
10.0386	-132.498	0.801514
10.0409	-135.927	0.821045
10.04302	-138.761	0.840576
10.0437	-129.441	0.860107
10.046	-129.774	0.879639
10.0475	-133.417	0.89917
10.0482	-130.149	0.918701
10.0506	-126.1504	0.938232
10.0515	-135.8374	0.957764
10.0535	-127.303	0.977295
10.0542	-124.583	0.996826
10.05714	-129.726	1.01636
10.0593	-131.718	1.03589
10.0601	-119.685	1.05542
10.0604	-128.541	1.07495
10.0645	-124.725	1.09448
10.0653	-117.934	1.11401
10.0668	-122.697	1.13354
10.0681	-128.008	1.15308
10.071	-114.888	1.17261
10.0721	-118.472	1.19214
10.0728	-122.311	1.21167
10.0748	-116.865	1.2312
10.0766	-112.449	1.25073
10.0782	-122.1082	1.27026
10.0798	-114.0708	1.28979
10.0814	-111.371	1.30933
10.082	-118.048	1.32886
10.08429	-113.461	1.34839
10.08633	-108.415	1.36792
10.0887	-115.263	1.38745
10.089	-114.107	1.40698
10.0913	-103.756	1.42651
10.093	-108.32	1.44604
10.0934	-111.333	1.46558
10.096	-105.735	1.48511
10.0967	-102.064	1.50464
10.0999	-111.601	1.52417
10.1006	-102.773	1.5437
10.1031	-100.286	1.56323
10.1039	-105.004	1.58276
10.1061	-102.604	1.60229
10.1071	-93.5386	1.62183
10.109	-104.921	1.64136
10.1119	-101.978	1.66089
10.1124	-91.8931	1.68042
10.1139	-97.5855	1.69995
10.1157	-103.092	1.71948
10.1166	-90.1614	1.73901
10.1191	-94.1512	1.75854
10.1218	-95.7175	1.77808
10.1222	-88.0888	1.79761
10.1243	-90.4517	1.81714
10.12468	-97.9067	1.83667
10.1269	-86.4498	1.8562
10.12921	-85.0879	1.87573
10.1298	-93.2994	1.89526
10.132	-85.3744	1.91479
10.13325	-81.6735	1.93433
10.1348	-87.5071	1.95386
10.13727	-86.17984	1.97339
10.1378	-79.1541	1.99292
10.1406	-85.2316	2.01245
10.1419	-82.2336	2.03198
10.1434	-79.7172	2.05151
10.1454	-78.5591	2.07104
10.1468	-84.9722	2.09058
10.148	-71.8198	2.11011
10.1496	-74.9933	2.12964
10.1512	-80.0056	2.14917
10.153	-75.3918	2.1687
10.1538	-67.8424	2.18823
10.1568	-77.4554	2.20776
10.1582	-70.164	2.22729
10.16	-66.3635	2.24683
10.162	-73.1683	2.26636
10.1633	-73.6556	2.28589
10.1648	-61.6441	2.30542
10.16626	-71.2874	2.32495
10.1678	-71.8238	2.34448
10.1699	-60.49411	2.36401
10.1707	-64.5306	2.38354
10.1727	-69.9026	2.40308
10.1741	-58.6637	2.42261
10.1753	-60.3994	2.44214
10.1773	-67.0248	2.46167
10.1786	-57.6473	2.4812
10.1809	-57.5681	2.50073
10.1813	-64.1644	2.52026
10.1841	-56.7894	2.53979
10.18522	-50.0061	2.55933
10.1884	-59.4971	2.57886
10.1886	-56.3144	2.59839
10.1895	-50.83913	2.61792
10.1924	-53.7104	2.63745
10.1932	-56.5597	2.65698
10.1954	-43.8059	2.67651
10.1968	-50.4979	2.69604
10.1981	-52.3754	2.71558
10.20034	-47.0691	2.73511
10.2015	-44.023	2.75464
10.2032	-52.6559	2.77417
10.2061	-42.4243	2.7937
10.2064	-40.424	2.81323
10.2084	-46.3664	2.83276
10.2092	-46.42823	2.85229
10.2112	-35.5237	2.87183
10.2141	-43.83429	2.89136
10.2153	-39.568	2.91089
10.216	-33.0143	2.93042
10.2185	-41.1593	2.94995
10.2193	-40.5354	2.96948
10.2213	-29.7875	2.98901
10.2229	-35.43581	3.00854
10.2243	-39.7922	3.02808
10.22694	-28.0711	3.04761
10.2281	-31.3329	3.06714
10.2297	-37.6403	3.08667
10.2309	-28.46286	3.1062
10.2323	-24.2586	3.12573
10.2345	-32.1153	3.14526
10.2362	-25.1452	3.16479
10.2378	-24.943	3.18433
10.2391	-28.0758	3.20386
10.2407	-26.30917	3.22339
10.2421	-17.4842	3.24292
10.244	-24.5983	3.26245
10.2459	-22.3565	3.28198
10.2463	-18.6451	3.30151
10.2493	-17.9327	3.32104
10.2512	-22.4892	3.34058
10.2528	-13.48152	3.36011
10.2535	-14.1636	3.37964
10.255	-19.042	3.39917
10.2574	-15.429	3.4187
10.2591	-8.83806	3.43823
10.2602	-17.24869	3.45776
10.262	-10.6788	3.47729
10.2644	-3.59703	3.49683
10.265	-12.7688	3.51636
10.2675	-13.4027	3.53589
10.268	-3.22896	3.55542
10.2699	-9.683404	3.57495
10.2716	-7.70473	3.59448
10.2736	-0.242414	3.61401
10.2747	-4.68001	3.63354
10.2765	-7.91665	3.65308
10.2782	1.29971	3.67261
10.2807	-0.416957	3.69214
10.2815	-7.36061	3.71167
10.2835	4.321372	3.7312
10.2848	3.06093	3.75073
10.2859	-0.941976	3.77026
10.2883	3.87152	3.78979
10.2896	9.29658	3.80933
10.2913	2.83888	3.82886
10.2929	6.54688	3.84839
10.2959	9.42104	3.86792
10.2963	8.01123	3.88745
10.2975	5.15645	3.90698
10.2984	16.84956	3.92651
10.302	11.6435	3.94604
10.3023	8.426589	3.96558
10.3048	13.3575	3.98511
10.3064	17.48175	4.00464
10.3077	10.2183	4.02417
10.3087	16.8461	4.0437
10.3107	20.1764	4.06323
10.3134	12.4253	4.08276
10.3138	17.7212	4.10229
10.3161	24.3278	4.12183
10.3178	16.3077	4.14136
10.3193	19.3963	4.16089
10.32	29.4559	4.18042
10.3219	21.2167	4.19995
10.3239	19.6401	4.21948
10.3248	30.6948	4.23901
10.32702	27.5787	4.25854
10.3282	22.3664	4.27808
10.33105	35.7118	4.29761
10.3316	29.61916	4.31714
10.3332	26.5469	4.33667
10.3355	33.7274	4.3562
10.3371	36.0077	4.37573
10.3387	27.5722	4.39526
10.34	36.0101	4.41479
10.3419	38.7603	4.43433
10.3434	36.0589	4.45386
10.3448	34.2333	4.47339
10.3476	44.6314	4.49292
10.3492	38.09547	4.51245
10.3497	39.58102	4.53198
10.3512	43.2986	4.55151
10.3518	43.6095	4.57104
10.35462	40.1927	4.59058
10.35586	49.9996	4.61011
10.3583	49.3001	4.62964
10.3596	40.154	4.64917
10.3606	48.0201	4.6687
10.364	54.0044	4.68823
10.3641	45.3692	4.70776
10.3657	49.6954	4.72729
10.3679	57.7233	4.74683
10.3697	48.17939	4.76636
10.3709	51.3302	4.78589
10.3728	59.04987	4.80542
10.37431	53.1962	4.82495
10.3757	53.7135	4.84448
10.378	65.3031	4.86401
10.3788	58.2862	4.88354
10.3813	55.5985	4.90308
10.3823	63.7285	4.92261
10.3828	63.319	4.94214
10.3858	58.2931	4.96167
10.3867	68.3588	4.9812
10.3885	64.9548	5.00073
10.3907	63.765	5.02026
10.3921	67.7419	5.03979
10.3934	73.1875	5.05933
10.3955	65.2792	5.07886
10.3969	69.7648	5.09839
10.3984	74.0118	5.11792
10.401	71.66497	5.13745
10.4016	70.2781	5.15698
10.4024	79.0011	5.17651
10.4057	75.2439	5.19604
10.4078	72.0786	5.21558
10.4096	77.4958	5.23511
10.4101	79.5129	5.25464
10.4113	73.9441	5.27417
10.4131	82.2328	5.2937
10.4149	84.9621	5.31323
10.4159	75.5647	5.33276
10.4186	82.2936	5.35229
10.4192	88.9604	5.37183
10.4213	81.7833	5.39136
10.4228	82.7825	5.41089
10.4242	92.742	5.43042
10.4262	83.09	5.44995
10.4278	87.6886	5.46948
10.4284	93.0139	5.48901
10.4313	90.1977	5.50854
10.4339	87.6651	5.52808
10.4349	98.944	5.54761
10.437	94.4844	5.56714
10.4373	92.2161	5.58667
10.439	96.4532	5.6062
10.4413	101.682	5.62573
10.442	93.5148	5.64526
10.4442	101.435	5.66479
10.4467	103.447	5.68433
10.4469	97.6467	5.70386
10.45	101.817	5.72339
10.45	109.859	5.74292
10.4522	101.867	5.76245
10.4541	102.489	5.78198
10.4561	108.616	5.80151
10.4573	110.963	5.82104
10.4586	102.094	5.84058
10.4601	111.044	5.86011
10.4622	112.287	5.87964
10.4646	105.632	5.89917
10.4658	113.5619	5.9187
10.4667	115.766	5.93823
10.469	109.127	5.95776
10.4703	114.859	5.97729
10.4712	121.538	5.99683
10.4738	109.91	6.01636
10.4752	117.009	6.03589
10.4776	124.264	6.05542
10.47817	119.2722	6.07495
10.48052	118.422	6.09448
10.4813	128.4838	6.11401
10.4836	119.83	6.13354
10.4843	119.712	6.15308
10.4865	128.176	6.17261
10.4884	127.747	6.19214
10.4914	123.0624	6.21167
10.4914	130.899	6.2312
10.4933	130.336	6.25073
10.4949	127.6609	6.27026
10.4958	130.106	6.28979
10.4981	137.698	6.30933
10.50011	131.104	6.32886
10.5016	133.154	6.34839
10.50263	136.737	6.36792
10.5045	134.776	6.38745
10.506	134.44	6.40698
10.5077	141.7054	6.42651
10.5092	137.173	6.44604
10.5106	134.3385	6.46558
10.5128	142.8019	6.48511
10.5137	144.2641	6.50464
10.5159	138.0072	6.52417
10.5172	143.9946	6.5437
10.5185	150.135	6.56323
10.52172	140.101	6.58276
10.522	148.287	6.60229
10.52452	151.544	6.62183
10.5261	145.2	6.64136
10.5279	148.553	6.66089
10.5289	158.753	6.68042
10.5305	147.222	6.69995
10.53237	150.614	6.71948
10.5331	158.425	6.73901
10.5349	155.932	6.75854
10.5368	152.027	6.77808
10.5381	160.303	6.79761
10.5402	156.8983	6.81714
10.54143	155.647	6.83667
10.5436	159.992	6.8562
10.5444	163.4277	6.87573
10.547	155.87	6.89526
10.5487	164.05	6.91479
10.5495	166.216	6.93433
10.5517	162.671	6.95386
10.5534	162.224	6.97339
10.5554	170.515	6.99292
10.5573	166.98	7.01245
10.5588	166.396	7.03198
10.5593	171.849	7.05151
10.5605	169.915	7.07104
10.563	167.302	7.09058
10.5653	174.038	7.11011
10.5659	175.26	7.12964
10.5683	167.772	7.14917
10.5692	178.088	7.1687
10.5711	179.856	7.18823
10.5733	172.959	7.20776
10.5738	178.628	7.22729
10.5763	184.792	7.24683
10.5779	174.819	7.26636
10.579	180.446	7.28589
10.58073	184.769	7.30542
10.58252	180.248	7.32495
10.5839	180.996	7.34448
10.5852	191.452	7.36401
10.586	181.626	7.38354
10.5893	182.728	7.40308
10.5914	191.837	7.42261
10.5917	191.2831	7.44214
10.59411	185.535	7.46167
10.5953	192.631	7.4812
10.5973	191.911	7.50073
10.5984	190.238	7.52026
10.6	193.356	7.53979
10.60156	197.448	7.55933
10.6044	191.436	7.57886
10.6047	194.3318	7.59839
10.6067	200.982	7.61792
10.6076	195.5034	7.63745
10.6096	194.305	7.65698
10.6129	203.651	7.67651
10.6137	202.187	7.69604
10.615	196.1021	7.71558
10.6166	206.4593	7.73511
10.6184	205.594	7.75464
10.6208	201.6232	7.77417
10.6211	208.54	7.7937
10.62252	210.241	7.81323
10.6257	200.41	7.83276
10.6271	209.7683	7.85229
10.6287	214.5256	7.87183
10.6303	207.567	7.89136
10.6311	211.41	7.91089
10.6336	220.0307	7.93042
10.634	208.4402	7.94995
10.6362	214.651	7.96948
10.6375	220.122	7.98901
10.6392	216.3196	8.00854
10.641	214.507	8.02808
10.6434	223.192	8.04761
10.645	218.585	8.06714
10.6459	217.165	8.08667
10.64824	223.483	8.1062
10.649	224.868	8.12573
10.6499	219.919	8.14526
10.6528	224.05	8.16479
10.654	228.371	8.18433
10.65499	223.4045	8.20386
10.6576	227.905	8.22339
10.6587	231.643	8.24292
10.661	226.623	8.26245
10.6625	224.83	8.28198
10.66296	237.906	8.30151
10.665	231.081	8.32104
10.6661	230.123	8.34058
10.66922	237.239	8.36011
10.6708	239.263	8.37964
10.6719	229.061	8.39917
10.6742	240.0943	8.4187
10.6756	239.348	8.43823
10.6774	235.738	8.45776
10.6783	241.497	8.47729
10.68043	246.392	8.49683
10.6808	235.528	8.51636
10.6833	242.995	8.53589
10.6849	251.91	8.55542
10.687	243.68	8.57495
10.6885	243.5148	8.59448
10.6912	252.133	8.61401
10.6902	243.429	8.63354
10.6936	246.607	8.65308
10.6943	253.368	8.67261
10.696	251.093	8.69214
10.6992	249	8.71167
10.7001	254.748	8.7312
10.7016	255.835	8.75073
10.7028	248.925	8.77026
10.7049	256.202	8.78979
10.7058	262.48	8.80933
10.7078	255.813	8.82886
10.7089	255.4856	8.84839
10.7111	264.271	8.86792
10.7125	258.041	8.88745
10.7144	259.52	8.90698
10.7161	267.5311	8.92651
10.7181	265.636	8.94604
10.7191	258.412	8.96558
10.7202	271.474	8.98511
10.723	268.003	9.00464
10.72482	262.674	9.02417
10.7261	272.599	9.0437
10.7272	274.866	9.06323
10.728	263.362	9.08276
10.7295	273.619	9.10229
10.732	276.676	9.12183
10.7345	272.122	9.14136
10.734	274.082	9.16089
10.73677	281.0332	9.18042
10.7378	271.341	9.19995
10.7407	275.492	9.21948
10.7416	284.492	9.23901
10.7437	279.631	9.25854
10.7454	277.185	9.27808
10.747	285.063	9.29761
10.7482	284.592	9.31714
10.75	278.777	9.33667
10.7513	287.209	9.3562
10.7528	286.393	9.37573
10.7554	282.985	9.39526
10.756	287.216	9.41479
10.75846	294.187	9.43433
10.7591	284.623	9.45386
10.76117	289.612	9.47339
10.7633	296.451	9.49292
10.7643	292.535	9.51245
10.7667	284.9014	9.53198
10.7677	300.262	9.55151
10.7697	295.162	9.57104
10.7721	293.287	9.59058
10.7726	301.348	9.61011
10.7744	300.935	9.62964
10.77634	291.025	9.64917
10.7769	304.096	9.6687
10.7793	305.055	9.68823
10.7803	296.405	9.70776
10.7828	302.819	9.72729
10.7844	310.516	9.74683
10.7855	298.678	9.76636
10.7874	304.172	9.78589
10.7888	309.459	9.80542
10.791	304.01	9.82495
10.7924	307.113	9.84448
10.7953	312.712	9.86401
10.7945	309.204	9.88354
10.7971	306.504	9.90308
10.7992	317.409	9.92261
10.8003	315.92	9.94214
10.80185	310.434	9.96167
10.8036	316.683	9.9812
10.8062	319.417	10.0007
10.808	311.412	10.0203
10.8087	318.913	10.0398
10.8109	323.383	10.0593
10.81139	317.877	10.0789
10.8141	316.6713	10.0984
10.8149	328.9382	10.11792
10.8159	318.12	10.1375
10.8181	319.631	10.157
10.8201	332.065	10.1765
10.8222	327.42	10.196
10.823	316.896	10.2156
10.8254	332.992	10.2351
10.8262	330.449	10.2546
10.8283	325.313	10.27417
10.83	333.279	10.2937
10.8314	334.593	10.3132
10.83334	325.664	10.3328
10.8346	335.234	10.3523
10.8359	339.42	10.3718
10.837	330.022	10.3914
10.8398	334.377	10.4109
10.8416	341.736	10.43042
10.8444	335.3009	10.45
10.8432	335.331	10.4695
10.8467	345.114	10.489
10.8474	342.27	10.5085
10.8491	339.948	10.5281
10.85087	345.867	10.5476
10.8533	347.886	10.5671
10.8549	338.061	10.58667
10.8555	350.887	10.6062
10.8571	352.572	10.6257
10.85954	344.366	10.6453
10.8608	345.7991	10.6648
10.8622	357.734	10.6843
10.864	346.7291	10.7039
10.8658	350.343	10.7234
10.86756	359.2218	10.74292
10.8691	351.613	10.7625
10.8706	349.166	10.782
10.8724	361.952	10.8015
10.8736	353.682	10.821
10.8754	352.608	10.8406
10.8764	363.181	10.8601
10.8782	361.944	10.8796
10.8807	352.413	10.89917
10.88218	363.179	10.9187
10.8836	365.367	10.9382
10.886	357.867	10.9578
10.8872	365.082	10.9773
10.8879	370.162	10.9968
10.8893	361.197	11.0164
10.8926	367.041	11.0359
10.894	374.827	11.05542
10.8949	366.052	11.075
10.8974	367.715	11.0945
10.89877	374.6427	11.114
10.8994	373.542	11.1335
10.9005	365.442	11.1531
10.9033	378.02	11.1726
10.9053	377.797	11.1921
10.9058	371.478	11.21167
10.9079	376.5975	11.2312
10.9097	382.223	11.2507
10.9115	372.074	11.2703
10.9117	381.322	11.2898
10.9143	387.201	11.3093
10.916	376.672	11.3289
10.9183	375.85	11.3484
10.91885	390.686	11.36792
10.9209	381.542	11.3875
10.9225	382.491	11.407
10.9238	390.6199	11.4265
10.92499	386.791	11.446
10.92709	380.533	11.4656
10.9285	394.618	11.4851
10.931	390.334	11.5046
10.9304	383.078	11.52417
10.9336	394.7514	11.5437
10.9363	395.541	11.5632
10.937	386.279	11.5828
10.9393	394.859	11.6023
10.9404	401.008	11.6218
10.9411	391.157	11.6414
10.9428	397.379	11.6609
10.9465	400.7663	11.68042
10.9473	397.451	11.7
10.9481	395.918	11.7195
10.9502	408.458	11.739
10.95189	399.308	11.7585
10.9536	398.12	11.7781
10.9548	405.729	11.7976
10.9559	408.82	11.8171
10.959	397.382	11.83667
10.9603	410.01	11.8562
10.9631	412.57	11.8757
10.9623	403.8013	11.8953
10.9654	407.704	11.9148
10.9664	415.133	11.9343
10.9681	406.469	11.9539
10.9688	410.991	11.9734
10.97188	421.288	11.99292
10.9726	412.028	12.0125
10.9743	408.82	12.032
10.9757	422.0076	12.0515
10.97758	418.132	12.071
10.9795	414.078	12.0906
10.9813	423.033	12.1101
10.9837	420.7045	12.1296
10.9841	414.126	12.14917
10.98536	423.488	12.1687
10.9878	426.197	12.1882
10.9884	416.137	12.2078
10.9912	426.766	12.2273
10.9926	429.244	12.2468
10.9959	420.871	12.2664
10.9963	421.953	12.2859
10.9976	434.2431	12.30542
10.9991	425.683	12.325
11.0004	427.349	12.3445
11.0021	432.032	12.364
11.0045	432.251	12.3835
11.0058	425.967	12.4031
11.0068	439.937	12.4226
11.0095	435.41	12.4421
11.01123	429.861	12.46167
11.0119	436.035	12.4812
11.0137	442.701	12.5007
11.0149	431.243	12.5203
11.0182	438.558	12.5398
11.018	444.832	12.5593
11.0202	436.782	12.5789
11.02164	435.9007	12.5984
11.0228	446.968	12.61792
11.02455	440.027	12.6375
11.026	440.697	12.657
11.0286	452.994	12.6765
11.0293	445.052	12.696
11.0316	438.8078	12.7156
11.0332	452.162	12.7351
11.0353	452.735	12.7546
11.0352	442.4931	12.77417
11.039	453.193	12.7937
11.0395	453.554	12.8132
11.042	446.894	12.8328
11.0434	453.783	12.8523
11.0442	459.563	12.8718
11.046	450.086	12.8914
11.0468	456.16	12.9109
11.0498	460.282	12.93042
11.0499	456.983	12.95
11.0529	452.252	12.9695
11.0543	465.389	12.989
11.05531	459.639	13.0085
11.0584	458.0481	13.0281
11.0596	463.32	13.0476
11.061	466.298	13.0671
11.0637	457.531	13.08667
11.0645	469.494	13.1062
11.0654	468.854	13.1257
11.0686	460.786	13.1453
11.069	466.6311	13.1648
11.0712	475.71	13.1843
11.0719	465.303	13.2039
11.07314	468.564	13.2234
11.07577	477.574	13.24292
11.07636	470.79	13.2625
11.0783	467.839	13.282
11.081	480.359	13.3015
11.0816	475.289	13.321
11.0833	470.857	13.3406
11.0856	485.7626	13.3601
11.0865	475.575	13.3796
11.0884	472.493	13.39917
11.0909	481.025	13.4187
11.0916	486.706	13.4382
11.0933	476.003	13.4578
11.0954	483.876	13.4773
11.096	485.591	13.4968
11.09852	482.504	13.5164
11.1001	483.074	13.5359
11.1019	492.762	13.55542
11.1023	483.35	13.575
11.1048	485.215	13.5945
11.1057	492.004	13.614
11.1085	490.334	13.6335
11.1094	484.498	13.6531
11.1112	496.077	13.6726
11.1128	496.116	13.6921
11.1139	488.81	13.71167
11.1157	495.112	13.7312
11.1185	499.72	13.7507
11.1203	490.179	13.7703
11.1215	498.855	13.7898
11.122	503.9671	13.8093
11.1243	493.968	13.8289
11.126	497.546	13.8484
11.1275	507.179	13.86792
11.1286	497.549	13.8875
11.1312	496.492	13.907
11.1329	511.338	13.9265
11.1332	501.287	13.946
11.1355	501.484	13.9656
11.1372	509.073	13.9851
11.13913	509.0491	14.0046
11.1408	501.369	14.02417
11.1422	512.961	14.0437
11.1441	511.1373	14.0632
11.14501	506.18	14.0828
11.1478	509.715	14.1023
11.1491	519.446	14.1218
11.1512	508.255	14.1414
11.1519	514.21	14.1609
11.154	516.279	14.18042
11.1549	515.516	14.2
11.1568	512.344	14.2195
11.1588	525.188	14.239
11.1611	517.525	14.2585
11.1617	515.781	14.2781
11.1637	523.195	14.2976
11.1655	523.401	14.3171
11.1671	514.0495	14.33667
11.16771	524.663	14.3562
11.17096	529.2832	14.3757
11.1712	518.24	14.3953
11.1728	525.085	14.4148
11.1751	529.231	14.4343
11.1753	523.054	14.4539
11.178	527.511	14.4734
11.17998	536.712	14.49292
11.1821	523.695	14.5125
11.18234	527.279	14.532
11.1848	537.156	14.5515
11.1862	533.16	14.571
11.1876	528.182	14.5906
11.1908	540.571	14.6101
11.1924	535.688	14.6296
11.1922	532.024	14.64917
11.1947	537.8858	14.6687
11.196	540.806	14.6882
11.19792	532.239	14.7078
11.1984	540.221	14.7273
11.2005	540.199	14.7468
11.2011	536.2934	14.7664
11.2038	538.27	14.7859
11.2061	548.9422	14.80542
11.2074	541.901	14.825
11.2084	540.7901	14.8445
11.2113	547.273	14.864
11.2123	546.385	14.8835
11.2146	541.554	14.9031
11.2156	550.893	14.9226
11.21781	550.976	14.9421
11.2188	542.984	14.96167
11.2202	551.4964	14.9812
11.2217	555.651	15.0007
11.2239	546.377	15.0203
11.2262	551.197	15.0398
11.2276	560.986	15.0593
11.2283	548.694	15.0789
11.2302	555.543	15.0984
11.2314	559.794	15.11792
11.2333	555.3183	15.1375
11.2362	555.324	15.157
11.23704	564.521	15.1765
11.2374	554.537	15.196
11.24	556.466	15.2156
11.2418	565.2547	15.2351
11.2426	565.8446	15.2546
11.24487	558.211	15.27417
11.2464	567.623	15.2937
11.2475	566.894	15.3132
11.2502	561.738	15.3328
11.2514	566.065	15.3523
11.2538	573.252	15.3718
11.254	565.1557	15.3914
11.2568	570.337	15.4109
11.2588	574.123	15.43042
11.2592	569.134	15.45
11.2613	567.334	15.4695
11.2625	577.132	15.489
11.2638	573.634	15.5085
11.26549	567.877	15.5281
11.2673	577.0871	15.5476
11.269	576.673	15.5671
11.271	572.078	15.58667
11.2728	578.051	15.6062
11.2746	583.046	15.6257
11.275	572.06	15.6453
11.277	582.113	15.6648
11.2786	585.362	15.6843
11.2809	578.004	15.7039
11.2824	580.057	15.7234
11.2842	589.433	15.74292
11.2851	578.178	15.7625
11.2872	581.615	15.782
11.2884	589.515	15.8015
11.2903	585.513	15.821
11.29157	584.277	15.8406
11.2938	593.28	15.8601
11.2947	588.121	15.8796
11.2971	585.537	15.89917
11.299	593.945	15.9187
11.3001	596.572	15.9382
11.3017	587.664	15.9578
11.3034	593.774	15.9773
11.3055	596.5144	15.9968
11.3073	593.153	16.0164
11.3086	594.752	16.0359
11.3097	602.157	16.05542
11.3116	596.023	16.075
11.3124	597.2041	16.0945
11.3144	604.421	16.114
11.316	598.505	16.1335
11.3173	595.137	16.1531
11.32	604.749	16.1726
11.3216	606.383	16.1921
11.3237	595.388	16.21167
11.32393	605.887	16.2312
11.3264	607.09	16.2507
11.3279	601.158	16.2703
11.3284	605.509	16.2898
11.3317	613.407	16.3093
11.3322	600.931	16.3289
11.3338	608.713	16.3484
11.3362	615.068	16.36792
11.3372	607.561	16.3875
11.3394	607.797	16.407
11.3407	618.218	16.4265
11.34242	610.198	16.446
11.3445	609.788	16.4656
11.3455	618.049	16.4851
11.3483	618.001	16.5046
11.3492	612.637	16.52417
11.3511	620.5022	16.5437
11.3515	618.917	16.5632
11.3539	613.875	16.5828
11.3556	620.181	16.6023
11.3568	626.156	16.6218
11.3574	616.303	16.6414
11.3603	619.79	16.6609
11.3608	626.9303	16.68042
11.3646	621.155	16.7
11.365	621.562	16.7195
11.3665	628.122	16.739
11.3679	627.437	16.7585
11.3706	621.589	16.7781
11.3711	632.354	16.7976
11.374	629.099	16.8171
11.3744	622.551	16.83667
11.3762	632.5592	16.8562
11.378	637.095	16.8757
11.3805	623.165	16.8953
11.3809	633.732	16.9148
11.3833	640.086	16.9343
11.3854	631.625	16.9539
11.3855	634.214	16.9734
11.3885	643.203	16.99292
11.3894	630.86	17.0125
11.3914	637.501	17.032
11.3922	645.168	17.0515
11.3949	640.391	17.071
11.3962	635.046	17.0906
11.3974	647.469	17.1101
11.3988	641.398	17.1296
11.4007	637.101	17.14917
11.40305	645.235	17.1687
11.4041	648.0426	17.1882
11.4068	642.714	17.2078
11.4082	644.229	17.2273
11.4092	649.3	17.2468
11.4109	643.874	17.2664
11.4134	647.641	17.2859
11.4135	655.054	17.30542
11.4146	648.272	17.325
11.4158	643.908	17.3445
11.4189	658.409	17.364
11.42076	651.86	17.3835
11.4224	649.831	17.4031
11.4236	657.376	17.4226
11.42584	660.175	17.4421
11.428	647.533	17.46167
11.428	660.752	17.4812
11.4303	659.007	17.5007
11.4322	652.889	17.5203
11.4331	660.873	17.5398
11.4344	668.657	17.5593
11.4365	651.73	17.5789
11.4383	661.352	17.5984
11.4406	665.493	17.61792
11.4416	660.264	17.6375
11.4435	660.947	17.657
11.4447	668.174	17.6765
11.4471	661.1134	17.696
11.4487	662.66	17.7156
11.4499	671.505	17.7351
11.4521	668.491	17.7546
11.4537	662.391	17.77417
11.4542	671.159	17.7937
11.4556	672.531	17.8132
11.4583	665.04	17.8328
11.4587	671.157	17.8523
11.4618	675.087	17.8718
11.4638	669.07	17.8914
11.4639	668.906	17.9109
11.4671	678.746	17.93042
11.4675	671.24	17.95
11.46997	672.99	17.9695
11.4715	683.097	17.989
11.4726	677.318	18.0085
11.4735	667.957	18.0281
11.477	684.459	18.0476
11.4772	682.382	18.0671
11.4789	675.936	18.08667
11.4803	683.7254	18.1062
11.4821	686.764	18.1257
11.4845	674.0932	18.1453
11.4863	686.738	18.1648
11.4867	689.0025	18.1843
11.4887	681.196	18.2039
11.4906	686.683	18.2234
11.4924	692.678	18.24292
11.4939	682.638	18.2625
11.4962	684.442	18.282
11.49635	694.661	18.3015
11.4981	690.064	18.321
11.4997	685.986	18.3406
11.5012	694.804	18.3601
11.5039	692.174	18.3796
11.5053	686.814	18.39917
11.50659	697.155	18.4187
11.5084	697.884	18.4382
11.5105	690.847	18.4578
11.5109	694.496	18.4773
11.514	703.747	18.4968
11.515	693.249	18.5164
11.5161	697.245	18.5359
11.5176	705.69	18.55542
11.5197	698.933	18.575
11.5218	695.518	18.5945
11.5237	706.795	18.614
11.52562	699.414	18.6335
11.5272	700.5351	18.6531
11.5273	708.63	18.6726
11.5285	708.375	18.6921
11.5311	694.886	18.71167
11.5333	710.333	18.7312
11.535	710.489	18.7507
11.5357	702.859	18.7703
11.5373	709.362	18.7898
11.5395	714.184	18.8093
11.5407	704.1	18.8289
11.5426	710.5976	18.8484
11.54406	716.873	18.86792
11.5456	707.927	18.8875
11.5478	709.998	18.907
11.549	718.001	18.9265
11.551	713.377	18.946
11.5524	709.011	18.9656
11.5548	719.635	18.9851
11.5556	717.243	19.0046
11.5566	713.997	19.02417
11.5579	717.46	19.0437
11.5604	721.789	19.0632
11.56131	713.153	19.0828
11.5636	722.248	19.1023
11.565	724.842	19.1218
11.5665	718.4585	19.1414
11.5677	717.977	19.1609
11.5711	731.314	19.18042
11.5713	721.182	19.2
11.5739	720.6438	19.2195
11.5748	731.322	19.239
11.5765	727.36	19.2585
11.5776	720.189	19.2781
11.5788	733.884	19.2976
11.58154	730.9931	19.3171
11.5833	724.322	19.33667
11.5847	735.187	19.3562
11.5866	734.759	19.3757
11.5886	723.323	19.3953
11.5903	734.497	19.4148
11.59185	738.567	19.4343
11.5929	729.358	19.4539
11.5955	733.881	19.4734
11.5975	738.7464	19.49292
11.5979	731.518	19.5125
11.59982	735.86	19.532
11.6011	743.655	19.5515
11.6036	736.328	19.571
11.6044	735.345	19.5906
11.606	742.988	19.6101
11.6086	742.357	19.6296
11.6101	733.994	19.64917
11.6112	743.9411	19.6687
11.613	745.111	19.6882
11.615	738.095	19.7078
11.616	742.2428	19.7273
11.6175	748.651	19.7468
11.6198	739.411	19.7664
11.6211	745.669	19.7859
11.6214	752.231	19.80542
11.6238	746.01	19.825
11.6251	742.3457	19.8445
11.6273	755.606	19.864
11.6295	749.083	19.8835
11.6298	744.041	19.9031
11.6321	755.725	19.9226
11.6333	756.11	19.9421
11.63666	745.059	19.96167
11.6378	756.402	19.9812
11.6386	755.971	20.0007
11.6411	749.006	20.0203
11.64	751.854	20.03

Data Header:			0.254_hd_uprint_typei_090_r0			Time:	33.7307	s	4/15/2019 3:57:58 PM
Data Acquisition:	Timed
Station Name:	ft40.cfg
Test File Name:	monotonic_0.2540_typei_hd_090_uprint.tst
Displacement	Force	Running Time
mm	N	s
11.6421	756.405	20.0398
11.6435	759.813	20.0496
11.642	759.051	20.0593
11.6435	757.334	20.0691
11.646	748.125	20.0789
11.6464	751.993	20.0886
11.6471	755.4126	20.0984
11.6472	760.7934	20.1082
11.6483	763.998	20.11792
11.65	756.6347	20.1277
11.6509	755.986	20.1375
11.6505	754.553	20.1472
11.6512	755.5174	20.157
11.6539	762.074	20.1667
11.6531	762.651	20.1765
11.654	766.245	20.1863
11.6542	759.805	20.196
11.6548	754.8316	20.2058
11.65708	755.674	20.2156
11.6576	760.33	20.2253
11.6587	766.795	20.2351
11.6584	765.052	20.2449
11.6597	762.448	20.2546
11.6591	760.27	20.2644
11.661	758.476	20.27417
11.6617	758.846	20.2839
11.6629	765.262	20.2937
11.66323	768.513	20.3035
11.6646	771.406	20.3132
11.6649	763.46	20.323
11.6662	757.399	20.3328
11.6677	762.141	20.3425
11.6676	766.571	20.3523
11.6688	769.831	20.3621
11.6707	770.917	20.3718
11.67	767.366	20.3816
11.6717	764.824	20.3914
11.672	759.566	20.4011
11.6732	763.5155	20.4109
11.6733	769.435	20.4207
11.6739	775.344	20.43042
11.6741	772.335	20.4402
11.6764	765.069	20.45
11.6759	760.872	20.4597
11.6783	766.835	20.4695
11.6786	771.406	20.4792
11.6796	776.877	20.489
11.6813	775.971	20.4988
11.6813	770.186	20.5085
11.68148	766.76	20.5183
11.6819	763.772	20.5281
11.6836	770.249	20.5378
11.6832	778.6629	20.5476
11.6855	778.767	20.5574
11.6848	774.02	20.5671
11.6871	766.837	20.5769
11.6879	766.668	20.58667
11.6883	773.28	20.5964
11.6896	776.49	20.6062
11.6906	780.5329	20.616
11.6905	777.418	20.6257
11.6914	773.961	20.6355
11.6914	768.345	20.6453
11.6926	770.577	20.655
11.6936	777.956	20.6648
11.69465	782.707	20.6746
11.6954	781.967	20.6843
11.6966	774.858	20.6941
11.6979	772.716	20.7039
11.6967	772.613	20.7136
11.6993	778.454	20.7234
11.7002	780.348	20.7332
11.7003	783.192	20.74292
11.7015	781.233	20.7527
11.7026	775.965	20.7625
11.7034	775.501	20.7722
11.7038	775.828	20.782
11.7043	782.511	20.7917
11.7062	788.265	20.8015
11.7054	781.56	20.8113
11.7069	782.01	20.821
11.7078	777.5907	20.8308
11.7085	778.936	20.8406
11.7099	781.229	20.8503
11.709	784.996	20.8601
11.7108	787.921	20.8699
11.7115	786.214	20.8796
11.7131	779.7417	20.8894
11.7147	777.7973	20.89917
11.7138	780.31	20.9089
11.7149	787.727	20.9187
11.7158	789.377	20.9285
11.7162	787.601	20.9382
11.7179	786.629	20.948
11.7182	781.308	20.9578
11.7197	781.561	20.9675
11.7197	783.79	20.9773
11.7204	790.868	20.9871
11.7212	792.8139	20.9968
11.72259	789.553	21.0066
11.7227	782.472	21.0164
11.7238	781.666	21.0261
11.724	786.745	21.0359
11.726	792.982	21.0457
11.72748	795.81	21.05542
11.7269	792.639	21.0652
11.7286	787.369	21.075
11.7301	784.293	21.0847
11.72952	784.617	21.0945
11.7317	792.956	21.1042
11.7309	797.62	21.114
11.7315	798.198	21.1238
11.7325	790.934	21.1335
11.7327	785.696	21.1433
11.7349	788.5777	21.1531
11.7353	794.407	21.1628
11.7347	800.249	21.1726
11.7372	800.8573	21.1824
11.7377	794.584	21.1921
11.7373	792.812	21.2019
11.7393	786.542	21.21167
11.7411	792.8902	21.2214
11.7408	799.359	21.2312
11.7429	801.757	21.241
11.7427	798.404	21.2507
11.7429	791.02	21.2605
11.7453	789.828	21.2703
11.7453	793.438	21.28
11.7462	798.758	21.2898
11.7468	801.107	21.2996
11.7475	800.487	21.3093
11.7481	798.3457	21.3191
11.7501	793.937	21.3289
11.7498	792.565	21.3386
11.7511	797.616	21.3484
11.7518	802.316	21.3582
11.7522	805.964	21.36792
11.7522	800.182	21.3777
11.7535	796.8252	21.3875
11.7548	795.237	21.3972
11.756	798.02	21.407
11.75703	799.8891	21.4167
11.7574	804.923	21.4265
11.7583	805.125	21.4363
11.7584	800.7229	21.446
11.75928	798.06	21.4558
11.7613	795.747	21.4656
11.7618	802.7074	21.4753
11.76157	809.2099	21.4851
11.763	806.142	21.4949
11.7648	807.238	21.5046
11.7658	799.386	21.5144
11.7659	800.17	21.52417
11.7659	800.847	21.5339
11.7671	804.197	21.5437
11.7681	810.304	21.5535
11.76944	809.6319	21.5632
11.7696	803.303	21.573
11.7708	799.941	21.5828
11.7712	799.955	21.5925
11.7726	807.671	21.6023
11.774	812.729	21.6121
11.7741	810.828	21.6218
11.7746	808.06	21.6316
11.77452	802.736	21.6414
11.7752	802.198	21.6511
11.7769	804.626	21.6609
11.7778	811.499	21.6707
11.7782	817.369	21.68042
11.78	814.216	21.6902
11.7804	805.4538	21.7
11.7805	802.728	21.7097
11.782	804.013	21.7195
11.78262	813.933	21.7292
11.7823	815.757	21.739
11.7853	815.104	21.7488
11.7852	810.823	21.7585
11.7867	806.735	21.7683
11.7867	806.508	21.7781
11.7876	812.857	21.7878
11.788	816.714	21.7976
11.7884	819.303	21.8074
11.7893	815.476	21.8171
11.7905	805.694	21.8269
11.7913	806.4353	21.83667
11.79137	812.144	21.8464
11.7932	818.395	21.8562
11.7944	819.2663	21.866
11.7942	816.067	21.8757
11.7951	814.531	21.8855
11.796	809.463	21.8953
11.7973	812.011	21.905
11.7984	816.672	21.9148
11.7979	821.774	21.9246
11.7982	822.88	21.9343
11.8013	814.638	21.9441
11.8015	810.534	21.9539
11.8026	813.844	21.9636
11.8025	815.856	21.9734
11.80319	821.547	21.9832
11.8043	821.2337	21.99292
11.8065	821.481	22.0027
11.8058	817.913	22.0125
11.8069	813.524	22.0222
11.809	814.679	22.032
11.8088	821.1192	22.0417
11.8099	824.491	22.0515
11.8098	822.18	22.0613
11.8104	819.902	22.071
11.8126	816.211	22.0808
11.8129	817.011	22.0906
11.8138	818.63	22.1003
11.81397	822.914	22.1101
11.815	824.6	22.1199
11.8168	825.081	22.1296
11.8177	819.754	22.1394
11.8179	814.2146	22.14917
11.8182	819.227	22.1589
11.8189	825.295	22.1687
11.8194	827.261	22.1785
11.8224	827.564	22.1882
11.82198	819.991	22.198
11.822	818.95	22.2078
11.8232	819.579	22.2175
11.82431	820.863	22.2273
11.8253	829.586	22.2371
11.82648	829.538	22.2468
11.8264	825.453	22.2566
11.82693	819.4176	22.2664
11.8282	816.593	22.2761
11.82825	824.187	22.2859
11.8287	829.365	22.2957
11.831	833.772	22.30542
11.8304	828.693	22.3152
11.83277	825.475	22.325
11.8325	823.427	22.3347
11.8332	821.813	22.3445
11.8352	830.6	22.3542
11.8355	836.743	22.364
11.8368	833.515	22.3738
11.8378	828.3642	22.3835
11.839	821.998	22.3933
11.8393	823.411	22.4031
11.83938	832.991	22.4128
11.8406	833.799	22.4226
11.8418	835.107	22.4324
11.842	831.011	22.4421
11.8429	827.059	22.4519
11.8438	824.838	22.46167
11.8436	829.667	22.4714
11.8451	834.904	22.4812
11.8467	839.627	22.491
11.8461	835.366	22.5007
11.8483	827.203	22.5105
11.8485	825.135	22.5203
11.8497	828.97	22.53
11.8503	835.919	22.5398
11.85107	837.002	22.5496
11.8524	837.959	22.5593
11.8545	834.224	22.5691
11.8527	829.346	22.5789
11.8548	829.095	22.5886
11.8548	831.224	22.5984
11.8564	836.107	22.6082
11.857	842.8111	22.61792
11.8583	834.325	22.6277
11.8582	833.208	22.6375
11.8593	831.0769	22.6472
11.8608	832.718	22.657
11.8606	838.239	22.6667
11.8617	838.3797	22.6765
11.86273	840.301	22.6863
11.8635	837.984	22.696
11.8633	831.6	22.7058
11.8641	829.73	22.7156
11.865	834.223	22.7253
11.8659	841.425	22.7351
11.8662	843.734	22.7449
11.868	839.814	22.7546
11.8684	834.71	22.7644
11.8694	832.522	22.77417
11.8712	834.504	22.7839
11.8719	841.662	22.7937
11.8727	844.25	22.8035
11.8724	844.649	22.8132
11.8735	839.949	22.823
11.8746	833.448	22.8328
11.8752	833.6781	22.8425
11.8755	839.8158	22.8523
11.8774	846.078	22.8621
11.8773	846.14	22.8718
11.8789	840.698	22.8816
11.8796	836.161	22.8914
11.8791	835.653	22.9011
11.8811	835.55	22.9109
11.8826	847.219	22.9207
11.8818	847.21	22.93042
11.88377	846.961	22.9402
11.8838	839.435	22.95
11.886	833.5542	22.9597
11.8858	838.911	22.9695
11.8863	845.952	22.9792
11.8879	848.392	22.989
11.8883	847.162	22.9988
11.8896	839.786	23.0085
11.8898	840.443	23.0183
11.8904	838.437	23.0281
11.8915	844.85	23.0378
11.8926	848.6701	23.0476
11.89323	848.405	23.0574
11.894	846.559	23.0671
11.8951	838.202	23.0769
11.8956	837.881	23.08667
11.8965	844.108	23.0964
11.8967	849.654	23.1062
11.8974	849.623	23.116
11.8997	847.711	23.1257
11.9	842.489	23.1355
11.9012	842.147	23.1453
11.9014	843.9234	23.155
11.90154	845.578	23.1648
11.9034	853.023	23.1746
11.9041	851.917	23.1843
11.9051	846.443	23.1941
11.9047	843.08	23.2039
11.9066	843.392	23.2136
11.9066	848.566	23.2234
11.9073	851.348	23.2332
11.90964	851.267	23.24292
11.9098	851.63	23.2527
11.9114	848.451	23.2625
11.91032	845.077	23.2722
11.9116	845.419	23.282
11.9125	849.191	23.2917
11.9133	857.749	23.3015
11.9145	853.442	23.3113
11.9149	850.947	23.321
11.9161	846.306	23.3308
11.9171	846.6499	23.3406
11.9177	850.832	23.3503
11.9183	851.082	23.3601
11.9198	856.036	23.3699
11.91978	854.896	23.3796
11.9212	848.713	23.3894
11.9218	847.031	23.39917
11.9231	848.336	23.4089
11.9238	853.954	23.4187
11.92479	858.7782	23.4285
11.9242	854.612	23.4382
11.9254	850.917	23.448
11.9271	847.382	23.4578
11.927	848.276	23.4675
11.9272	850.9754	23.4773
11.9289	857.649	23.4871
11.92963	860.587	23.4968
11.9315	856.258	23.5066
11.9308	848.665	23.5164
11.9331	846.5564	23.5261
11.93358	852.22	23.5359
11.9334	859.042	23.5457
11.93542	862.153	23.55542
11.9364	855.688	23.5652
11.93644	850.506	23.575
11.9372	851.2312	23.5847
11.9376	851.047	23.5945
11.93885	858.009	23.6042
11.9405	861.1272	23.614
11.9398	860.784	23.6238
11.94064	856.664	23.6335
11.9433	848.209	23.6433
11.9433	850.665	23.6531
11.9438	857.063	23.6628
11.9456	861.79	23.6726
11.9457	861.4295	23.6824
11.9462	856.938	23.6921
11.947	854.463	23.7019
11.9484	852.166	23.71167
11.9484	856.5835	23.7214
11.9489	860.327	23.7312
11.9496	862.798	23.741
11.9502	863.001	23.7507
11.9521	855.759	23.7605
11.9528	852.467	23.7703
11.9527	856.844	23.78
11.9545	859.75	23.7898
11.9548	864.66	23.7996
11.9566	862.177	23.8093
11.9573	859.247	23.8191
11.9573	857.697	23.8289
11.9576	855.401	23.8386
11.9592	856.74	23.8484
11.9597	862.278	23.8582
11.9614	865.508	23.86792
11.96114	862.286	23.8777
11.9613	858.872	23.8875
11.9623	854.528	23.8972
11.9641	858.2243	23.907
11.965	862.749	23.9167
11.9658	863.28	23.9265
11.9662	866.762	23.9363
11.967	862.055	23.946
11.9684	859.255	23.9558
11.9692	856.0705	23.9656
11.9687	859.847	23.9753
11.9711	867.145	23.9851
11.97228	866.783	23.9949
11.9729	865.26	24.0046
11.9724	858.1	24.0144
11.9732	857.4588	24.02417
11.9751	861.443	24.0339
11.9751	864.2	24.0437
11.976	869.165	24.0535
11.977	868.837	24.0632
11.97809	863.474	24.073
11.9788	857.121	24.0828
11.9794	856.396	24.0925
11.9803	862.755	24.1023
11.9815	870.872	24.1121
11.9815	869.54	24.1218
11.9835	864.387	24.1316
11.98418	859.456	24.1414
11.9848	859.292	24.1511
11.9855	863.888	24.1609
11.9859	868.086	24.1707
11.98675	871.483	24.18042
11.9876	870.0838	24.1902
11.9894	861.644	24.2
11.98882	857.499	24.2097
11.9904	860.801	24.2195
11.9899	867.55	24.2292
11.9922	872.852	24.239
11.9921	866.342	24.2488
11.993	864.1745	24.2585
11.9951	861.572	24.2683
11.9952	861.178	24.2781
11.9961	865.8858	24.2878
11.9975	869.736	24.2976
11.9978	871.006	24.3074
11.9982	867.305	24.3171
11.9996	860.357	24.3269
11.9996	862.1936	24.33667
12.0011	866.009	24.3464
12.0018	871.784	24.3562
12.00307	873.216	24.366
12.0026	865.89	24.3757
12.0041	866.597	24.3855
12.00479	864.625	24.3953
12.005	863.503	24.405
12.0068	868.591	24.4148
12.0071	869.8902	24.4246
12.008	873.364	24.4343
12.0089	866.273	24.4441
12.01	863.6817	24.4539
12.01	863.083	24.4636
12.0104	866.897	24.4734
12.0113	871.126	24.4832
12.0132	870.522	24.49292
12.0139	868.992	24.5027
12.0153	869.139	24.5125
12.0156	864.518	24.5222
12.0162	864.778	24.532
12.0176	867.612	24.5417
12.0178	873.601	24.5515
12.0184	873.985	24.5613
12.0194	869.806	24.571
12.021	864.211	24.5808
12.0212	866.527	24.5906
12.0216	869.508	24.6003
12.0233	871.546	24.6101
12.0232	873.7948	24.6199
12.0243	871.594	24.6296
12.02528	867.391	24.6394
12.0261	863.076	24.64917
12.0264	864.713	24.6589
12.0279	872.823	24.6687
12.0295	876.624	24.6785
12.0284	875.376	24.6882
12.02965	867.456	24.698
12.0306	863.3996	24.7078
12.0306	867.964	24.7175
12.0328	868.857	24.7273
12.0342	876.658	24.7371
12.0347	875.386	24.7468
12.0354	872.859	24.7566
12.0357	867.63	24.7664
12.0354	862.563	24.7761
12.0376	868.742	24.7859
12.0377	876.4834	24.7957
12.0391	878.835	24.80542
12.0391	873.846	24.8152
12.0413	867.212	24.825
12.0414	867.519	24.8347
12.0421	868.092	24.8445
12.0432	872.272	24.8542
12.044	875.716	24.864
12.0449	875.086	24.8738
12.0448	871.863	24.8835
12.0468	865.689	24.8933
12.0467	865.989	24.9031
12.0474	872.139	24.9128
12.0486	878.69	24.9226
12.05	877.586	24.9324
12.05	870.404	24.9421
12.0517	868.214	24.9519
12.0514	869.117	24.96167
12.0527	871.2204	24.9714
12.0537	872.711	24.9812
12.05515	875.805	24.991
12.0557	876.664	25.0007
12.057	868.534	25.0105
12.0566	868.007	25.0203
12.0574	866.222	25.03
12.0587	872.305	25.0398
12.0596	878.474	25.0496
12.0599	872.067	25.0593
12.0612	873.285	25.0691
12.0623	869.7735	25.0789
12.0635	868.128	25.0886
12.0639	870.827	25.0984
12.0635	873.068	25.1082
12.0642	879.581	25.11792
12.0658	875.876	25.1277
12.0663	870.9975	25.1375
12.06845	867.476	25.1472
12.0688	869.495	25.157
12.0688	873.2323	25.1667
12.0696	874.856	25.1765
12.0712	877.315	25.1863
12.0716	873.13	25.196
12.0721	868.708	25.2058
12.07249	868.199	25.2156
12.0748	868.926	25.2253
12.0761	875.125	25.2351
12.0759	879.79	25.2449
12.07651	874.257	25.2546
12.0766	868.616	25.2644
12.0786	867.979	25.27417
12.0791	870.763	25.2839
12.0797	875.797	25.2937
12.0796	878.8559	25.3035
12.0811	875.624	25.3132
12.0813	872.77	25.323
12.0827	868.209	25.3328
12.0831	865.749	25.3425
12.0849	871.609	25.3523
12.0849	879.864	25.3621
12.086	879.835	25.3718
12.0872	872.191	25.3816
12.0879	866.637	25.3914
12.0886	868.108	25.4011
12.0888	870.372	25.4109
12.09009	878.295	25.4207
12.0913	876.516	25.43042
12.091	876.802	25.4402
12.092	871.698	25.45
12.0932	863.9754	25.4597
12.09416	868.822	25.4695
12.0951	876.95	25.4792
12.096	879.2356	25.489
12.09683	877.123	25.4988
12.0975	870.646	25.5085
12.0971	868.278	25.5183
12.0996	870.945	25.5281
12.1001	873.673	25.5378
12.1007	875.899	25.5476
12.1008	878.032	25.5574
12.1007	875.73	25.5671
12.1032	868.382	25.5769
12.1045	868.991	25.58667
12.1048	871.433	25.5964
12.1058	877.356	25.6062
12.107	877.751	25.616
12.1069	875.465	25.6257
12.108	870.912	25.6355
12.1095	869.888	25.6453
12.1097	871.257	25.655
12.111	871.862	25.6648
12.1114	876.382	25.6746
12.1111	879.467	25.6843
12.1128	874.226	25.6941
12.1141	869.486	25.7039
12.1142	867.389	25.7136
12.116	873.268	25.7234
12.1168	877.862	25.7332
12.1182	876.886	25.74292
12.1178	876.551	25.7527
12.1188	871.409	25.7625
12.1195	871.045	25.7722
12.1202	869.528	25.782
12.12077	871.565	25.7917
12.1216	878.893	25.8015
12.1224	880.111	25.8113
12.1245	872.728	25.821
12.1241	870	25.8308
12.12468	868.116	25.8406
12.1259	875.143	25.8503
12.1269	877.6167	25.8601
12.1287	878.823	25.8699
12.1282	875.084	25.8796
12.1297	872.57	25.8894
12.1307	868.306	25.89917
12.1303	868.729	25.9089
12.1314	875.179	25.9187
12.1324	881.508	25.9285
12.1331	878.744	25.9382
12.1343	870.6048	25.948
12.1357	865.985	25.9578
12.1354	869.117	25.9675
12.1376	874.367	25.9773
12.1373	877.235	25.9871
12.1388	876.217	25.9968
12.13873	875.281	26.0066
12.1404	869.289	26.0164
12.1404	864.522	26.0261
12.1412	871.444	26.0359
12.1427	877.531	26.0457
12.1434	880.32	26.05542
12.1445	875.542	26.0652
12.1438	868.975	26.075
12.146	867.921	26.0847
12.1464	870.981	26.0945
12.14817	877.251	26.1042
12.1484	876.801	26.114
12.1473	877.65	26.1238
12.1493	873.3761	26.1335
12.1496	867.232	26.1433
12.1518	869.251	26.1531
12.1522	873.359	26.1628
12.1541	878.73	26.1726
12.15382	879.649	26.1824
12.1543	869.727	26.1921
12.1559	869.616	26.2019
12.1563	870.073	26.21167
12.1564	868.957	26.2214
12.1585	876.303	26.2312
12.15896	876.27	26.241
12.1591	877.616	26.2507
12.16037	872.032	26.2605
12.1608	867.463	26.2703
12.1622	868.8949	26.28
12.163	874.435	26.2898
12.1639	877.21	26.2996
12.16434	876.309	26.3093
12.1656	873.107	26.3191
12.166	869.918	26.3289
12.167	870.3092	26.3386
12.1675	868.359	26.3484
12.1676	874.282	26.3582
12.1685	877.465	26.36792
12.1702	876.937	26.3777
12.1709	871.346	26.3875
12.1717	864.357	26.3972
12.1728	868.126	26.407
12.17363	875.246	26.4167
12.17345	874.265	26.4265
12.1741	876.375	26.4363
12.176	871.006	26.446
12.1767	868.706	26.4558
12.1767	867.212	26.4656
12.1776	868.494	26.4753
12.17884	874.568	26.4851
12.181	879.345	26.4949
12.1803	875.289	26.5046
12.1822	867.439	26.5144
12.1813	863.096	26.52417
12.1833	869.628	26.5339
12.1837	873.899	26.5437
12.1844	878.856	26.5535
12.1858	875.44	26.5632
12.1861	869.261	26.573
12.1875	866.364	26.5828
12.188	865.7738	26.5925
12.1884	871.264	26.6023
12.1894	876.832	26.6121
12.19019	876.072	26.6218
12.1914	871.482	26.6316
12.1917	864.568	26.6414
12.1927	864.784	26.6511
12.1941	869.834	26.6609
12.1944	874.332	26.6707
12.1948	876.107	26.68042
12.196	874.82	26.6902
12.1966	868.522	26.7
12.1983	864.71	26.7097
12.1979	868.587	26.7195
12.1979	872.5368	26.7292
12.2	877.642	26.739
12.2012	873.875	26.7488
12.2014	867.535	26.7585
12.2028	864.915	26.7683
12.2039	867.914	26.7781
12.2035	871.589	26.7878
12.2047	873.248	26.7976
12.2075	874.716	26.8074
12.2064	872.815	26.8171
12.2082	865.09	26.8269
12.2086	866.006	26.83667
12.2094	866.1272	26.8464
12.20927	873.5061	26.8562
12.2101	876.969	26.866
12.212	871.979	26.8757
12.21083	866.948	26.8855
12.2137	865.715	26.8953
12.2132	866.422	26.905
12.215	869.8772	26.9148
12.2156	871.904	26.9246
12.216	873.238	26.9343
12.2178	872.144	26.9441
12.2187	866.371	26.9539
12.2194	864.647	26.9636
12.2195	866.052	26.9734
12.2204	873.962	26.9832
12.2213	873.487	26.99292
12.2224	872.318	27.0027
12.2224	868.266	27.0125
12.2239	864.068	27.0222
12.2242	865.886	27.032
12.22528	869.895	27.0417
12.2259	874.387	27.0515
12.227	876.278	27.0613
12.228	870.24	27.071
12.22816	862.738	27.0808
12.2307	862.672	27.0906
12.2302	867.955	27.1003
12.231	872.238	27.1101
12.2322	875.569	27.1199
12.2333	868.476	27.1296
12.2329	865.829	27.1394
12.2333	863.688	27.14917
12.23504	863.2	27.1589
12.2361	871.166	27.1687
12.2378	874.943	27.1785
12.2369	873.309	27.1882
12.2376	866.139	27.198
12.2396	860.908	27.2078
12.2396	864.197	27.2175
12.24067	868.511	27.2273
12.2416	872.464	27.2371
12.24159	871.977	27.2468
12.2436	867.678	27.2566
12.2444	863.596	27.2664
12.2444	859.782	27.2761
12.2462	866.729	27.2859
12.2471	872.227	27.2957
12.2478	873.018	27.30542
12.2475	869.975	27.3152
12.249	861.2	27.325
12.2498	859.7337	27.3347
12.2518	865.775	27.3445
12.2516	869.628	27.3542
12.2526	872.052	27.364
12.2534	869.174	27.3738
12.2541	866.213	27.3835
12.2552	862.3916	27.3933
12.2563	862.708	27.4031
12.2563	865.574	27.4128
12.257	872.947	27.4226
12.2584	871.9444	27.4324
12.2578	866.423	27.4421
12.2599	862.633	27.4519
12.25977	862.431	27.46167
12.26071	865.659	27.4714
12.2635	867.416	27.4812
12.2633	869.644	27.491
12.2637	869.427	27.5007
12.2646	864.781	27.5105
12.2644	861.476	27.5203
12.2661	860.8634	27.53
12.26685	865.913	27.5398
12.2681	871.891	27.5496
12.2687	866.88	27.5593
12.2696	866.135	27.5691
12.2695	861.1496	27.5789
12.2705	860.36	27.5886
12.2724	863.122	27.5984
12.2719	864.933	27.6082
12.2731	869.958	27.61792
12.2738	869.345	27.6277
12.2748	863.867	27.6375
12.2759	858.771	27.6472
12.2774	859.634	27.657
12.2779	866.584	27.6667
12.278	869.008	27.6765
12.2787	869.018	27.6863
12.2792	864.331	27.696
12.2806	860.184	27.7058
12.281	859.777	27.7156
12.2818	861.733	27.7253
12.2836	867.439	27.7351
12.2833	871.682	27.7449
12.2838	867.506	27.7546
12.2854	859.828	27.7644
12.2859	857.019	27.77417
12.2857	859.176	27.7839
12.2877	867.0733	27.7937
12.2884	870.897	27.8035
12.2902	865.056	27.8132
12.2896	863.683	27.823
12.2909	857.262	27.8328
12.2931	857.339	27.8425
12.2936	863.333	27.8523
12.294	868.098	27.8621
12.2947	871.023	27.8718
12.2953	862.93	27.8816
12.2955	855.154	27.8914
12.2965	856.664	27.9011
12.2982	861.311	27.9109
12.29852	867.6626	27.9207
12.2997	867.328	27.93042
12.3009	863.69	27.9402
12.3011	860.463	27.95
12.3025	856.868	27.9597
12.3029	858.8	27.9695
12.3036	865.705	27.9792
12.3036	868.812	27.989
12.3049	867.37	27.9988
12.3057	858.239	28.0085
12.3079	857.392	28.0183
12.3077	860.04	28.0281
12.3077	861.218	28.0378
12.3084	866.223	28.0476
12.31	864.8313	28.0574
12.3107	864.34	28.0671
12.3116	860.71	28.0769
12.31157	856.106	28.08667
12.3131	858.898	28.0964
12.3133	863.693	28.1062
12.3161	868.357	28.116
12.316	862.0752	28.1257
12.3163	858.621	28.1355
12.3175	856.168	28.1453
12.319	859.471	28.155
12.3187	861.044	28.1648
12.3197	862.46	28.1746
12.3198	866.448	28.1843
12.3214	864.05	28.1941
12.3216	858.421	28.2039
12.3234	853.3764	28.2136
12.32432	857.726	28.2234
12.326	867.0647	28.2332
12.3244	863.618	28.24292
12.3258	865.593	28.2527
12.3265	858.1861	28.2625
12.3284	854.797	28.2722
12.3291	858.405	28.282
12.32945	857.344	28.2917
12.3309	864.946	28.3015
12.3312	866.075	28.3113
12.3321	860.792	28.321
12.3334	855.283	28.3308
12.3336	851.397	28.3406
12.3339	860.866	28.3503
12.3351	865.693	28.3601
12.3359	865.532	28.3699
12.3369	863.1582	28.3796
12.3375	856.898	28.3894
12.3388	854.6449	28.39917
12.3401	855.906	28.4089
12.3402	861.701	28.4187
12.3421	866.211	28.4285
12.3414	863.678	28.4382
12.3425	857.203	28.448
12.3431	851.639	28.4578
12.3439	853.207	28.4675
12.3443	861.799	28.4773
12.3462	865.559	28.4871
12.3468	861.049	28.4968
12.34762	860.2052	28.5066
12.348	855.859	28.5164
12.3497	853.236	28.5261
12.3505	858.198	28.5359
12.3507	860.948	28.5457
12.3514	865.594	28.55542
12.3518	861.2973	28.5652
12.3527	852.532	28.575
12.3531	851.754	28.5847
12.3544	854.272	28.5945
12.35463	862.997	28.6042
12.3557	863.565	28.614
12.357	860.2464	28.6238
12.3593	858.466	28.6335
12.3591	854.154	28.6433
12.35965	853.52	28.6531
12.3604	857.7782	28.6628
12.3614	861.382	28.6726
12.36272	863.563	28.6824
12.363	856.015	28.6921
12.3638	854.166	28.7019
12.3649	853.82	28.71167
12.3651	854.8042	28.7214
12.3661	860.192	28.7312
12.36798	859.948	28.741
12.3679	858.723	28.7507
12.3682	858.832	28.7605
12.3692	851.458	28.7703
12.37076	851.892	28.78
12.371	857.2	28.7898
12.3724	860.936	28.7996
12.3729	860.848	28.8093
12.3733	856.712	28.8191
12.3743	852.497	28.8289
12.3745	852.674	28.8386
12.3755	854.387	28.8484
12.3759	858.664	28.8582
12.3782	861.25	28.86792
12.3777	859.893	28.8777
12.379	856.139	28.8875
12.3798	850.091	28.8972
12.3815	850.591	28.907
12.3812	857.614	28.9167
12.3818	861.261	28.9265
12.3833	861.772	28.9363
12.38378	854.16	28.946
12.3858	852.238	28.9558
12.3857	851.974	28.9656
12.3865	851.649	28.9753
12.3873	860.704	28.9851
12.3878	862.061	28.9949
12.3885	859.118	29.0046
12.3892	852.406	29.0144
12.3898	846.116	29.02417
12.3916	852.874	29.0339
12.3917	860.6507	29.0437
12.3928	860.694	29.0535
12.3941	859.624	29.0632
12.3949	853.034	29.073
12.395	851.804	29.0828
12.3959	848.047	29.0925
12.3968	856.435	29.1023
12.3977	861.22	29.1121
12.3983	860.352	29.1218
12.3994	855.3429	29.1316
12.39839	847.858	29.1414
12.4008	847.314	29.1511
12.4022	856.547	29.1609
12.4031	860.497	29.1707
12.4041	858.427	29.18042
12.4039	856.0531	29.1902
12.4052	851.596	29.2
12.406	848.997	29.2097
12.40745	851.776	29.2195
12.4079	854.976	29.2292
12.408	859.799	29.239
12.4089	860.639	29.2488
12.40907	851.222	29.2585
12.4104	847.733	29.2683
12.4116	848.889	29.2781
12.4123	856.226	29.2878
12.4141	857.332	29.2976
12.4143	855.987	29.3074
12.4153	855.676	29.3171
12.4156	851.651	29.3269
12.4169	847.564	29.33667
12.418	849.865	29.3464
12.41809	855.057	29.3562
12.4174	860.444	29.366
12.42	856.169	29.3757
12.4205	853.737	29.3855
12.4215	848.731	29.3953
12.4219	849.633	29.405
12.4222	855.768	29.4148
12.4245	854.469	29.4246
12.4246	856.795	29.4343
12.4258	857.207	29.4441
12.4266	849.943	29.4539
12.4272	849.074	29.4636
12.4272	850.717	29.4734
12.429	857.814	29.4832
12.4308	860.6073	29.49292
12.4308	855.265	29.5027
12.431	850.625	29.5125
12.4326	848.134	29.5222
12.4319	849.929	29.532
12.4334	852.6424	29.5417
12.4345	857.997	29.5515
12.4354	858.0968	29.5613
12.4362	854.247	29.571
12.4376	846.6123	29.5808
12.4367	845.924	29.5906
12.4386	849.805	29.6003
12.4397	858.095	29.6101
12.4393	859.172	29.6199
12.4402	852.929	29.6296
12.4411	848.128	29.6394
12.4422	845.72	29.64917
12.4431	848.248	29.6589
12.4445	856.043	29.6687
12.4444	856.703	29.6785
12.4457	858.765	29.6882
12.4467	851.966	29.698
12.4476	842.3631	29.7078
12.448	847.905	29.7175
12.4497	853.916	29.7273
12.4499	858.243	29.7371
12.4508	856.329	29.7468
12.4521	850.515	29.7566
12.4528	849.25	29.7664
12.4527	845.274	29.7761
12.4537	849.557	29.7859
12.4544	854.431	29.7957
12.4563	856.427	29.80542
12.4559	853.3894	29.8152
12.4566	845.957	29.825
12.45811	844.368	29.8347
12.4583	850.692	29.8445
12.4602	853.015	29.8542
12.4598	855.715	29.864
12.4609	853.056	29.8738
12.4618	849.633	29.8835
12.463	847.533	29.8933
12.4633	846.701	29.9031
12.4653	848.994	29.9128
12.4652	855.9696	29.9226
12.4653	856.797	29.9324
12.4677	852.1048	29.9421
12.4674	847.56	29.9519
12.4689	844.858	29.96167
12.469	850.8916	29.9714
12.4695	853.488	29.9812
12.4723	853.891	29.991
12.4719	853.889	30.0007
12.4728	850.902	30.0105
12.4729	846.3316	30.0203
12.4739	844.7049	30.03
12.4759	848.319	30.0398
12.4775	857.174	30.0496
12.4763	854.835	30.0593
12.4775	852.172	30.0691
12.4787	844.976	30.0789
12.47962	845.744	30.0886
12.4806	848.7085	30.0984
12.4808	850.666	30.1082
12.4823	854.39	30.11792
12.4819	853.253	30.1277
12.4847	848.39	30.1375
12.4842	844.971	30.1472
12.4852	842.691	30.157
12.4862	850.704	30.1667
12.4866	856.244	30.1765
12.4877	852.246	30.1863
12.488	847.844	30.196
12.49	842.942	30.2058
12.4892	844.496	30.2156
12.4908	847.228	30.2253
12.4914	854.571	30.2351
12.4927	855.038	30.2449
12.4923	852.11	30.2546
12.4937	844.2984	30.2644
12.49451	840.722	30.27417
12.4949	845.089	30.2839
12.4967	852.772	30.2937
12.4973	855.074	30.3035
12.4976	851.554	30.3132
12.4996	846.336	30.323
12.4995	843.388	30.3328
12.5001	843.596	30.3425
12.5011	850.634	30.3523
12.50168	851.7157	30.3621
12.5022	855.083	30.3718
12.5037	850.333	30.3816
12.5054	841.9566	30.3914
12.5049	843.653	30.4011
12.5054	845.314	30.4109
12.5066	854.376	30.4207
12.5076	853.44	30.43042
12.50865	847.053	30.4402
12.5086	845.849	30.45
12.5093	842.776	30.4597
12.5107	845.403	30.4695
12.5123	849.261	30.4792
12.513	853.637	30.489
12.5135	853.953	30.4988
12.5147	846.243	30.5085
12.5152	842.199	30.5183
12.5166	844.6275	30.5281
12.5167	848.118	30.5378
12.5168	851.908	30.5476
12.5179	848.876	30.5574
12.5189	847.657	30.5671
12.52035	845.056	30.5769
12.5214	841.313	30.58667
12.5215	843.624	30.5964
12.5219	850.072	30.6062
12.5234	852.5614	30.616
12.5246	850.968	30.6257
12.5244	846.646	30.6355
12.5262	840.151	30.6453
12.5259	843.824	30.655
12.52688	845.8736	30.6648
12.5279	848.164	30.6746
12.52876	851.352	30.6843
12.5298	847.525	30.6941
12.5307	842.2464	30.7039
12.5307	840.121	30.7136
12.5313	842.652	30.7234
12.53356	851.058	30.7332
12.5343	851.131	30.74292
12.5347	850.134	30.7527
12.5353	842.596	30.7625
12.5352	840.896	30.7722
12.53728	844.398	30.782
12.5376	844.494	30.7917
12.5386	852.062	30.8015
12.5393	851.165	30.8113
12.5398	846.38	30.821
12.54089	840.73	30.8308
12.5419	837.983	30.8406
12.54408	844.235	30.8503
12.5431	851.752	30.8601
12.544	853.831	30.8699
12.5456	846.837	30.8796
12.5462	839.923	30.8894
12.54646	840.521	30.89917
12.5474	842.538	30.9089
12.5476	847.606	30.9187
12.5488	851.584	30.9285
12.55	850.315	30.9382
12.551	843.327	30.948
12.5512	838.09	30.9578
12.5527	838.925	30.9675
12.5533	847.263	30.9773
12.5545	851.407	30.9871
12.55465	847.806	30.9968
12.5562	844.933	31.0066
12.5569	841.234	31.0164
12.5578	840.92	31.0261
12.5581	843.193	31.0359
12.5589	845.287	31.0457
12.5588	850.135	31.05542
12.5618	848.049	31.0652
12.5607	838.598	31.075
12.5622	838.878	31.0847
12.5629	840.792	31.0945
12.564	846.747	31.1042
12.5657	850.395	31.114
12.5669	845.726	31.1238
12.5662	843.617	31.1335
12.5674	839.095	31.1433
12.5675	840.2	31.1531
12.5683	840.984	31.1628
12.569	846.6889	31.1726
12.5697	850.516	31.1824
12.5713	844.645	31.1921
12.5723	841.456	31.2019
12.5731	838.376	31.21167
12.5725	840.7641	31.2214
12.5745	846.886	31.2312
12.5763	846.158	31.241
12.5756	844.629	31.2507
12.5768	842.941	31.2605
12.5773	839.745	31.2703
12.5786	839.829	31.28
12.5788	841.951	31.2898
12.5793	847.968	31.2996
12.5804	849.555	31.3093
12.5822	843.502	31.3191
12.5817	836.664	31.3289
12.5832	836.456	31.3386
12.5832	840.408	31.3484
12.5853	844.832	31.3582
12.5856	847.278	31.36792
12.5863	845.541	31.3777
12.5877	841.4707	31.3875
12.5884	834.829	31.3972
12.5878	835.915	31.407
12.5899	843.439	31.4167
12.59041	848.566	31.4265
12.5913	848.029	31.4363
12.5924	840.92	31.446
12.5931	834.789	31.4558
12.5939	838.158	31.4656
12.5949	839.709	31.4753
12.5963	846.374	31.4851
12.5956	846.129	31.4949
12.5969	843.106	31.5046
12.5987	837.671	31.5144
12.5992	834.167	31.52417
12.5994	837.685	31.5339
12.6001	845.528	31.5437
12.6024	846.543	31.5535
12.6026	844.797	31.5632
12.6042	836.524	31.573
12.6048	835.36	31.5828
12.6037	837.125	31.5925
12.60523	839.203	31.6023
12.6058	844.037	31.6121
12.6074	845.16	31.6218
12.6078	840.7879	31.6316
12.6084	834.25	31.6414
12.6085	832.135	31.6511
12.6098	837.903	31.6609
12.6116	843.9209	31.6707
12.61077	843.354	31.68042
12.6132	839.6	31.6902
12.61302	833.48	31.7
12.6147	833.3443	31.7097
12.6144	834.219	31.7195
12.6168	834.867	31.7292
12.6168	837.76	31.739
12.61779	835.048	31.7488
12.61813	825.7	31.7585
12.6193	819.931	31.7683
12.6253	-80.0183	31.7781
12.6274	-9.97957	31.7878
12.627	-55.5579	31.7976
12.6273	-50.729	31.8074
12.6274	-50.9762	31.8171
12.6268	-49.825	31.8269
12.6268	-46.6059	31.83667
12.628	-51.1097	31.8464
12.6279	-46.5873	31.8562
12.6288	-40.7171	31.866
12.6292	-43.84726	31.8757
12.6303	-48.2159	31.8855
12.6304	-52.524	31.8953
12.6312	-53.37674	31.905
12.632	-45.0213	31.9148
12.6342	-44.3834	31.9246
12.6343	-41.8289	31.9343
12.6357	-46.3273	31.9441
12.6356	-48.8492	31.9539
12.6371	-50.8806	31.9636
12.637	-51.8155	31.9734
12.638	-44.17411	31.9832
12.6379	-37.2184	31.99292
12.6402	-44.53286	32.0027
12.6399	-50.2438	32.0125
12.6412	-52.8424	32.0222
12.6416	-49.267	32.032
12.642	-46.1405	32.0417
12.6429	-40.8539	32.0515
12.644	-42.6997	32.0613
12.6452	-44.7895	32.071
12.64518	-51.6915	32.0808
12.6472	-54.2276	32.0906
12.6487	-47.5795	32.1003
12.648	-40.1946	32.1101
12.6489	-40.91227	32.1199
12.6502	-46.3857	32.1296
12.6512	-51.8474	32.1394
12.6516	-51.9226	32.14917
12.6528	-49.3939	32.1589
12.653	-42.3776	32.1687
12.6544	-41.7209	32.1785
12.6541	-42.6485	32.1882
12.6553	-47.2648	32.198
12.6569	-54.4578	32.2078
12.6575	-51.1153	32.2175
12.6582	-45.55	32.2273
12.6584	-40.7136	32.2371
12.6596	-41.908	32.2468
12.6604	-51.4796	32.2566
12.6614	-51.016	32.2664
12.6621	-50.6094	32.2761
12.6624	-48.1293	32.2859
12.66374	-42.4652	32.2957
12.6647	-43.549	32.30542
12.6645	-43.059	32.3152
12.666	-48.7181	32.325
12.6669	-53.4035	32.3347
12.6676	-49.2592	32.3445
12.6692	-44.95747	32.3542
12.6687	-42.3326	32.364
12.6713	-43.7456	32.3738
12.6709	-49.3257	32.3835
12.6696	-49.0068	32.3933
12.67163	-51.613	32.4031
12.6735	-47.2131	32.4128
12.6745	-44.7368	32.4226
12.6756	-42.3827	32.4324
12.6754	-42.966	32.4421
12.6766	-48.2492	32.4519
12.6773	-53.3149	32.46167
12.6782	-47.6502	32.4714
12.6789	-44.6452	32.4812
12.6793	-44.2015	32.491
12.6807	-42.7997	32.5007
12.6816	-47.4524	32.5105
12.68191	-49.2263	32.5203
12.6835	-52.5306	32.53
12.6837	-49.4173	32.5398
12.6852	-42.5992	32.5496
12.6846	-40.8563	32.5593
12.6862	-44.5957	32.5691
12.68732	-52.121	32.5789
12.6877	-55.08065	32.5886
12.6875	-47.5781	32.5984
12.6904	-45.97765	32.6082
12.6909	-40.6479	32.61792
12.6916	-43.2943	32.6277
12.69174	-49.0893	32.6375
12.6928	-51.4897	32.6472
12.6939	-54.368	32.657
12.6941	-46.7826	32.6667
12.6949	-39.313	32.6765
12.69717	-41.2383	32.6863
12.6977	-46.8592	32.696
12.6976	-53.0422	32.7058
12.6988	-52.2201	32.7156
12.6995	-47.5208	32.7253
12.7006	-42.7801	32.7351
12.7001	-42.5589	32.7449
12.702	-42.9541	32.7546
12.7021	-51.4988	32.7644
12.7025	-53.6204	32.77417
12.7049	-50.5494	32.7839
12.7043	-41.88	32.7937
12.7057	-40.0466	32.8035
12.70627	-45.0687	32.8132
12.7071	-50.6944	32.823
12.7075	-53.3574	32.8328
12.7088	-52.5381	32.8425
12.7099	-44.6207	32.8523
12.7101	-44.3569	32.8621
12.71144	-42.5242	32.8718
12.7123	-44.6763	32.8816
12.7132	-52.851	32.8914
12.7137	-51.0419	32.9011
12.7149	-49.2119	32.9109
12.7159	-41.5859	32.9207
12.7168	-41.8018	32.93042
12.7172	-47.4977	32.9402
12.7175	-47.9463	32.95
12.7195	-50.0724	32.9597
12.719	-49.117	32.9695
12.72114	-47.2111	32.9792
12.7221	-44.3035	32.989
12.7221	-42.0971	32.9988
12.7225	-46.6093	33.0085
12.7234	-51.5097	33.0183
12.7241	-51.3543	33.0281
12.7262	-47.2735	33.0378
12.7262	-42.4553	33.0476
12.727	-44.13023	33.0574
12.7281	-44.7226	33.0671
12.7286	-48.7036	33.0769
12.7304	-51.0848	33.08667
12.73	-50.8395	33.0964
12.7312	-47.02433	33.1062
12.7322	-41.8221	33.116
12.7321	-42.2972	33.1257
12.7333	-49.5026	33.1355
12.7351	-54.2761	33.1453
12.7343	-50.3081	33.155
12.73595	-47.4056	33.1648
12.7357	-44.1562	33.1746
12.73602	-41.7962	33.1843
12.7384	-46.9853	33.1941
12.7382	-48.8479	33.2039
12.739	-52.6124	33.2136
12.7401	-52.3022	33.2234
12.7418	-42.9878	33.2332
12.7419	-40.9497	33.24292
12.7435	-42.2853	33.2527
12.7428	-48.5088	33.2625
12.7446	-56.4906	33.2722
12.74538	-48.8692	33.282
12.7463	-46.22945	33.2917
12.7479	-41.1223	33.3015
12.7482	-42.8342	33.3113
12.7494	-47.23682	33.321
12.7496	-49.3313	33.3308
12.7509	-53.4455	33.3406
12.7515	-48.676	33.3503
12.7518	-40.9236	33.3601
12.7541	-40.9686	33.3699
12.7536	-43.0901	33.3796
12.7543	-51.2808	33.3894
12.7558	-52.873	33.39917
12.7567	-47.2013	33.4089
12.75732	-44.0556	33.4187
12.7587	-42.1326	33.4285
12.7597	-43.385	33.4382
12.75964	-48.6806	33.448
12.7605	-51.2764	33.4578
12.7604	-53.0831	33.4675
12.7624	-45.5371	33.4773
12.7623	-39.8485	33.4871
12.7632	-43.7545	33.4968
12.7642	-48.475	33.5066
12.7652	-51.6223	33.5164
12.76566	-49.3776	33.5261
12.7666	-47.5097	33.5359
12.7679	-45.7357	33.5457
12.7678	-42.744	33.55542
12.7694	-42.01292	33.5652
12.77	-50.1198	33.575
12.7706	-49.826	33.5847
12.7704	-50.8616	33.5945
12.7727	-45.786	33.6042
12.77376	-41.6129	33.614
12.7751	-44.9373	33.6238
12.7754	-46.3092	33.6335
12.77532	-51.1873	33.6433
12.7768	-49.1241	33.6531
12.7764	-48.4059	33.6628
12.7787	-45.7323	33.6726
12.7783	-41.3453	33.6824
12.77986	-44.88641	33.6921
12.7799	-49.4837	33.7019
12.7816	-52.1239	33.71167
12.7833	-49.37833	33.7214