File: data/processed_data_files/tensile/0.254_solid_dimension_typei_4545_r(2).dat
MTS793|BTW|ENU|1|2|.|/|:|1|0|0|A

Data Header:			0.254_solid_dimension_typei_4545_r0			Time:	20.0181	s	4/14/2019 4:45:08 AM
Data Acquisition:	Timed
Station Name:	ft40.cfg
Test File Name:	monotonic_0.2540_typei_solid_4545_dimension.tst
Displacement	Force	Running Time
mm	N	s
9.95782	-134.678	0.0234375
9.95761	-144.5	0.04296875
9.95832	-133.791	0.0625
9.96049	-127.859	0.08203125
9.96179	-138.679	0.1015625
9.96356	-134.493	0.121094
9.96443	-123.479	0.140625
9.96642	-135.191	0.160156
9.96742	-133.546	0.1796875
9.96962	-119.768	0.199219
9.971384	-130.778	0.21875
9.973	-133.123	0.238281
9.97514	-120.644	0.2578125
9.97591	-123.034	0.277344
9.977129	-131.999	0.296875
9.97905	-117.431	0.316406
9.98065	-121.282	0.3359375
9.98295	-128.204	0.355469
9.98466	-118.945	0.375
9.98537	-112.438	0.394531
9.98702	-126.488	0.4140625
9.98931	-117.648	0.433594
9.98982	-111.775	0.453125
9.9917	-118.947	0.472656
9.99428	-120.141	0.4921875
9.99452	-105.685	0.511719
9.99722	-113.764	0.53125
9.99787	-116.015	0.550781
9.99948	-106.2	0.5703125
10.0032	-108.6468	0.589844
10.0031	-119.316	0.609375
10.0056	-102.5818	0.628906
10.0068	-102.027	0.6484375
10.0082	-114.551	0.667969
10.01041	-104.918	0.6875
10.0114	-96.7421	0.707031
10.0137	-108.9896	0.7265625
10.0146	-104.054	0.746094
10.0157	-92.6604	0.765625
10.0194	-105.396	0.785156
10.0199	-103.117	0.8046875
10.021	-90.6672	0.824219
10.0233	-98.4818	0.84375
10.0242	-103.116	0.863281
10.0257	-87.6414	0.8828125
10.0286	-95.0791	0.902344
10.0292	-100.472	0.921875
10.0308	-89.7869	0.941406
10.0322	-85.6957	0.9609375
10.034	-99.3119	0.980469
10.0366	-86.5519	1
10.0368	-83.8156	1.01953
10.03919	-92.9382	1.03906
10.0406	-87.9773	1.05859
10.0434	-75.5658	1.078125
10.04455	-88.5699	1.09766
10.0454	-86.8136	1.11719
10.0473	-76.6423	1.13672
10.0484	-79.3707	1.15625
10.051	-86.4663	1.17578
10.0509	-72.0386	1.19531
10.054	-78.6998	1.21484
10.0554	-83.0521	1.234375
10.0572	-74.4806	1.25391
10.0596	-68.146	1.27344
10.05958	-84.0627	1.29297
10.06302	-71.8015	1.3125
10.06454	-63.5095	1.33203
10.06474	-77.0822	1.35156
10.0665	-75.0912	1.37109
10.0687	-60.5066	1.390625
10.0692	-72.9845	1.41016
10.0722	-70.76152	1.42969
10.0744	-57.5333	1.44922
10.07462	-67.4368	1.46875
10.0769	-74.4824	1.48828
10.0794	-54.5197	1.50781
10.0799	-61.5558	1.52734
10.0814	-71.4065	1.546875
10.0829	-54.6942	1.56641
10.0838	-54.9466	1.58594
10.0861	-65.74614	1.60547
10.0876	-55.59808	1.625
10.0902	-49.7887	1.64453
10.092	-62.6135	1.66406
10.0934	-53.6961	1.68359
10.095	-47.2198	1.703125
10.09663	-57.3997	1.72266
10.098	-55.4899	1.74219
10.0985	-41.6854	1.76172
10.1008	-50.1568	1.78125
10.1031	-52.1991	1.80078
10.1036	-43.602	1.82031
10.1059	-43.5224	1.83984
10.108	-52.5568	1.859375
10.1086	-38.29425	1.87891
10.1104	-38.9745	1.89844
10.1134	-47.7473	1.91797
10.1133	-41.6564	1.9375
10.1151	-30.3996	1.95703
10.1172	-46.3846	1.97656
10.1199	-39.2256	1.99609
10.1211	-27.9897	2.015625
10.1224	-38.6621	2.03516
10.124	-40.9094	2.05469
10.1255	-25.6838	2.07422
10.1279	-35.2744	2.09375
10.1287	-38.5362	2.11328
10.1311	-21.9682	2.13281
10.1314	-28.7333	2.15234
10.1327	-37.8441	2.171875
10.1355	-21.7091	2.19141
10.1371	-20.6842	2.21094
10.13836	-33.7438	2.23047
10.14	-21.5986	2.25
10.1417	-18.4287	2.26953
10.14347	-28.8549	2.28906
10.14537	-21.89271	2.30859
10.14764	-12.6236	2.328125
10.1476	-24.2397	2.34766
10.1502	-20.6137	2.36719
10.1507	-10.6494	2.38672
10.1535	-17.0039	2.40625
10.1549	-22.3644	2.42578
10.1567	-6.22367	2.44531
10.1587	-10.88087	2.46484
10.1601	-16.2655	2.484375
10.1615	-8.32908	2.50391
10.1626	-5.11465	2.52344
10.1641	-16.4552	2.54297
10.16564	-4.99375	2.5625
10.1679	1.72938	2.58203
10.1687	-10.1559	2.60156
10.1703	-6.56225	2.62109
10.1722	8.90492	2.640625
10.1738	-6.78163	2.66016
10.17553	-5.29215	2.67969
10.1764	9.50278	2.69922
10.1793	1.61211	2.71875
10.1798	-4.73402	2.73828
10.1827	10.9142	2.75781
10.1832	6.74722	2.77734
10.18524	-1.67457	2.796875
10.1862	15.64287	2.81641
10.1889	13.979	2.83594
10.1911	-0.224393	2.85547
10.1921	12.0677	2.875
10.1935	18.86232	2.89453
10.1954	5.9837	2.91406
10.19719	12.9211	2.93359
10.1991	19.6238	2.953125
10.1997	10.9262	2.97266
10.202	11.5174	2.99219
10.2028	26.9068	3.01172
10.2055	15.8084	3.03125
10.2072	15.3431	3.05078
10.2097	26.0256	3.07031
10.2103	25.8403	3.08984
10.21217	14.6438	3.109375
10.2134	28.5004	3.12891
10.2148	31.3308	3.14844
10.2169	23.1422	3.16797
10.2181	26.8802	3.1875
10.2198	37.4047	3.20703
10.2221	22.5839	3.22656
10.2239	30.5971	3.24609
10.2256	41.1393	3.265625
10.227	30.4119	3.28516
10.2277	26.14282	3.30469
10.23	46.4717	3.32422
10.2321	35.3592	3.34375
10.2331	30.71022	3.36328
10.2346	45.9655	3.38281
10.2347	41.6908	3.40234
10.2371	31.6582	3.421875
10.2401	49.5242	3.44141
10.2399	45.06826	3.46094
10.2429	34.11274	3.48047
10.2435	48.5489	3.5
10.2464	54.511	3.51953
10.2474	39.2154	3.53906
10.2496	47.6402	3.55859
10.2509	56.7235	3.578125
10.2524	46.4886	3.59766
10.2536	48.5116	3.61719
10.2558	60.2672	3.63672
10.2566	51.70528	3.65625
10.2592	49.8227	3.67578
10.2605	64.63607	3.69531
10.2608	58.1819	3.71484
10.2639	52.6838	3.734375
10.2652	62.7053	3.75391
10.26704	68.0877	3.77344
10.2679	53.4725	3.79297
10.2703	64.6218	3.8125
10.2717	70.6417	3.83203
10.2732	62.3335	3.85156
10.2753	61.9403	3.87109
10.2766	78.4151	3.890625
10.2784	62.4121	3.91016
10.2815	65.0628	3.92969
10.2809	80.5131	3.94922
10.2828	73.7909	3.96875
10.2842	62.5397	3.98828
10.2869	83.3859	4.00781
10.2877	76.9156	4.02734
10.291	69.5152	4.046875
10.2921	82.5643	4.06641
10.2937	84.6996	4.08594
10.2954	68.4231	4.10547
10.2959	85.1054	4.125
10.2974	89.5819	4.14453
10.2989	76.6258	4.16406
10.3009	84.4113	4.18359
10.3027	95.1057	4.203125
10.3039	80.6038	4.22266
10.3059	82.7625	4.24219
10.308	95.976	4.26172
10.3084	87.7239	4.28125
10.3104	86.3931	4.30078
10.3127	96.7635	4.32031
10.3141	94.7511	4.33984
10.3159	86.48423	4.359375
10.31701	100.446	4.37891
10.3195	101.694	4.39844
10.3208	91.1907	4.41797
10.3207	97.581	4.4375
10.3246	108.564	4.45703
10.3258	94.9724	4.47656
10.3268	100.8772	4.49609
10.3293	110.64	4.515625
10.3301	101.745	4.53516
10.3327	99.0121	4.55469
10.3334	117.753	4.57422
10.3354	105.1021	4.59375
10.33603	103.745	4.61328
10.3381	116.927	4.63281
10.3404	117.138	4.65234
10.3416	100.783	4.671875
10.344	118.032	4.69141
10.3452	117.583	4.71094
10.3473	108.991	4.73047
10.3486	118.62	4.75
10.34929	126.122	4.76953
10.3514	109.699	4.78906
10.3539	119.751	4.80859
10.3535	128.552	4.828125
10.3559	118.064	4.84766
10.3577	117.6434	4.86719
10.3601	132.903	4.88672
10.361	123.999	4.90625
10.363	120.459	4.92578
10.3647	133.56	4.94531
10.3661	129.064	4.96484
10.3668	123.602	4.984375
10.3695	135.026	5.00391
10.3716	134.557	5.02344
10.3731	123.6108	5.04297
10.3747	135.767	5.0625
10.3761	143.176	5.08203
10.3771	131.472	5.10156
10.3792	133.636	5.12109
10.3816	147.842	5.140625
10.3828	136.281	5.16016
10.384	138.943	5.17969
10.3856	150.724	5.19922
10.3882	142.785	5.21875
10.3893	135.223	5.23828
10.3912	154.857	5.25781
10.3929	148.989	5.27734
10.3933	139.54	5.296875
10.3952	155.112	5.31641
10.3974	156.523	5.33594
10.3996	141.276	5.35547
10.401	153.987	5.375
10.4015	158.088	5.39453
10.4048	147.8654	5.41406
10.4045	155.173	5.43359
10.4063	166.589	5.453125
10.40826	150.298	5.47266
10.4108	154.187	5.49219
10.4115	168.407	5.51172
10.4124	160.357	5.53125
10.4149	155.2066	5.55078
10.4167	168.282	5.57031
10.41867	163.224	5.58984
10.4198	158.19	5.609375
10.4221	172.2886	5.62891
10.4241	171.096	5.64844
10.4249	162.14	5.66797
10.4277	169.851	5.6875
10.4278	176.848	5.70703
10.4295	163.194	5.72656
10.431	169.27	5.74609
10.4328	181.3007	5.765625
10.4341	173.025	5.78516
10.437	169.077	5.80469
10.4377	185.358	5.82422
10.439	176.276	5.84375
10.44043	173.297	5.86328
10.4426	186.638	5.88281
10.4446	186.173	5.90234
10.4458	172.114	5.921875
10.4475	192.3299	5.94141
10.4488	189.883	5.96094
10.45183	178.511	5.98047
10.4527	188.477	6
10.4543	197.966	6.01953
10.4554	181.329	6.03906
10.4571	189.666	6.05859
10.4581	198.731	6.078125
10.4606	188.061	6.09766
10.4631	190.467	6.11719
10.4639	204.991	6.13672
10.465	192.005	6.15625
10.4668	190.842	6.17578
10.4686	204.0275	6.19531
10.4712	202.415	6.21484
10.4722	193.022	6.234375
10.4742	205.065	6.25391
10.4758	205.186	6.27344
10.47685	197.36	6.29297
10.47776	205.8	6.3125
10.4805	211.992	6.33203
10.4828	201.129	6.35156
10.4831	204.2	6.37109
10.4851	216.537	6.390625
10.4865	205.697	6.41016
10.4885	205.109	6.42969
10.4904	220.348	6.44922
10.4908	214.735	6.46875
10.494	204.384	6.48828
10.4948	221.864	6.50781
10.49624	218.589	6.52734
10.49901	210.924	6.546875
10.4997	224.294	6.56641
10.5018	227.195	6.58594
10.5029	211.485	6.60547
10.5046	226.3644	6.625
10.5064	231.0524	6.64453
10.5072	219.53	6.66406
10.5094	222.336	6.68359
10.5116	236.775	6.703125
10.5116	223.2	6.72266
10.514	227.904	6.74219
10.5163	237.962	6.76172
10.5184	228.936	6.78125
10.52	225.458	6.80078
10.5201	242.247	6.82031
10.52268	235.183	6.83984
10.5242	226.552	6.859375
10.5268	239.548	6.87891
10.52872	244.334	6.89844
10.5288	232.5437	6.91797
10.5313	240.925	6.9375
10.5324	247.965	6.95703
10.5345	236.188	6.97656
10.535	240.429	6.99609
10.537	252.262	7.015625
10.5387	242.532	7.03516
10.5399	240.314	7.05469
10.5425	255.508	7.07422
10.5432	249.7021	7.09375
10.5464	243.056	7.11328
10.5462	257.774	7.13281
10.5484	257.021	7.15234
10.5503	243.543	7.171875
10.5515	259.851	7.19141
10.5531	260.681	7.21094
10.5547	250.398	7.23047
10.55668	261.131	7.25
10.5578	269.493	7.26953
10.5602	251.076	7.28906
10.56127	259.572	7.30859
10.5636	272.178	7.328125
10.5642	261.594	7.34766
10.5672	262.447	7.36719
10.5674	276.641	7.38672
10.5689	264.1077	7.40625
10.5725	263.265	7.42578
10.5731	276.316	7.44531
10.5736	271.756	7.46484
10.576	263.355	7.484375
10.5781	279.354	7.50391
10.5795	279.724	7.52344
10.5812	267.624	7.54297
10.5826	275.095	7.5625
10.5851	284.802	7.58203
10.5861	273.257	7.60156
10.5873	277.012	7.62109
10.589	286.252	7.640625
10.5909	278.31	7.66016
10.5924	276.102	7.67969
10.5947	291.727	7.69922
10.5955	284.737	7.71875
10.5965	275.542	7.73828
10.5994	293.386	7.75781
10.60019	290.299	7.77734
10.6023	280.275	7.796875
10.6045	293.061	7.81641
10.6057	298.846	7.83594
10.6079	282.772	7.85547
10.6085	295.612	7.875
10.6101	298.6546	7.89453
10.6114	289.167	7.91406
10.614	293.522	7.93359
10.6153	308.363	7.953125
10.6179	291.114	7.97266
10.6182	295.057	7.99219
10.6206	308.089	8.01172
10.6225	301.957	8.03125
10.6228	295.678	8.05078
10.6245	309.779	8.07031
10.6267	303.8761	8.08984
10.6279	298.531	8.109375
10.6292	309.8663	8.12891
10.6328	314.962	8.14844
10.63293	300.55	8.16797
10.6345	311.368	8.1875
10.6356	317.661	8.20703
10.6371	307.962	8.22656
10.6394	309.338	8.24609
10.6411	322.738	8.265625
10.644	312.72	8.28516
10.644	311.211	8.30469
10.645	323.807	8.32422
10.6483	319.093	8.34375
10.6495	311.116	8.36328
10.6502	327.323	8.38281
10.653	327.233	8.40234
10.6543	313.5885	8.421875
10.655	326.977	8.44141
10.6577	331.631	8.46094
10.6584	317.801	8.48047
10.66021	326.54	8.5
10.6621	338	8.51953
10.66447	322.428	8.53906
10.6661	329.518	8.55859
10.6677	342.942	8.578125
10.6695	331.055	8.59766
10.6697	325.902	8.61719
10.6716	346.135	8.63672
10.6729	335.923	8.65625
10.6753	329.064	8.67578
10.6772	343.731	8.69531
10.6777	347.143	8.71484
10.6791	332.115	8.734375
10.6822	346.053	8.75391
10.6836	347.098	8.77344
10.68464	336.89	8.79297
10.6873	342.902	8.8125
10.68838	357.65	8.83203
10.6892	340.52	8.85156
10.69228	344.532	8.87109
10.6922	358.486	8.890625
10.6941	348.5921	8.91016
10.6964	341.69	8.92969
10.698	360.126	8.94922
10.6994	355.378	8.96875
10.70154	345.906	8.98828
10.7026	360.656	9.00781
10.7043	363.1586	9.02734
10.7057	347.0029	9.046875
10.7076	361.393	9.06641
10.7101	370.6293	9.08594
10.7111	352.219	9.10547
10.7123	359.1673	9.125
10.7141	373.8	9.14453
10.7154	359.676	9.16406
10.7175	359.63	9.18359
10.71912	376.5575	9.203125
10.721	363.566	9.22266
10.7231	358.9039	9.24219
10.7242	378.753	9.26172
10.7254	374.283	9.28125
10.7276	360.305	9.30078
10.7288	380.609	9.32031
10.7303	378.5181	9.33984
10.7323	365.544	9.359375
10.7345	376.246	9.37891
10.7345	386.496	9.39844
10.737	370.914	9.41797
10.7389	378.453	9.4375
10.7402	388.113	9.45703
10.7425	375.992	9.47656
10.7437	374.867	9.49609
10.7452	395.857	9.515625
10.7467	384.8457	9.53516
10.7485	376.449	9.55469
10.7501	392.523	9.57422
10.7519	391.952	9.59375
10.7539	377.873	9.61328
10.7551	396.466	9.63281
10.7572	398.099	9.65234
10.7576	381.9169	9.671875
10.76	394.475	9.69141
10.7621	406.007	9.71094
10.7629	386.722	9.73047
10.7639	393.62	9.75
10.7663	410.101	9.76953
10.7683	392.434	9.78906
10.76936	391.944	9.80859
10.7713	410.949	9.828125
10.7726	400.651	9.84766
10.7739	393.374	9.86719
10.7766	415.242	9.88672
10.7771	403.473	9.90625
10.77894	395.269	9.92578
10.7811	412.088	9.94531
10.7825	414.516	9.96484
10.7841	397.9126	9.984375
10.786	413.006	10.0039
10.7881	418.48	10.0234
10.7894	405.967	10.043
10.7911	410.576	10.0625
10.7926	424.984	10.082
10.7942	412.024	10.1016
10.7963	412.182	10.1211
10.79727	427.767	10.1406
10.7991	419.479	10.1602
10.80077	409.737	10.1797
10.80176	429.583	10.1992
10.8042	425.695	10.21875
10.8057	412.847	10.2383
10.8062	425.2421	10.2578
10.8097	433.49	10.2773
10.8102	414.917	10.2969
10.8121	429.134	10.3164
10.8141	438.434	10.3359
10.81482	419.946	10.3555
10.8172	427.0488	10.375
10.8183	443.628	10.3945
10.8212	424.784	10.4141
10.8221	425.325	10.4336
10.8232	445.848	10.4531
10.8261	433.828	10.4727
10.8259	426.023	10.4922
10.8288	445.615	10.5117
10.8302	441.837	10.53125
10.8322	428.168	10.5508
10.8335	448.401	10.5703
10.8348	446.889	10.5898
10.8359	431.523	10.6094
10.8384	445.482	10.6289
10.8399	455.104	10.6484
10.8411	436.478	10.668
10.84267	445.301	10.6875
10.8445	456.959	10.707
10.8465	444.493	10.7266
10.8477	442.921	10.7461
10.8501	463.669	10.7656
10.8504	450.282	10.7852
10.8526	445.763	10.8047
10.8539	461.832	10.8242
10.8567	459.123	10.84375
10.8581	442.803	10.8633
10.8589	463.07	10.8828
10.8609	466.37	10.9023
10.8614	450.147	10.9219
10.8625	457.934	10.9414
10.8658	472.38	10.9609
10.8677	452.165	10.9805
10.869	461.216	11
10.8693	477.5014	11.0195
10.8716	460.811	11.0391
10.8748	458.432	11.0586
10.8762	480.987	11.0781
10.8771	466.014	11.0977
10.8776	460.513	11.1172
10.8804	480.798	11.1367
10.8824	474.906	11.15625
10.8838	461.442	11.1758
10.886	480.119	11.1953
10.8858	481.896	11.2148
10.8889	463.564	11.2344
10.88916	480.8114	11.2539
10.8911	486.296	11.2734
10.8934	469.543	11.293
10.8945	475.148	11.3125
10.8973	493.14	11.332
10.898	477.004	11.3516
10.9001	477.123	11.3711
10.9014	491.483	11.3906
10.9033	484.899	11.4102
10.9045	475.3746	11.4297
10.907	497.669	11.4492
10.9086	491.917	11.46875
10.9091	480.614	11.4883
10.91127	492.262	11.5078
10.9124	499.827	11.5273
10.9149	479.048	11.5469
10.9156	493.7233	11.5664
10.9185	503.569	11.5859
10.9197	487.9451	11.6055
10.9208	490.124	11.625
10.9228	509.175	11.6445
10.924	492.3873	11.6641
10.9266	492.675	11.6836
10.928	512.879	11.7031
10.929	500.246	11.7227
10.9311	491.035	11.7422
10.9326	513.0882	11.7617
10.9342	508.425	11.78125
10.9354	493.138	11.8008
10.9363	512.246	11.8203
10.93876	513.265	11.8398
10.9399	498.634	11.8594
10.94243	511.12	11.8789
10.9437	520.254	11.8984
10.9445	500.076	11.918
10.9472	511.323	11.9375
10.9491	524.066	11.957
10.9505	510.055	11.9766
10.9515	506.39	11.9961
10.9547	528.5993	12.0156
10.95538	517.135	12.0352
10.9571	509.656	12.0547
10.9595	525.037	12.0742
10.9603	524.609	12.09375
10.9618	508.0434	12.1133
10.9627	529.316	12.1328
10.9658	531.608	12.1523
10.9666	514.451	12.1719
10.96916	523.492	12.1914
10.9696	537.225	12.2109
10.9714	519.498	12.2305
10.9739	525.0257	12.25
10.976	540.643	12.2695
10.9764	526.161	12.2891
10.9763	523.1759	12.3086
10.9798	543.304	12.3281
10.9818	530.645	12.3477
10.9827	523.9118	12.3672
10.9841	545.844	12.3867
10.9856	539.4	12.40625
10.9875	524.635	12.4258
10.9894	544.194	12.4453
10.991	547.585	12.4648
10.9928	527.837	12.4844
10.9944	541.795	12.5039
10.9951	551.476	12.5234
10.9969	534.678	12.543
10.9993	542.785	12.5625
11.0001	558.247	12.582
11.0022	540.061	12.6016
11.0036	541.184	12.6211
11.0058	558.6391	12.6406
11.00761	550.44	12.6602
11.0089	539.21	12.6797
11.01	561.058	12.6992
11.0113	556.006	12.71875
11.0129	545.381	12.7383
11.0154	558.65	12.7578
11.0176	563.979	12.7773
11.0185	545.278	12.7969
11.0198	560.181	12.8164
11.021	569.6499	12.8359
11.0232	552.5307	12.8555
11.0254	554.909	12.875
11.0266	574.968	12.8945
11.0279	557.925	12.9141
11.0293	556.464	12.9336
11.0308	575.6178	12.9531
11.0332	564.415	12.9727
11.0357	553.882	12.9922
11.0364	578.885	13.0117
11.0385	570.712	13.03125
11.04031	557.924	13.0508
11.04171	577.73	13.0703
11.04183	579.826	13.0898
11.0451	559.378	13.1094
11.0468	573.073	13.1289
11.0482	584.3324	13.1484
11.049	564.65	13.168
11.05144	574.474	13.1875
11.05247	586.608	13.207
11.0544	571.646	13.2266
11.056	572.496	13.2461
11.0585	593.192	13.2656
11.0596	579.179	13.2852
11.0616	573.276	13.3047
11.0633	590.129	13.3242
11.0639	588.267	13.34375
11.0661	574.027	13.3633
11.067	591.712	13.3828
11.0692	593.998	13.4023
11.0712	578.967	13.4219
11.0719	588.409	13.4414
11.0737	602.403	13.4609
11.0756	581.191	13.4805
11.0776	589.8573	13.5
11.07867	605.902	13.5195
11.0803	589.528	13.5391
11.0831	586.333	13.5586
11.083	608.399	13.5781
11.0858	595.142	13.5977
11.08667	588.716	13.6172
11.0882	608.337	13.6367
11.0899	602.715	13.65625
11.0919	586.246	13.6758
11.0939	609.286	13.6953
11.0956	609.695	13.7148
11.0973	591.849	13.7344
11.09888	606.978	13.7539
11.0996	616.888	13.7734
11.1016	597.724	13.793
11.1025	603.474	13.8125
11.1048	620.742	13.832
11.1055	603.596	13.8516
11.1077	604.895	13.8711
11.1096	621.272	13.8906
11.1109	609.413	13.9102
11.1129	602.911	13.9297
11.1147	624.504	13.9492
11.1156	618.409	13.96875
11.1178	605.966	13.9883
11.1186	620.59	14.0078
11.1203	626.947	14.0273
11.1221	609.412	14.0469
11.1248	621.996	14.0664
11.1255	630.357	14.0859
11.12761	615.356	14.1055
11.1294	617.69	14.125
11.1309	638.479	14.1445
11.1324	618.0929	14.1641
11.1343	618.582	14.1836
11.1364	638.226	14.2031
11.1367	629.491	14.2227
11.1378	614.834	14.2422
11.1405	638.619	14.2617
11.1415	633.525	14.28125
11.1448	621.565	14.3008
11.1464	637.66	14.3203
11.1469	640.262	14.3398
11.1482	619.946	14.3594
11.1501	636.926	14.3789
11.1524	646.837	14.3984
11.1547	627.3009	14.418
11.1556	633.646	14.4375
11.1568	650.293	14.457
11.159	632.239	14.4766
11.1598	634.088	14.4961
11.1619	651.9325	14.5156
11.1632	639.775	14.5352
11.164	633.261	14.5547
11.16746	652.865	14.5742
11.1683	648.5556	14.59375
11.1695	633.7132	14.6133
11.1717	654.65	14.6328
11.1729	655.572	14.6523
11.1745	639.966	14.6719
11.1765	649.074	14.6914
11.178	662.06	14.7109
11.1805	642.905	14.7305
11.1816	650.841	14.75
11.1825	664.195	14.7695
11.184	650.271	14.7891
11.1859	646.95	14.8086
11.1871	670.192	14.8281
11.18935	655.714	14.8477
11.191	650.405	14.8672
11.1925	668.325	14.8867
11.1938	665.445	14.90625
11.1954	647.7428	14.9258
11.1976	668.402	14.9453
11.19958	669.9234	14.9648
11.2014	655.855	14.9844
11.2028	668.745	15.0039
11.2034	678.153	15.0234
11.2062	655.3396	15.043
11.2077	667.299	15.0625
11.2087	681.393	15.082
11.2099	665.123	15.1016
11.21255	664.5835	15.1211
11.21405	683.316	15.1406
11.2145	670.362	15.1602
11.2167	664.715	15.1797
11.219	684.082	15.1992
11.2207	677.644	15.21875
11.2221	666.367	15.2383
11.2236	681.946	15.2578
11.2249	686.322	15.2773
11.2268	667.289	15.2969
11.2294	680.91	15.3164
11.2302	690.939	15.3359
11.2315	674.837	15.3555
11.2322	677.8114	15.375
11.23433	696.664	15.3945
11.2371	679.753	15.4141
11.2381	681.095	15.4336
11.23992	699.045	15.4531
11.2414	687.8736	15.4727
11.2439	676.893	15.4922
11.24459	701.393	15.5117
11.2468	694.615	15.53125
11.2498	680.634	15.5508
11.2493	697.643	15.5703
11.2525	702.231	15.5898
11.253	679.719	15.6094
11.25435	698.102	15.6289
11.2562	703.572	15.6484
11.2589	687.69	15.668
11.2582	696.251	15.6875
11.2599	712.4812	15.707
11.2628	691.396	15.7266
11.26438	694.778	15.7461
11.2658	712.311	15.7656
11.2677	701.793	15.7852
11.2691	694.577	15.8047
11.26982	711.95	15.8242
11.2731	707.201	15.84375
11.274	694.945	15.8633
11.27552	712.899	15.8828
11.27688	715.194	15.9023
11.2796	699.007	15.9219
11.2801	710.491	15.9414
11.2827	720.683	15.9609
11.2836	701.027	15.9805
11.2868	707.853	16
11.2871	723.73	16.0195
11.2886	710.02	16.0391
11.2897	707.6239	16.0586
11.2912	727.689	16.0781
11.294	716.103	16.0977
11.2951	707.7597	16.1172
11.2975	729.282	16.1367
11.2989	724.7771	16.15625
11.2993	705.285	16.1758
11.3017	729.2926	16.1953
11.3037	728.096	16.2148
11.30556	712.528	16.2344
11.3064	726.155	16.2539
11.3082	737.5318	16.2734
11.3096	714.298	16.293
11.3105	726.597	16.3125
11.3131	737.956	16.332
11.3149	724.071	16.3516
11.3156	723.875	16.3711
11.3178	743.8269	16.3906
11.3191	728.655	16.4102
11.3216	722.193	16.4297
11.3232	742.074	16.4492
11.3245	737.278	16.46875
11.3258	725.048	16.4883
11.3271	740.536	16.5078
11.329	742.233	16.5273
11.3318	727.133	16.5469
11.3328	739.231	16.5664
11.3349	749.015	16.5859
11.3357	733.758	16.6055
11.3369	736.094	16.625
11.3379	753.232	16.6445
11.34126	738.007	16.6641
11.3424	736.585	16.6836
11.3434	754.32	16.7031
11.3449	746.9549	16.7227
11.3471	735.765	16.7422
11.3492	757.183	16.7617
11.3507	749.87	16.78125
11.3504	737.9892	16.8008
11.354	756.086	16.8203
11.3558	760.0014	16.8398
11.3565	737.6	16.8594
11.3594	755.3078	16.8789
11.3603	763.608	16.8984
11.3624	745.069	16.918
11.363	752.196	16.9375
11.3656	767.603	16.957
11.3673	748.442	16.9766
11.3679	753.328	16.9961
11.3705	769.739	17.0156
11.3718	759.471	17.0352
11.3732	750.05	17.0547
11.3744	772.386	17.0742
11.376	763.818	17.09375
11.3787	754.152	17.1133
11.3796	767.393	17.1328
11.3816	771.573	17.1523
11.3824	754.309	17.1719
11.3843	766.513	17.1914
11.38579	774.8844	17.2109
11.3877	757.9845	17.2305
11.38994	766.079	17.25
11.3915	781.688	17.2695
11.3922	766.093	17.2891
11.39363	761.893	17.3086
11.3957	783.158	17.3281
11.398	772.693	17.3477
11.399	765.7168	17.3672
11.4012	782.003	17.3867
11.403	779.734	17.40625
11.40406	764.288	17.4258
11.4068	785.484	17.4453
11.4079	783.707	17.4648
11.4098	766.917	17.4844
11.4117	782.228	17.5039
11.4123	792.825	17.5234
11.4137	769.372	17.543
11.4149	778.767	17.5625
11.4171	792.347	17.582
11.4184	779.26	17.6016
11.4207	778.534	17.6211
11.4216	796.818	17.6406
11.4234	782.383	17.6602
11.4247	778.556	17.6797
11.4261	797.125	17.6992
11.4281	793.0144	17.71875
11.429	778.369	17.7383
11.4312	797.445	17.7578
11.4328	796.81	17.7773
11.4353	782.512	17.7969
11.4366	793.613	17.8164
11.4387	802.686	17.8359
11.4401	787.367	17.8555
11.4412	793.021	17.875
11.4425	807.599	17.8945
11.4448	790.8877	17.9141
11.4458	791.464	17.9336
11.448	809.023	17.9531
11.44943	798.257	17.9727
11.4512	788.253	17.9922
11.4527	809.638	18.0117
11.4541	805.347	18.03125
11.4549	791.465	18.0508
11.4575	808.929	18.0703
11.4591	811.541	18.0898
11.4614	792.1134	18.1094
11.4628	808.978	18.1289
11.46433	815.334	18.1484
11.4665	798.102	18.168
11.4684	806.428	18.1875
11.4689	822.833	18.207
11.4702	802.981	18.2266
11.4721	804.949	18.2461
11.47258	820.157	18.2656
11.475	811.521	18.2852
11.4777	805.004	18.3047
11.4786	825.174	18.3242
11.4808	814.956	18.34375
11.4828	805.697	18.3633
11.4837	823.7879	18.3828
11.4856	826.1745	18.4023
11.4863	807.686	18.4219
11.4884	821.788	18.4414
11.49034	827.734	18.4609
11.4912	814.049	18.4805
11.4937	819.4895	18.5
11.4955	833.566	18.5195
11.4967	817.792	18.5391
11.4982	817.654	18.5586
11.5006	835.328	18.5781
11.50162	823.9425	18.5977
11.5033	817.299	18.6172
11.5054	837.576	18.6367
11.5072	833.446	18.65625
11.5082	816.841	18.6758
11.5095	834.308	18.6953
11.5111	837.133	18.7148
11.5128	820.233	18.7344
11.5145	833.663	18.7539
11.5151	844.624	18.7734
11.51797	822.349	18.793
11.5195	832.46	18.8125
11.5207	847.598	18.832
11.5229	832.585	18.8516
11.5248	829.839	18.8711
11.5271	849.456	18.8906
11.5271	834.916	18.9102
11.5288	831.183	18.9297
11.5311	847.034	18.9492
11.5319	842.21	18.96875
11.5346	832.139	18.9883
11.5359	851.045	19.0078
11.5372	846.977	19.0273
11.5396	834.63	19.0469
11.5411	845.025	19.0664
11.5417	856.305	19.0859
11.5429	838.343	19.1055
11.5458	843.6839	19.125
11.5468	856.14	19.1445
11.5489	844.254	19.1641
11.5499	843.134	19.1836
11.5508	859.823	19.2031
11.5538	849.0874	19.2227
11.5547	842.573	19.2422
11.5564	860.881	19.2617
11.558	856.911	19.28125
11.5606	842.54	19.3008
11.56209	861.857	19.3203
11.563	863.79	19.3398
11.5645	844.9953	19.3594
11.5664	858.161	19.3789
11.5679	866.409	19.3984
11.5697	849.255	19.418
11.5718	857.337	19.4375
11.5734	872.3277	19.457
11.5749	851.489	19.4766
11.5766	855.853	19.4961
11.578	871.946	19.5156
11.5799	864.037	19.5352
11.5827	856.368	19.5547
11.5826	875.424	19.5742
11.5853	863.999	19.59375
11.5867	859.411	19.6133
11.5879	871.347	19.6328
11.5891	874.602	19.6523
11.5915	858.425	19.6719
11.593	873.373	19.6914
11.5958	877.423	19.7109
11.5967	863.686	19.7305
11.5979	869.424	19.75
11.59894	883.055	19.7695
11.6	868.705	19.7891
11.6028	868.751	19.8086
11.6037	882.24	19.8281
11.6059	874.8	19.8477
11.6069	867.612	19.8672
11.6095	886.819	19.8867
11.6101	879.669	19.90625
11.6119	867.0498	19.9258
11.6138	882.991	19.9453
11.6152	887.951	19.9648
11.6181	869.63	19.9844
11.6192	881.932	20.0039
11.6196	894.132	20.0137

Data Header:			0.254_solid_dimension_typei_4545_r0			Time:	40.0181	s	4/14/2019 4:45:28 AM
Data Acquisition:	Timed
Station Name:	ft40.cfg
Test File Name:	monotonic_0.2540_typei_solid_4545_dimension.tst
Displacement	Force	Running Time
mm	N	s
11.6211	891.007	20.0234
11.6214	872.94	20.043
11.62296	880.377	20.0625
11.6239	894.1	20.082
11.6275	878.551	20.1016
11.628	881.243	20.1211
11.6305	898.054	20.1406
11.6321	881.544	20.1602
11.6339	878.277	20.1797
11.635	896.815	20.1992
11.6371	890.85	20.21875
11.6382	879.649	20.2383
11.64028	896.796	20.2578
11.6402	895.053	20.2773
11.6432	883.666	20.2969
11.6447	894.958	20.3164
11.6461	903.034	20.3359
11.6493	883.965	20.3555
11.6494	895.346	20.375
11.65128	903.959	20.3945
11.6528	891.198	20.4141
11.655	888.445	20.4336
11.6572	907.195	20.4531
11.6582	897.255	20.4727
11.659	890.723	20.4922
11.6611	906.06	20.5117
11.66318	902.287	20.53125
11.6645	890.979	20.5508
11.666	907.532	20.5703
11.6673	907.764	20.5898
11.6691	891.185	20.6094
11.6708	902.848	20.6289
11.673	913.6391	20.6484
11.6733	896.114	20.668
11.6756	902.675	20.6875
11.6773	917.116	20.707
11.679	898.155	20.7266
11.6805	902.271	20.7461
11.68196	918.47	20.7656
11.6845	906.106	20.7852
11.6853	901.551	20.8047
11.6878	922.346	20.8242
11.688	911.77	20.84375
11.69	901.696	20.8633
11.692	918.818	20.8828
11.6946	921.415	20.9023
11.6949	903.292	20.9219
11.6975	919.919	20.9414
11.6992	920.354	20.9609
11.70026	908.68	20.9805
11.7016	915.858	21
11.7047	929.656	21.0195
11.705	912.187	21.0391
11.7074	914.164	21.0586
11.709	927.856	21.0781
11.71	921.102	21.0977
11.7124	911.473	21.1172
11.7135	929.814	21.1367
11.7138	923.414	21.15625
11.716	911.8927	21.1758
11.71809	928.981	21.1953
11.7201	929.256	21.2148
11.7214	913.696	21.2344
11.7221	927.264	21.2539
11.7244	936.01	21.2734
11.72582	918.096	21.293
11.7282	924.117	21.3125
11.7296	939.027	21.332
11.7315	923.088	21.3516
11.7327	924.642	21.3711
11.7354	940.4585	21.3906
11.73707	926.724	21.4102
11.7372	922.046	21.4297
11.73937	941.754	21.4492
11.7411	934.8	21.46875
11.7429	922.424	21.4883
11.7448	942.724	21.5078
11.7448	938.026	21.5273
11.7466	925.452	21.5469
11.7494	938.276	21.5664
11.7499	945.118	21.5859
11.7509	929.125	21.6055
11.7531	939.833	21.625
11.7563	944.198	21.6445
11.7569	933.815	21.6641
11.7591	934.3537	21.6836
11.7602	952.6283	21.7031
11.7612	938.402	21.7227
11.7644	933.659	21.7422
11.7648	948.694	21.7617
11.7656	945.393	21.78125
11.7686	932.79	21.8008
11.7695	951.616	21.8203
11.7722	950.169	21.8398
11.7732	936.513	21.8594
11.7748	949.082	21.8789
11.7765	955.871	21.8984
11.778	936.47	21.918
11.78043	946.878	21.9375
11.7804	960.387	21.957
11.7839	942.401	21.9766
11.7856	942.927	21.9961
11.7863	961.415	22.0156
11.7879	947.914	22.0352
11.79021	943.799	22.0547
11.7914	961.788	22.0742
11.79345	951.4765	22.09375
11.7942	942.707	22.1133
11.7957	961.5462	22.1328
11.7979	959.692	22.1523
11.7999	944.6	22.1719
11.8001	959.781	22.1914
11.8033	961.388	22.2109
11.8038	948.54	22.2305
11.806	956.994	22.25
11.8073	968.178	22.2695
11.8094	952.302	22.2891
11.8115	956.398	22.3086
11.8133	966.196	22.3281
11.813	957.377	22.3477
11.81675	952.088	22.3672
11.8166	973.856	22.3867
11.8193	963.884	22.40625
11.8206	953.8114	22.4258
11.8218	965.8186	22.4453
11.8247	971.487	22.4648
11.8266	954.187	22.4844
11.8262	968.53	22.5039
11.8284	973.394	22.5234
11.8313	957.151	22.543
11.83209	966.269	22.5625
11.8336	979.238	22.582
11.8359	961.656	22.6016
11.8366	963.276	22.6211
11.839	979.968	22.6406
11.8404	966.978	22.6602
11.8417	959.601	22.6797
11.8437	980.069	22.6992
11.8452	971.957	22.71875
11.8459	961.3313	22.7383
11.8477	979.657	22.7578
11.8503	974.5545	22.7773
11.8506	962.187	22.7969
11.8532	978.639	22.8164
11.8543	984.6261	22.8359
11.8566	966.562	22.8555
11.8585	976.3559	22.875
11.85908	984.206	22.8945
11.8611	972.636	22.9141
11.8635	972.346	22.9336
11.8648	988.769	22.9531
11.8665	975.025	22.9727
11.8682	973.849	22.9922
11.8696	987.925	23.0117
11.8707	981.742	23.03125
11.8725	969.72	23.0508
11.874	989.018	23.0703
11.8756	987.776	23.0898
11.8773	973.388	23.1094
11.8788	981.837	23.1289
11.8805	992.371	23.1484
11.8821	973.765	23.168
11.8833	985.8598	23.1875
11.8853	994.999	23.207
11.88827	977.312	23.2266
11.8893	978.556	23.2461
11.89	999.0885	23.2656
11.8925	983.96	23.2852
11.894	978.765	23.3047
11.8961	997.2019	23.3242
11.896	987.939	23.34375
11.8986	978.133	23.3633
11.8999	997.026	23.3828
11.9015	994.3	23.4023
11.9042	979.689	23.4219
11.9043	996.901	23.4414
11.9061	996.741	23.4609
11.9091	981.0816	23.4805
11.91	993.229	23.5
11.9117	1005.81	23.5195
11.9121	987.552	23.5391
11.9154	990.688	23.5586
11.9165	1003.42	23.5781
11.9179	995.019	23.5977
11.9201	989.193	23.6172
11.9211	1007.62	23.6367
11.9229	997.423	23.65625
11.925	989.328	23.6758
11.9271	1003.4	23.6953
11.9273	1005.71	23.7148
11.9299	987.512	23.7344
11.9321	1004.23	23.7539
11.9332	1008.86	23.7734
11.9339	993.6994	23.793
11.9353	997.333	23.8125
11.9373	1012.164	23.832
11.9395	995.066	23.8516
11.94101	999.175	23.8711
11.9418	1014.1	23.8906
11.9441	999.514	23.9102
11.9455	993.355	23.9297
11.9479	1015.6	23.9492
11.9499	1004.9	23.96875
11.9504	996.3	23.9883
11.9512	1013.61	24.0078
11.9529	1008.5	24.0273
11.956	994.3988	24.0469
11.957	1011.61	24.0664
11.9585	1015.72	24.0859
11.9597	998.079	24.1055
11.9619	1010.45	24.125
11.9643	1016.32	24.1445
11.96515	1001.67	24.1641
11.9674	1006.25	24.1836
11.9684	1021.22	24.2031
11.9697	1008.697	24.2227
11.9713	1006.06	24.2422
11.9727	1018.8	24.2617
11.9748	1013.72	24.28125
11.9769	1004.53	24.3008
11.9781	1021.49	24.3203
11.9802	1017.14	24.3398
11.9826	1006.01	24.3594
11.9836	1014.38	24.3789
11.985	1024.58	24.3984
11.9869	1004.81	24.418
11.9881	1014.969	24.4375
11.9894	1026.68	24.457
11.9915	1011.94	24.4766
11.9926	1010.46	24.4961
11.9941	1028.84	24.5156
11.9951	1012.35	24.5352
11.9976	1011.81	24.5547
11.9986	1028.94	24.5742
12.0012	1018.8	24.59375
12.00311	1006.94	24.6133
12.0041	1028.47	24.6328
12.0063	1027.08	24.6523
12.007	1011.07	24.6719
12.01	1026.31	24.6914
12.0111	1028.53	24.7109
12.0124	1011.06	24.7305
12.0143	1023.89	24.75
12.0154	1033.382	24.7695
12.0182	1016.15	24.7891
12.0191	1021.49	24.8086
12.02124	1032.53	24.8281
12.0213	1020.52	24.8477
12.0236	1016.7	24.8672
12.0262	1036.71	24.8867
12.0258	1025.8	24.90625
12.0283	1019.02	24.9258
12.0293	1030.15	24.9453
12.0317	1031.82	24.9648
12.0333	1017.77	24.9844
12.03478	1032.68	25.0039
12.0372	1035.844	25.0234
12.0386	1019.6	25.043
12.0402	1025.05	25.0625
12.042	1040.577	25.082
12.0422	1020.754	25.1016
12.0451	1025.73	25.1211
12.0472	1041.26	25.1406
12.0496	1028.66	25.1602
12.0508	1021.39	25.1797
12.052	1041.85	25.1992
12.05291	1030.51	25.21875
12.0547	1022.62	25.2383
12.05616	1041.36	25.2578
12.058	1037.87	25.2773
12.0597	1020.78	25.2969
12.0617	1037.18	25.3164
12.0627	1042.464	25.3359
12.0651	1024.69	25.3555
12.065	1035.23	25.375
12.0673	1043.02	25.3945
12.0691	1028.5	25.4141
12.0708	1033.06	25.4336
12.07214	1045.17	25.4531
12.07581	1030.22	25.4727
12.0759	1030.63	25.4922
12.0777	1044.54	25.5117
12.0793	1037.74	25.53125
12.0803	1027.52	25.5508
12.0827	1044.47	25.5703
12.08457	1042.08	25.5898
12.0848	1029.48	25.6094
12.087	1039.78	25.6289
12.0894	1045.32	25.6484
12.0904	1030.5	25.668
12.0927	1040.95	25.6875
12.0942	1050.98	25.707
12.0959	1033.6	25.7266
12.0975	1035.07	25.7461
12.09903	1053.481	25.7656
12.10039	1038.67	25.7852
12.1019	1035.85	25.8047
12.1033	1051.79	25.8242
12.1063	1044.25	25.84375
12.1074	1032.85	25.8633
12.1084	1051.2	25.8828
12.1102	1047.04	25.9023
12.11171	1034.93	25.9219
12.1125	1048.94	25.9414
12.1153	1052.34	25.9609
12.1161	1034.17	25.9805
12.1187	1045.41	26
12.1204	1054.45	26.0195
12.1206	1039.13	26.0391
12.123	1044.85	26.0586
12.1249	1055.27	26.0781
12.1259	1041.05	26.0977
12.1283	1041.43	26.1172
12.1294	1057.63	26.1367
12.1309	1045.72	26.15625
12.1325	1039.2	26.1758
12.1343	1053.04	26.1953
12.1361	1053.103	26.2148
12.1381	1037.9	26.2344
12.1397	1053.71	26.2539
12.1414	1055.75	26.2734
12.142	1040.36	26.293
12.1432	1047.32	26.3125
12.1454	1058.5	26.332
12.1482	1042.71	26.3516
12.14924	1047.95	26.3711
12.15113	1063.42	26.3906
12.153	1049.26	26.4102
12.153	1041.01	26.4297
12.1556	1063.61	26.4492
12.15665	1050.9	26.46875
12.1594	1044.192	26.4883
12.1611	1058.8	26.5078
12.1618	1056.1	26.5273
12.1641	1040.25	26.5469
12.1656	1059.42	26.5664
12.1665	1059.74	26.5859
12.16819	1045.72	26.6055
12.1706	1054.58	26.625
12.1729	1063.84	26.6445
12.1734	1046.15	26.6641
12.1751	1052.39	26.6836
12.1772	1065.85	26.7031
12.1781	1050.86	26.7227
12.1797	1049.92	26.7422
12.1831	1063.32	26.7617
12.1835	1054.24	26.78125
12.1856	1046.5	26.8008
12.187	1064.79	26.8203
12.18848	1061.21	26.8398
12.1889	1048.06	26.8594
12.1924	1060.38	26.8789
12.1942	1065.45	26.8984
12.1945	1048.64	26.918
12.1957	1059.79	26.9375
12.1979	1066.73	26.957
12.2004	1052.9	26.9766
12.201	1053.62	26.9961
12.2032	1070.42	27.0156
12.2053	1054.45	27.0352
12.206	1054.63	27.0547
12.2088	1070.99	27.0742
12.20821	1062.41	27.09375
12.2117	1047.49	27.1133
12.2116	1069.08	27.1328
12.2142	1064.96	27.1523
12.2163	1052.11	27.1719
12.2175	1065.61	27.1914
12.2194	1067.15	27.2109
12.2206	1050.02	27.2305
12.2226	1064.39	27.25
12.2235	1069.89	27.2695
12.226	1054.81	27.2891
12.2277	1059.34	27.3086
12.2288	1072.04	27.3281
12.23	1058.38	27.3477
12.2316	1057.72	27.3672
12.2343	1071.41	27.3867
12.2345	1064.137	27.40625
12.2367	1056.26	27.4258
12.23806	1070.61	27.4453
12.2411	1066.5	27.4648
12.2417	1055.012	27.4844
12.2428	1069.9	27.5039
12.2449	1072.02	27.5234
12.2471	1057.42	27.543
12.2479	1062.59	27.5625
12.2492	1074.53	27.582
12.2516	1059.047	27.6016
12.2533	1064.32	27.6211
12.2541	1074.15	27.6406
12.257	1062.81	27.6602
12.2582	1056.4	27.6797
12.2598	1077.29	27.6992
12.2607	1064.22	27.71875
12.2626	1057.49	27.7383
12.2648	1075.58	27.7578
12.2665	1071.03	27.7773
12.2672	1055.38	27.7969
12.2692	1071.63	27.8164
12.2716	1073.64	27.8359
12.2723	1061.57	27.8555
12.2741	1069.18	27.875
12.2767	1077.39	27.8945
12.278	1057.96	27.9141
12.28	1066.59	27.9336
12.28067	1078.58	27.9531
12.2818	1066.06	27.9727
12.2847	1063.26	27.9922
12.28607	1077.88	28.0117
12.2878	1067.4	28.03125
12.2894	1063.23	28.0508
12.2911	1077.03	28.0703
12.29281	1071.92	28.0898
12.2942	1061.38	28.1094
12.2959	1073.33	28.1289
12.2987	1077.19	28.1484
12.2989	1061.03	28.168
12.3	1069.88	28.1875
12.30249	1080.5	28.207
12.3033	1066.03	28.2266
12.3053	1064.62	28.2461
12.3067	1081.3	28.2656
12.3085	1068.12	28.2852
12.31	1065.73	28.3047
12.3117	1080.76	28.3242
12.3134	1072.04	28.34375
12.3142	1059.99	28.3633
12.3169	1081.48	28.3828
12.3196	1074.76	28.4023
12.32	1061.26	28.4219
12.3213	1077.92	28.4414
12.3228	1082.31	28.4609
12.325	1061.147	28.4805
12.3262	1075.02	28.5
12.3286	1081.25	28.5195
12.3297	1066.35	28.5391
12.3316	1071.59	28.5586
12.33279	1085.48	28.5781
12.33408	1066.82	28.5977
12.3354	1067.93	28.6172
12.3377	1082.87	28.6367
12.3395	1073.91	28.65625
12.3414	1065.62	28.6758
12.3426	1080.44	28.6953
12.3439	1075.65	28.7148
12.34651	1065.81	28.7344
12.34676	1076.67	28.7539
12.3497	1079.58	28.7734
12.3501	1066.67	28.793
12.3537	1073.598	28.8125
12.3538	1083.03	28.832
12.3555	1066.87	28.8516
12.3574	1071.101	28.8711
12.359	1084.37	28.8906
12.3608	1073.451	28.9102
12.362	1065.939	28.9297
12.3649	1083.99	28.9492
12.3665	1074.96	28.96875
12.36651	1068.74	28.9883
12.36888	1083.33	29.0078
12.37094	1079.55	29.0273
12.3722	1063.037	29.0469
12.3736	1080.88	29.0664
12.3742	1083.43	29.0859
12.37628	1067.25	29.1055
12.3784	1076.56	29.125
12.3804	1085.129	29.1445
12.3814	1065.63	29.1641
12.3829	1076.79	29.1836
12.385	1085.65	29.2031
12.387	1074.84	29.2227
12.3893	1072.67	29.2422
12.3898	1087.39	29.2617
12.391	1073.7	29.28125
12.3929	1068.81	29.3008
12.3944	1083.15	29.3203
12.3961	1081.23	29.3398
12.3978	1068.46	29.3594
12.3997	1081.15	29.3789
12.4016	1081.583	29.3984
12.4027	1068.1	29.418
12.405	1078.19	29.4375
12.406	1085.09	29.457
12.407	1071.47	29.4766
12.4095	1073.25	29.4961
12.4105	1088.42	29.5156
12.41364	1074.38	29.5352
12.4141	1071.03	29.5547
12.4163	1086.77	29.5742
12.4181	1081.24	29.59375
12.4187	1067.95	29.6133
12.4212	1086.421	29.6328
12.4229	1081.78	29.6523
12.4235	1069.86	29.6719
12.4265	1085.07	29.6914
12.4277	1086.29	29.7109
12.4302	1066.34	29.7305
12.4311	1080.9	29.75
12.4327	1088.452	29.7695
12.4344	1073.76	29.7891
12.43533	1074.89	29.8086
12.4368	1090.29	29.8281
12.4385	1073.27	29.8477
12.43971	1074.5	29.8672
12.4419	1088.96	29.8867
12.4444	1079.85	29.90625
12.4462	1071.78	29.9258
12.4463	1087.45	29.9453
12.4478	1081.58	29.9648
12.45041	1070.48	29.9844
12.4518	1082.44	30.0039
12.4531	1088.47	30.0234
12.4548	1071.9	30.043
12.4563	1079.39	30.0625
12.4584	1087.19	30.082
12.4591	1074.57	30.1016
12.4621	1078.19	30.1211
12.4628	1089.9	30.1406
12.4641	1078.02	30.1602
12.4662	1072.57	30.1797
12.46771	1090.9	30.1992
12.4701	1081.65	30.21875
12.47114	1072.845	30.2383
12.4737	1088.32	30.2578
12.4751	1085.73	30.2773
12.476	1069.83	30.2969
12.4778	1085.85	30.3164
12.4791	1087.42	30.3359
12.48	1072.24	30.3555
12.4828	1082.37	30.375
12.4839	1094.14	30.3945
12.4845	1071.23	30.4141
12.4878	1079.53	30.4336
12.4899	1090.46	30.4531
12.48999	1078.77	30.4727
12.49199	1076.15	30.4922
12.4941	1090.75	30.5117
12.4957	1079.02	30.53125
12.4967	1075.37	30.5508
12.4993	1088.89	30.5703
12.49969	1084.94	30.5898
12.5026	1072.07	30.6094
12.5032	1087.57	30.6289
12.5054	1087.67	30.6484
12.5073	1073.33	30.668
12.5088	1082.61	30.6875
12.5105	1092.89	30.707
12.5115	1077.66	30.7266
12.5134	1077.54	30.7461
12.5156	1088.69	30.7656
12.5178	1080.02	30.7852
12.51913	1077.41	30.8047
12.5199	1092.739	30.8242
12.5212	1083.65	30.84375
12.52386	1072.19	30.8633
12.5252	1089.085	30.8828
12.5275	1086.593	30.9023
12.5288	1074.37	30.9219
12.5298	1086.854	30.9414
12.5316	1091.52	30.9609
12.5333	1072.2	30.9805
12.5342	1084.31	31
12.5363	1091.35	31.0195
12.5372	1077.24	31.0391
12.5398	1081.1	31.0586
12.5415	1094.632	31.0781
12.5431	1078.11	31.0977
12.5448	1077.9	31.1172
12.5473	1091.78	31.1367
12.5476	1085.91	31.15625
12.5492	1076.51	31.1758
12.5517	1092.55	31.1953
12.5525	1084.347	31.2148
12.5535	1076.49	31.2344
12.5553	1086.87	31.2539
12.5578	1090.66	31.2734
12.5592	1075.52	31.293
12.5608	1085.28	31.3125
12.5627	1090.49	31.332
12.5641	1078.76	31.3516
12.5648	1079.58	31.3711
12.5673	1092.29	31.3906
12.5695	1082.21	31.4102
12.571	1077.44	31.4297
12.5713	1089.41	31.4492
12.5745	1083.24	31.46875
12.5747	1075.22	31.4883
12.5766	1092.39	31.5078
12.57905	1089.69	31.5273
12.581	1072.11	31.5469
12.5815	1088.34	31.5664
12.583	1092.11	31.5859
12.5853	1077.91	31.6055
12.5879	1083.92	31.625
12.5878	1095.1	31.6445
12.5906	1076.09	31.6641
12.5916	1084.11	31.6836
12.593	1094.48	31.7031
12.5947	1081.49	31.7227
12.5966	1078.88	31.7422
12.59859	1096.37	31.7617
12.6011	1082.17	31.78125
12.6012	1078.25	31.8008
12.6034	1090.58	31.8203
12.605	1089.9	31.8398
12.6063	1076.75	31.8594
12.6077	1090.7	31.8789
12.6099	1088.76	31.8984
12.6114	1078.17	31.918
12.6128	1085.74	31.9375
12.61517	1094.08	31.957
12.616	1076.66	31.9766
12.6178	1080.58	31.9961
12.61969	1093.23	32.0156
[...]
13.8295	1069.72	46.5469
13.831	1073.899	46.5566
13.8316	1083.42	46.5664
13.8326	1089.23	46.5762
13.83327	1081.55	46.5859
13.8344	1075.81	46.5957
13.8346	1073.93	46.6055
13.835	1072.04	46.6152
13.8358	1079.986	46.625
13.8372	1085.9	46.6348
13.8385	1087.25	46.6445
13.839	1080.046	46.6543
13.8398	1071.23	46.6641
13.8404	1070.83	46.6738
13.8422	1075.94	46.6836
13.84145	1085.83	46.6934
13.8427	1087.38	46.7031
13.8446	1082.81	46.7129
13.8458	1076.7	46.7227
13.8455	1072.95	46.7324
13.8462	1071.92	46.7422
13.8473	1078.74	46.752
13.8473	1088.19	46.7617
13.8492	1086.94	46.7715
13.8511	1078.26	46.78125
13.8506	1068.87	46.791
13.851	1071.75	46.8008
13.8517	1079.01	46.8105
13.8524	1084.02	46.8203
13.8545	1087.56	46.8301
13.8542	1082.53	46.8398
13.854	1074.44	46.8496
13.8554	1071.22	46.8594
13.8568	1070.41	46.8691
13.8583	1083.67	46.8789
13.8589	1089.12	46.8887
13.8592	1085.5	46.8984
13.8596	1077.43	46.9082
13.8612	1069.78	46.918
13.8617	1072.29	46.9277
13.8626	1077.13	46.9375
13.8634	1087.96	46.9473
13.8648	1086.95	46.957
13.8654	1080.36	46.9668
13.8657	1073.32	46.9766
13.8661	1067.098	46.9863
13.867	1075.68	46.9961
13.8699	1086.99	47.0059
13.8693	1088.47	47.0156
13.87062	1083	47.0254
13.87	1073.22	47.0352
13.8718	1068.72	47.0449
13.8719	1073.64	47.0547
13.8731	1081.66	47.0645
13.8738	1087.29	47.0742
13.8745	1087.35	47.084
13.876	1077.49	47.09375
13.877	1068.91	47.1035
13.8774	1071.59	47.1133
13.878	1078.78	47.123
13.8781	1087.152	47.1328
13.8786	1086.45	47.1426
13.8801	1079.92	47.1523
13.8816	1072.058	47.1621
13.8819	1070.567	47.1719
13.8826	1075.69	47.1816
13.8831	1082.563	47.1914
13.8852	1085.81	47.2012
13.8867	1087.938	47.2109
13.8859	1072.04	47.2207
13.88682	1071.73	47.2305
13.8867	1071.88	47.2402
13.8882	1079.09	47.25
13.889	1087.76	47.2598
13.8897	1082.52	47.2695
13.8908	1079.96	47.2793
13.8926	1074.04	47.2891
13.8923	1069.9	47.2988
13.8924	1075.91	47.3086
13.894	1081.52	47.3184
13.8946	1087.95	47.3281
13.8963	1082.27	47.3379
13.897	1073.69	47.3477
13.8981	1070.09	47.3574
13.8978	1073.75	47.3672
13.8996	1081.57	47.377
13.8999	1084.23	47.3867
13.9007	1084.67	47.3965
13.9015	1080.1	47.40625
13.9022	1072.95	47.416
13.9034	1069.99	47.4258
13.9036	1075.99	47.4355
13.9045	1084.31	47.4453
13.907	1089.51	47.4551
13.9063	1081.34	47.4648
13.9066	1071.66	47.4746
13.9075	1069.52	47.4844
13.90933	1076.16	47.4941
13.9099	1079.23	47.5039
13.9106	1088.67	47.5137
13.9115	1083.37	47.5234
13.9124	1076.68	47.5332
13.912	1069.22	47.543
13.9134	1068.61	47.5527
13.9148	1080.36	47.5625
13.9153	1086.89	47.5723
13.9155	1088.62	47.582
13.9177	1079.21	47.5918
13.9184	1069.51	47.6016
13.9186	1070.63	47.6113
13.9201	1073.11	47.6211
13.9202	1085.62	47.6309
13.9214	1087.54	47.6406
13.9214	1082.02	47.6504
13.92257	1077.59	47.6602
13.9233	1066.48	47.6699
13.923	1072.42	47.6797
13.92522	1082.02	47.6895
13.9272	1087.84	47.6992
13.9266	1084.89	47.709
13.92778	1075.07	47.71875
13.9277	1070.39	47.7285
13.9286	1071.05	47.7383
13.93	1076.89	47.748
13.9309	1085.321	47.7578
13.9313	1086.22	47.7676
13.93197	1083.661	47.7773
13.9331	1071.31	47.7871
13.9347	1068.24	47.7969
13.9353	1075.71	47.8066
13.9357	1083.929	47.8164
13.9369	1086.64	47.8262
13.9371	1082.2	47.8359
13.9377	1076.14	47.8457
13.9386	1070.68	47.8555
13.9401	1071.95	47.8652
13.9408	1078.14	47.875
13.9412	1085.03	47.8848
13.9435	1087.74	47.8945
13.9425	1076.87	47.9043
13.944	1073.15	47.9141
13.945	1069.33	47.9238
13.9456	1076	47.9336
13.9458	1085.26	47.9434
13.948	1084.1	47.9531
13.9483	1081.3	47.9629
13.9494	1076.52	47.9727
13.949	1070.62	47.9824
13.9505	1071.66	47.9922
13.952	1078.782	48.002
13.9508	1087.54	48.0117
13.9522	1084.48	48.0215
13.9541	1078.26	48.03125
13.9545	1070.75	48.041
13.9554	1070.92	48.0508
13.9561	1079.521	48.0605
13.9563	1082.71	48.0703
13.9572	1085.61	48.0801
13.95858	1083.15	48.0898
13.9599	1074.266	48.0996
13.96069	1068.58	48.1094
13.9613	1073.32	48.1191
13.961	1082.52	48.1289
13.9631	1088.51	48.1387
13.9633	1085.37	48.1484
13.9646	1075.12	48.1582
13.9649	1068.17	48.168
13.9654	1072.61	48.1777
13.9666	1076.19	48.1875
13.9679	1086.598	48.1973
13.9675	1086.887	48.207
13.9684	1080.86	48.2168
13.9697	1072.04	48.2266
13.9695	1067.99	48.2363
13.9712	1075.28	48.2461
13.9727	1085.4	48.2559
13.9734	1090.11	48.2656
13.9744	1082.61	48.2754
13.9747	1072.469	48.2852
13.9755	1070.64	48.2949
13.9763	1069.57	48.3047
13.9772	1083.68	48.3145
13.978	1087.54	48.3242
13.97827	1084.12	48.334
13.9793	1080.23	48.34375
13.9797	1066.46	48.3535
13.9808	1071.61	48.3633
13.9827	1077.8	48.373
13.98205	1085.4	48.3828
13.9844	1087.489	48.3926
13.9845	1077.71	48.4023
13.9852	1073.45	48.4121
13.9869	1070.06	48.4219
13.9869	1074.22	48.4316
13.9887	1082.3	48.4414
13.9877	1086.57	48.4512
13.9895	1085.88	48.4609
13.991	1073.22	48.4707
13.9915	1068.85	48.4805
13.9924	1073.83	48.4902
13.9927	1081.36	48.5
13.9932	1085.82	48.5098
13.99394	1084.15	48.5195
13.99591	1078.9	48.5293
13.9961	1071.93	48.5391
13.99667	1070.29	48.5488
13.9977	1074.506	48.5586
13.9992	1083.96	48.5684
13.9988	1086.56	48.5781
14.0002	1081.85	48.5879
14.0013	1074.47	48.5977
14.0017	1068.387	48.6074
14.0025	1075.03	48.6172
14.003	1081.6	48.627
14.0038	1083.02	48.6367
14.0046	1085.26	48.6465
14.0062	1079.89	48.65625
14.0058	1073.047	48.666
14.0073	1068.91	48.6758
14.0084	1075.73	48.6855
14.0091	1086.605	48.6953
14.0091	1085.12	48.7051
14.0102	1080.89	48.7148
14.011	1071.88	48.7246
14.0119	1068.18	48.7344
14.0123	1074.46	48.7441
14.0138	1080.498	48.7539
14.0151	1087.506	48.7637
14.0156	1085.65	48.7734
14.0156	1076.47	48.7832
14.017	1070.56	48.793
14.01964	1066.98	48.8027
14.0182	1079.45	48.8125
14.0198	1088.35	48.8223
14.0195	1085.82	48.832
14.021	1079	48.8418
14.0216	1071.55	48.8516
14.0223	1069.21	48.8613
14.0239	1072.38	48.8711
14.0246	1084.29	48.8809
14.0248	1087.63	48.8906
14.0268	1083.9	48.9004
14.0258	1072.8	48.9102
14.027	1066.92	48.9199
14.0303	1070.57	48.9297
14.0294	1082.43	48.9395
14.0296	1087.293	48.9492
14.0308	1083.66	48.959
14.0318	1075.49	48.96875
14.0323	1069.5	48.9785
14.0324	1066.71	48.9883
14.0336	1076.81	48.998
14.0349	1082.92	49.0078
14.037	1087.87	49.0176
14.03565	1082	49.0273
14.0372	1069.58	49.0371
14.0382	1069.1	49.0469
14.0399	1073.29	49.0566
14.0402	1082.149	49.0664
14.0405	1086.38	49.0762
14.0419	1080.42	49.0859
14.0431	1075.28	49.0957
14.0422	1068.71	49.1055
14.0435	1069.93	49.1152
14.0442	1077.66	49.125
14.0452	1083.41	49.1348
14.046	1087.22	49.1445
14.0474	1076.8	49.1543
14.0484	1070.17	49.1641
14.0492	1070.26	49.1738
14.0496	1076.04	49.1836
14.0497	1083.27	49.1934
14.0517	1084.85	49.2031
14.0521	1080.19	49.2129
14.0529	1075.28	49.2227
14.05351	1070.19	49.2324
14.0549	1071.11	49.2422
14.0554	1078.72	49.252
14.05652	1086.33	49.2617
14.0569	1082.59	49.2715
14.0582	1076.67	49.28125
14.0594	1068.83	49.291
14.0594	1070.45	49.3008
14.0601	1074.51	49.3105
14.0607	1081.44	49.3203
14.0625	1086.19	49.3301
14.0625	1080.53	49.3398
14.0626	1073.7	49.3496
14.065	1066.12	49.3594
14.0643	1069.03	49.3691
14.0658	1081.66	49.3789
14.0667	1085.71	49.3887
14.0674	1085.14	49.3984
14.0686	1073.46	49.4082
14.0697	1068.788	49.418
14.0701	1070.35	49.4277
14.0711	1072.75	49.4375
14.0715	1085.53	49.4473
14.073	1086.43	49.457
14.0732	1078.86	49.4668
14.07366	1069.41	49.4766
14.0745	1063.44	49.4863
14.0754	1072.97	49.4961
14.0759	1084.68	49.5059
14.0774	1086.5	49.5156
14.0783	1081.14	49.5254
14.0798	1070.24	49.5352
14.08	1069.28	49.5449
14.0805	1067.53	49.5547
14.0813	1080.26	49.5645
14.0815	1086.3	49.5742
14.08258	1084.77	49.584
14.0841	1076.58	49.59375
14.0851	1065.38	49.6035
14.08507	1067.9	49.6133
14.0868	1077.89	49.623
14.0868	1083.23	49.6328
14.0875	1083.68	49.6426
14.0888	1079.11	49.6523
14.09	1069.32	49.6621
14.0899	1068.05	49.6719
14.0912	1074.21	49.6816
14.0922	1080.26	49.6914
14.0929	1087.41	49.7012
14.09485	1083.18	49.7109
14.0949	1069.592	49.7207
14.0947	1068.34	49.7305
14.0961	1070.49	49.7402
14.0968	1079.73	49.75
14.0973	1085.568	49.7598
14.0978	1081.46	49.7695
14.0994	1077.58	49.7793
14.0995	1069.39	49.7891
14.1013	1069.04	49.7988
14.1021	1073.51	49.8086
14.1022	1080.48	49.8184
14.1028	1087.17	49.8281
14.10467	1080.07	49.8379
14.1052	1071.77	49.8477
14.1054	1068.74	49.8574
14.1061	1070.838	49.8672
14.10825	1079.99	49.877
14.1086	1082.68	49.8867
14.1087	1082.86	49.8965
14.1099	1079.22	49.90625
14.1112	1068.56	49.916
14.1117	1070.26	49.9258
14.1127	1074.48	49.9355
14.114	1084.13	49.9453
14.1146	1085.31	49.9551
14.1151	1080.42	49.9648
14.11566	1070.13	49.9746
14.1159	1069.89	49.9844
14.1168	1072.73	49.9941
14.1174	1080.14	50.0039
14.11869	1085.06	50.0137
14.1191	1084.28	50.0234
14.1205	1076.23	50.0332
14.1213	1066	50.043
14.1217	1067.85	50.0527
14.124	1077.69	50.0625
14.1234	1083.7	50.0723
14.12429	1086.06	50.082
14.1251	1075.74	50.0918
14.1265	1069.77	50.1016
14.1279	1069.36	50.1113
14.1266	1071.39	50.1211
14.1285	1082.87	50.1309
14.1292	1085.06	50.1406
14.13	1082.17	50.1504
14.1308	1071.56	50.1602
14.1318	1063.27	50.1699
14.1315	1069.96	50.1797
14.133	1080.4	50.1895
14.1346	1084.28	50.1992
14.1344	1083.39	50.209
14.1363	1072.93	50.21875
14.1375	1069.58	50.2285
14.13787	1066.43	50.2383
14.1387	1074.17	50.248
14.13842	1083.61	50.2578
14.1389	1085.53	50.2676
14.1398	1078.72	50.2773
14.1415	1069.1	50.2871
14.1431	1066.13	50.2969
14.1439	1074.38	50.3066
14.1448	1080.77	50.3164
14.145	1083.32	50.3262
14.1454	1079.03	50.3359
14.1467	1074.48	50.3457
14.1477	1068.56	50.3555
14.1476	1068.94	50.3652
14.148	1075.14	50.375
14.1492	1085.41	50.3848
14.1506	1086.14	50.3945
14.1518	1074.82	50.4043
14.1527	1068.94	50.4141
14.1525	1067.46	50.4238
14.1532	1075.47	50.4336
14.1543	1080.457	50.4434
14.155	1083.03	50.4531
14.156	1080.32	50.4629
14.157	1073.33	50.4727
14.1584	1068.94	50.4824
14.1576	1069.81	50.4922
14.1593	1076.4	50.502
14.1601	1084.41	50.5117
14.1609	1079.9	50.5215
14.16213	1075.64	50.53125
14.1639	1068.64	50.541
14.1634	1068.56	50.5508
14.1644	1075.44	50.5605
14.1646	1079.72	50.5703
14.1656	1085.424	50.5801
14.1679	1080.7	50.5898
14.16721	1068.667	50.5996
14.1684	1067.74	50.6094
14.1687	1068.04	50.6191
14.1704	1080.16	50.6289
14.1702	1085.77	50.6387
14.1722	1082.639	50.6484
14.1729	1073.43	50.6582
14.1724	1066.71	50.668
14.1747	1069.24	50.6777
14.1746	1074.45	50.6875
14.1752	1082.21	50.6973
14.1763	1085.41	50.707
14.1773	1078.45	50.7168
14.17869	1067.28	50.7266
14.1778	1064.18	50.7363
14.1795	1071.21	50.7461
14.1813	1082.203	50.7559
14.1816	1085.43	50.7656
14.1813	1078.43	50.7754
14.1828	1072.026	50.7852
14.1842	1068.32	50.7949
14.1845	1066.933	50.8047
14.1858	1079.097	50.8145
14.1868	1083.09	50.8242
14.18693	1084.96	50.834
14.1884	1075.66	50.84375
14.1889	1063.8	50.8535
14.1885	1067.47	50.8633
14.1904	1076.27	50.873
14.1916	1083.15	50.8828
14.1912	1082.69	50.8926
14.1927	1077.13	50.9023
14.1925	1072.1	50.9121
14.1944	1065.41	50.9219
14.1952	1070.76	50.9316
14.19602	1080.72	50.9414
14.1972	1084.67	50.9512
14.1979	1081.87	50.9609
14.1981	1070.43	50.9707
14.199	1065.66	50.9805
14.1991	1069.61	50.9902
14.2005	1078.27	51
14.2016	1081.59	51.0098
14.2026	1081.48	51.0195
14.2038	1075.83	51.0293
14.2036	1070.23	51.0391
14.2057	1066.924	51.0488
14.2056	1070.416	51.0586
14.2065	1080.123	51.0684
14.2075	1083.37	51.0781
14.2086	1076.86	51.0879
14.2091	1070.11	51.0977
14.2096	1066.39	51.1074
14.2098	1071.57	51.1172
14.212	1076.37	51.127
14.2133	1081.27	51.1367
14.2133	1082.2	51.1465
14.2141	1073.813	51.15625
14.2151	1069.57	51.166
14.2153	1065.45	51.1758
14.216	1072.88	51.1855
14.2178	1082.17	51.1953
14.2173	1080.98	51.2051
14.2191	1079.05	51.2148
14.2197	1068.82	51.2246
14.2207	1067.29	51.2344
14.2213	1071.21	51.2441
14.221	1075.67	51.2539
14.2234	1082.91	51.2637
14.2237	1081.86	51.2734
14.2241	1073.84	51.2832
14.2259	1067.3	51.293
14.2254	1066.44	51.3027
14.2258	1077.74	51.3125
14.2283	1081.79	51.3223
14.2274	1082.2	51.332
14.2291	1075.85	51.3418
14.2305	1069.15	51.3516
14.2313	1067.6	51.3613
14.2319	1069.31	51.3711
14.2323	1078.86	51.3809
14.2334	1085.31	51.3906
14.2342	1080.83	51.4004
14.2352	1070.16	51.4102
14.2355	1064.6	51.4199
14.2367	1069.39	51.4297
14.23747	1078.99	51.4395
14.2391	1083.6	51.4492
14.2384	1080.01	51.459
14.2402	1073.14	51.46875
14.2412	1067.79	51.4785
14.2412	1065.33	51.4883
14.24184	1077.19	51.498
14.24341	1081.45	51.5078
14.2442	1086.36	51.5176
14.2448	1076.83	51.5273
14.2447	1066.343	51.5371
14.2465	1065.66	51.5469
14.2468	1072.64	51.5566
14.2483	1080.14	51.5664
14.2485	1083.54	51.5762
14.2497	1078.12	51.5859
14.2516	1073.24	51.5957
14.2509	1064.82	51.6055
14.2524	1069.85	51.6152
14.2535	1076.03	51.625
14.2544	1083	51.6348
14.2547	1084.299	51.6445
14.2553	1072.8	51.6543
14.2562	1067.28	51.6641
14.2574	1067.1	51.6738
14.2578	1071.09	51.6836
14.25928	1079.48	51.6934
14.2598	1081.37	51.7031
14.2604	1077.215	51.7129
14.2617	1070.7	51.7227
14.2621	1064.92	51.7324
14.2633	1067.67	51.7422
14.2627	1076.95	51.752
14.2648	1081.61	51.7617
14.2658	1079.27	51.7715
14.2659	1072.49	51.78125
14.2668	1068.48	51.791
14.2679	1067.6	51.8008
14.26793	1071.09	51.8105
14.2692	1079.81	51.8203
14.2701	1083.05	51.8301
14.2706	1078.66	51.8398
14.2718	1069.53	51.8496
14.2721	1063.52	51.8594
14.27349	1068.06	51.8691
14.274	1078.79	51.8789
14.2744	1081.43	51.8887
14.2758	1079.82	51.8984
14.2771	1071.44	51.9082
14.2773	1066.85	51.918
14.279	1066.99	51.9277
14.2784	1072.76	51.9375
14.2805	1082.08	51.9473
14.2809	1083.32	51.957
14.281	1076.69	51.9668
14.2826	1067.32	51.9766
14.2822	1061.29	51.9863
14.2841	1072.38	51.9961
14.2861	1080.67	52.0059
14.2853	1082.69	52.0156
14.2862	1080.13	52.0254
14.288	1068.73	52.0352
14.2888	1065.54	52.0449
14.2884	1065.64	52.0547
14.2893	1075.54	52.0645
14.2908	1084.83	52.0742
14.2909	1079.75	52.084
14.2923	1072.85	52.09375
14.2931	1062.47	52.1035
14.2933	1063.58	52.1133
14.295	1075.39	52.123
14.296	1080.3	52.1328
14.2963	1079.75	52.1426
14.2967	1074.458	52.1523
14.2983	1067.97	52.1621
14.2991	1063.75	52.1719
14.29956	1069.32	52.1816
14.2999	1076.79	52.1914
14.3007	1083.45	52.2012
14.3016	1078.33	52.2109
14.3035	1068.1	52.2207
14.3037	1063.29	52.2305
14.3033	1066.557	52.2402
14.3048	1078.08	52.25
14.3059	1080.08	52.2598
14.3069	1079.76	52.2695
14.308	1073.9	52.2793
14.3088	1063.524	52.2891
14.3086	1065.429	52.2988
14.3101	1068.94	52.3086
14.3113	1078.214	52.3184
14.3124	1082.6	52.3281
14.3137	1072.71	52.3379
14.3136	1069.24	52.3477
14.3143	1066.17	52.3574
14.3147	1067.81	52.3672
14.3163	1075.86	52.377
14.3164	1077.79	52.3867
14.3173	1080.213	52.3965
14.3174	1072.98	52.40625
14.3183	1064.43	52.416
14.3198	1063.85	52.4258
14.3209	1070.52	52.4355
14.3217	1079.75	52.4453
14.3226	1078.251	52.4551
14.3227	1074.86	52.4648
14.32384	1067.61	52.4746
14.3248	1062.95	52.4844
14.325	1067.19	52.4941
14.3272	1072.77	52.5039
14.3279	1078.77	52.5137
14.328	1078.38	52.5234
14.329	1070.938	52.5332
14.3297	1061.22	52.543
14.3301	1063.66	52.5527
14.32981	1072.063	52.5625
14.3318	1078.06	52.5723
14.3332	1080.76	52.582
14.3339	1071.55	52.5918
14.3343	1065.95	52.6016
14.33492	1063.31	52.6113
14.3357	1065.06	52.6211
14.3369	1075.56	52.6309
14.3381	1079.114	52.6406
14.3378	1076.28	52.6504
14.339	1065.04	52.6602
14.3379	1058.34	52.6699
14.3415	1063.4	52.6797
14.3406	1072.27	52.6895
14.3416	1078.91	52.6992
14.3438	1075.489	52.709
14.3437	1066.18	52.71875
14.3445	1061.967	52.7285
14.345	1055.26	52.7383
14.3465	1065.08	52.748
14.3478	1072.61	52.7578
14.34922	897.646	52.7676
14.3568	-135.539	52.7773
14.356	-26.9659	52.7871
14.3564	-59.3237	52.7969
14.3567	-31.6123	52.8066
14.3562	-37.2606	52.8164
14.3561	-25.4343	52.8262
14.3565	-33.5031	52.8359
14.3581	-38.9949	52.8457
14.3581	-51.45	52.8555
14.3589	-48.7463	52.8652
14.3589	-38.4349	52.875
14.3595	-31.8095	52.8848
14.3601	-28.1189	52.8945
14.3607	-38.5608	52.9043
14.3621	-47.8122	52.9141
14.3625	-49.7309	52.9238
14.3627	-43.5603	52.9336
14.36362	-37.0326	52.9434
14.3653	-29.9138	52.9531
14.365	-32.2268	52.9629
14.3667	-42.6174	52.9727
14.3665	-48.8729	52.9824
14.3682	-49.4934	52.9922
14.3686	-37.7951	53.002
14.3702	-29.52165	53.0117
14.3702	-35.121	53.0215
14.3711	-38.8314	53.03125
14.372	-45.9311	53.041
14.3721	-47.7709	53.0508
14.3736	-43.19569	53.0605
14.3747	-36.4204	53.0703
14.3748	-29.2027	53.0801
14.37542	-33.3859	53.0898
14.3765	-45.1436	53.0996
14.3779	-51.7026	53.1094
14.3782	-47.5403	53.1191
14.3802	-34.1771	53.1289
14.3795	-31.2369	53.1387
14.3803	-31.5908	53.1484
14.38209	-38.5114	53.1582
14.3828	-48.6485	53.168
14.3837	-47.4149	53.1777
14.38413	-43.2477	53.1875
14.38518	-32.4451	53.1973
14.3861	-27.9995	53.207
14.3859	-35.1734	53.2168
14.3862	-44.3896	53.2266
14.3871	-50.1351	53.2363
14.3893	-43.9008	53.2461
14.3889	-34.8349	53.2559
14.3902	-28.0921	53.2656
14.3917	-33.5972	53.2754
14.3915	-39.4703	53.2852
14.39349	-48.9124	53.2949
14.3939	-48.5358	53.3047
14.3941	-38.31889	53.3145
14.3948	-30.2314	53.3242
14.3958	-29.36232	53.334
14.3972	-39.3053	53.34375
14.3976	-48.4877	53.3535
14.3981	-47.2353	53.3633
14.3995	-42.3498	53.373
14.3994	-31.0652	53.3828
14.4004	-31.3713	53.3926
14.402	-35.2166	53.4023
14.4024	-41.6208	53.4121
14.404	-51.2976	53.4219
14.404	-44.9646	53.4316
14.4043	-35.3195	53.4414
14.4054	-29.9962	53.4512
14.4066	-32.545	53.4609
14.4081	-46.0147	53.4707
14.40708	-49.2684	53.4805
14.4088	-46.022	53.4902
14.4099	-39.3261	53.5
14.4102	-32.8772	53.5098
14.4116	-32.1177	53.5195
14.41321	-35.8356	53.5293
14.41322	-47.9582	53.5391
14.4145	-49.37199	53.5488
14.4148	-41.7241	53.5586
14.4151	-34.2057	53.5684
14.4155	-30.8872	53.5781
14.4171	-37.3706	53.5879
14.4189	-44.4567	53.5977
14.4177	-46.1566	53.6074
14.4196	-45.4193	53.6172
14.4196	-38.1545	53.627
14.421	-33.7494	53.6367
14.4233	-33.7105	53.6465
14.4225	-39.9816	53.65625
14.4234	-45.314	53.666
14.4233	-50.1856	53.6758
14.4247	-41.5467	53.6855
14.42598	-32.2513	53.6953
14.4273	-34.5686	53.7051
14.4275	-36.1349	53.7148
14.4288	-44.1424	53.7246
14.4293	-47.5511	53.7344
14.4304	-43.84285	53.7441
14.4312	-39.7632	53.7539
14.4315	-31.97319	53.7637
14.4323	-31.6354	53.7734
14.43354	-40.875	53.7832
14.4342	-48.8732	53.793
14.4357	-48.3028	53.8027
14.436	-38.0622	53.8125
14.4351	-35.9885	53.8223
14.43659	-30.6623	53.832
14.4372	-37.6663	53.8418
14.4389	-44.4614	53.8516
14.4405	-47.8281	53.8613
14.4419	-46.2702	53.8711
14.4414	-36.0615	53.8809
14.442	-29.9574	53.8906
14.4432	-36.4313	53.9004
14.4443	-43.2577	53.9102
14.4441	-49.9948	53.9199
14.4449	-45.27359	53.9297
14.44554	-36.7422	53.9395
14.4473	-31.9931	53.9492
14.4481	-33.4833	53.959
14.4488	-38.4354	53.96875
14.4505	-46.0145	53.9785
14.45063	-49.72805	53.9883
14.451	-40.7816	53.998
14.4513	-32.0187	54.0078
14.4525	-30.5686	54.0176
14.4532	-37.4465	54.0273
14.4537	-47.0575	54.0371
14.4553	-47.9677	54.0469
14.4558	-43.841	54.0566
14.456	-35.7088	54.0664
14.4571	-33.4275	54.0762
14.4585	-33.9531	54.0859
14.4585	-41.09341	54.0957
14.4601	-50.93	54.1055
14.4613	-45.1018	54.1152
14.4617	-40.3257	54.125
14.4626	-32.7965	54.1348
14.4641	-31.5512	54.1445
14.4648	-43.655	54.1543
14.4649	-46.8799	54.1641
14.4655	-47.0701	54.1738
14.4666	-42.4088	54.1836
14.467	-35.5434	54.1934
14.4688	-33.7901	54.2031
14.4688	-34.8355	54.2129
14.4695	-45.68988	54.2227
14.4711	-48.7681	54.2324
14.472	-44.2674	54.2422
14.4722	-36.4405	54.252
14.4725	-32.3546	54.2617
14.4738	-36.2322	54.2715
14.4752	-43.0389	54.28125
14.47517	-46.0852	54.291
14.4757	-48.072	54.3008
14.4773	-43.2007	54.3105
14.4788	-35.4869	54.3203
14.479	-32.1583	54.3301
14.4795	-36.00787	54.3398
14.4803	-43.9621	54.3496
14.4815	-49.5922	54.3594
14.4821	-44.8683	54.3691
14.4831	-36.59127	54.3789
14.4833	-34.2633	54.3887
14.4853	-33.8572	54.3984
14.4853	-42.1103	54.4082
14.4862	-46.0731	54.418
14.4873	-48.8519	54.4277
14.48689	-43.932	54.4375
14.4886	-32.5694	54.4473
14.4899	-31.5847	54.457
14.49043	-38.25423	54.4668
14.4911	-48.3191	54.4766
14.4914	-49.7274	54.4863
14.4919	-40.2271	54.4961
14.4931	-36.4679	54.5059
14.49434	-31.2789	54.5156
14.4948	-35.3942	54.5254
14.4957	-43.2668	54.5352
14.4959	-48.60078	54.5449
14.4967	-49.5804	54.5547
14.49824	-39.1733	54.5645
14.4991	-30.6446	54.5742
14.4998	-33.4752	54.584
14.5009	-40.6933	54.59375
14.5011	-51.1504	54.6035
14.5022	-48.4081	54.6133
14.5028	-41.9417	54.623
14.5038	-35.22477	54.6328